time,seconds_elapsed,z,y,x
1772018043932408600,0.07240869140625,-0.014290371909737587,0.013327478431165218,-0.05110054835677147
1772018043952375600,0.09237548828125,-0.008461748249828815,0.012784727849066257,-0.07465606927871704
1772018043972343800,0.11234375,-0.006404800806194544,-0.021189041435718536,-0.037216030061244965
1772018043992310500,0.132310546875,-0.003952493891119957,-0.009733010083436966,0.01989533193409443
1772018044012278500,0.152278564453125,-0.008625512942671776,-0.005449582822620869,0.05207257717847824
1772018044032245800,0.172245849609375,-0.006061766296625137,0.0034612659364938736,0.04104309156537056
1772018044052213800,0.1922138671875,-0.0035340613685548306,-0.02368655428290367,0.010684124194085598
1772018044072180500,0.212180419921875,-0.008848773315548897,-0.014526700600981712,-0.01145939715206623
1772018044092147700,0.232147705078125,-0.003276820294559002,-0.028164483606815338,0.004518639296293259
1772018044112115700,0.25211572265625,0.00791556853801012,-0.020960187539458275,0.03393910825252533
1772018044132082400,0.27208251953125,-0.0030261054635047913,0.003718433901667595,0.031752653419971466
1772018044152050400,0.292050537109375,-0.012804052792489529,-0.014144448563456535,0.019710106775164604
1772018044172017700,0.312017578125,-0.008142808452248573,-0.02729061245918274,0.0008201701566576958
1772018044191985700,0.331985595703125,-0.004781424067914486,-0.027927380055189133,0.0033296647015959024
1772018044211952600,0.35195263671875,0.004974867217242718,0.0011092489585280418,0.014245831407606602
1772018044231919600,0.371919677734375,0.002146638697013259,0.00037510693073272705,0.034969087690114975
1772018044251887600,0.3918876953125,0.004049220122396946,-0.003986263647675514,0.02368740364909172
1772018044271854600,0.4118544921875,0.003562592901289463,-0.016482792794704437,0.008516572415828705
1772018044291822600,0.431822509765625,0.005521880462765694,0.0004501165822148323,0.012244464829564095
1772018044311789600,0.45178955078125,0.010112067684531212,-0.004790898412466049,0.029043417423963547
1772018044331757600,0.471757568359375,0.006468567997217178,-0.006600252818316221,0.02217738889157772
1772018044351724500,0.491724609375,-0.002484466414898634,-0.02048473432660103,0.011834202334284782
1772018044371691500,0.51169140625,0.002516580978408456,-0.005599962547421455,0.01788690686225891
1772018044391659500,0.531659423828125,0.0038934352342039347,-0.006998654454946518,0.016024557873606682
1772018044411626500,0.55162646484375,0.007640872150659561,-0.006483430042862892,0.016239337623119354
1772018044431594500,0.571594482421875,0.005440321285277605,-0.001847841776907444,0.01633494533598423
1772018044451561700,0.591561767578125,0.0001835078001022339,-0.006554179824888706,0.01692883111536503
1772018044471529500,0.611529541015625,-0.0013031624257564545,0.006815764121711254,0.01878265291452408
1772018044491496400,0.631496337890625,-0.0007259044796228409,0.0031565092504024506,0.01272556558251381
1772018044511463700,0.651463623046875,-0.003170362673699856,-0.00025712791830301285,0.007850917056202888
1772018044531431700,0.671431640625,-0.0013443478383123875,-0.010183003731071949,0.016196461394429207
1772018044551398700,0.691398681640625,-0.00009618047624826431,-0.022946741431951523,0.01723163016140461
1772018044571367000,0.711366943359375,0.0024176049046218395,-0.02033098042011261,0.01242768857628107
1772018044591333600,0.731333740234375,0.006420934572815895,-0.020444780588150024,0.016082214191555977
1772018044611301600,0.751301513671875,0.0055356621742248535,0.0035221558064222336,-0.0016291410429403186
1772018044631268900,0.771268798828125,0.00492832949385047,0.02709442377090454,-0.03199236840009689
1772018044651235800,0.79123583984375,-0.01232877466827631,-0.0061692604795098305,-0.037518296390771866
1772018044671203600,0.81120361328125,-0.002753565553575754,-0.014666188508272171,-0.0014388622948899865
1772018044691170800,0.8311708984375,-0.011555868200957775,-0.004822230897843838,0.026148032397031784
1772018044711138800,0.851138916015625,-0.005338994320482016,-0.001354173757135868,0.030113346874713898
1772018044731105800,0.871105712890625,-0.01273869164288044,0.019042614847421646,0.007332262117415667
1772018044751073500,0.891073486328125,-0.012169089168310165,0.012284482829272747,-0.021112296730279922
1772018044771040800,0.911040771484375,-0.004524056799709797,-0.008029742166399956,-0.021614428609609604
1772018044791007700,0.9310078125,-0.0096896942704916,-0.00436018593609333,-0.01083449274301529
1772018044810975700,0.950975830078125,-0.009724032133817673,-0.029900608584284782,0.0029170068446546793
1772018044830942700,0.970942626953125,-0.021577779203653336,-0.00012069940567016602,-0.013015355914831161
1772018044850910700,0.99091064453125,-0.017983898520469666,-0.00703833531588316,-0.02364429086446762
1772018044870877700,1.010877685546875,-0.02124730870127678,-0.004692554008215666,-0.008297698572278023
1772018044890845700,1.030845703125,-0.013040565885603428,0.008670645765960217,0.0174619909375906
1772018044910812700,1.050812744140625,-0.014897698536515236,-0.00587622681632638,0.005487225018441677
1772018044930779600,1.070779541015625,-0.012908924371004105,-0.008910995908081532,-0.012783394195139408
1772018044950747600,1.09074755859375,-0.014086738228797913,0.007457689382135868,-0.00887373648583889
1772018044970715000,1.11071484375,-0.009288014844059944,0.006875786930322647,-0.0007938403869047761
1772018044990682600,1.1306826171875,-0.008901076391339302,0.004786979407072067,0.004226217977702618
1772018045010649600,1.150649658203125,-0.007157192099839449,0.00716793816536665,-0.0032925503328442574
1772018045030617600,1.17061767578125,-0.002723701298236847,-0.008104575797915459,-0.014991412870585918
1772018045050584800,1.190584716796875,-0.01300688087940216,-0.00311666214838624,-0.001534332986921072
1772018045070551600,1.210551513671875,0.000925569562241435,-0.011519547551870346,0.017384901642799377
1772018045090519600,1.23051953125,0.006473390385508537,-0.01198622677475214,0.01107693463563919
1772018045110486800,1.25048681640625,0.002861402230337262,-0.006682537961751223,-0.014471299946308136
1772018045130454800,1.270454833984375,0.0007899280171841383,-0.006769007071852684,-0.01977379061281681
1772018045150421500,1.29042138671875,-0.002493521198630333,-0.007679722271859646,0.006804023869335651
1772018045170389800,1.3103896484375,0.009458642452955246,-0.014482935890555382,0.02606760524213314
1772018045190356700,1.330356689453125,0.007681628223508596,-0.00011217128485441208,0.017073573544621468
1772018045210323700,1.35032373046875,0.009146062657237053,-0.012062489986419678,0.019151104614138603
1772018045230291700,1.370291748046875,-0.01341884396970272,0.02217937633395195,0.0033279340714216232
1772018045250258700,1.3902587890625,0.0041408902034163475,0.0145075973123312,0.011958836577832699
1772018045270226700,1.410226806640625,0.012789551168680191,-0.00974491611123085,0.01949704997241497
1772018045290194000,1.43019384765625,0.007497679442167282,0.005652601830661297,-0.0043670013546943665
1772018045310161700,1.45016162109375,0.0030023984145373106,0.007775039412081242,-0.032298505306243896
1772018045330128600,1.470128662109375,0.0030108920764178038,-0.02115887776017189,-0.019449153915047646
1772018045350096000,1.490095947265625,0.008625946938991547,-0.006087954621762037,0.0013092563021928072
1772018045370064000,1.51006396484375,0.006119988858699799,-0.01875944435596466,0.008600727654993534
1772018045390030600,1.530030517578125,0.00704833772033453,-0.004284367896616459,-0.01278858445584774
1772018045409998600,1.54999853515625,-0.0018394109793007374,0.01631021313369274,-0.018664050847291946
1772018045429965800,1.5699658203125,0.004414005670696497,0.009359722957015038,0.013807474635541439
1772018045449932800,1.589932861328125,0.011487294919788837,-0.0006267828866839409,0.04143869876861572
1772018045469900500,1.609900634765625,0.01031358353793621,0.005847622640430927,0.042536988854408264
1772018045489867800,1.62986767578125,0.004162546247243881,0.0012035202234983444,0.027904648333787918
1772018045509836000,1.6498359375,0.01907133311033249,-0.008953169919550419,0.019046040251851082
1772018045529803000,1.669802978515625,0.009607230313122272,0.013009914197027683,0.02899281308054924
1772018045549771000,1.68977099609375,0.007061285432428122,0.011952822096645832,0.027206366881728172
1772018045569738000,1.709738037109375,0.005808617454022169,0.02265155129134655,-0.001754310098476708
1772018045589705000,1.729705078125,-0.0031913244165480137,0.022479504346847534,-0.008055883459746838
1772018045609673000,1.7496728515625,0.003829678986221552,-0.003654349595308304,0.008072223514318466
1772018045629640000,1.769639892578125,0.004615217447280884,-0.013163086026906967,0.02217339165508747
1772018045649608000,1.78960791015625,0.009010916575789452,-0.007637902162969112,0.011544454842805862
1772018045669575000,1.809574951171875,0.007127709686756134,0.007682724855840206,-0.0063348133116960526
1772018045689542100,1.829542236328125,0.005689794197678566,0.025984138250350952,0.008515768684446812
1772018045709510000,1.849510009765625,0.0068509504199028015,0.023623069748282433,0.02731688879430294
1772018045729476900,1.869476806640625,0.011475062929093838,0.00553160160779953,0.01011140551418066
1772018045749444900,1.88944482421875,0.01014658436179161,0.001261567696928978,-0.015052806586027145
1772018045769412000,1.909412109375,0.008052780292928219,0.003600616939365864,-0.002940884092822671
1772018045789379800,1.9293798828125,0.007169960532337427,-0.007923055440187454,0.013924648985266685
1772018045809346800,1.949346923828125,0.004383761435747147,-0.012485848739743233,0.013895087875425816
1772018045829314000,1.96931396484375,-0.0010842224583029747,-0.0029995767399668694,-0.008841116912662983
1772018045849282000,1.989281982421875,0.0008428127039223909,0.0015714671462774277,-0.01990455389022827
1772018045869248800,2.009248779296875,0.006025856826454401,-0.008342682383954525,-0.009858578443527222
1772018045889217000,2.029217041015625,0.011462719179689884,-0.02074972540140152,0.013493883423507214
1772018045909184000,2.04918408203125,0.006726105231791735,-0.02782280370593071,0.022496037185192108
1772018045929151000,2.06915087890625,0.004950720351189375,-0.021245256066322327,0.022022388875484467
1772018045949119000,2.089118896484375,0.0009070883970707655,-0.010774491354823112,0.02260482683777809
1772018045969086000,2.1090859375,0.004017053637653589,0.009539736434817314,0.01772484742105007
1772018045989054000,2.129053955078125,0.009775284677743912,-0.02276255190372467,0.011376667767763138
1772018046009021000,2.14902099609375,0.013714072294533253,-0.019735608249902725,0.012872165068984032
1772018046028989000,2.168989013671875,0.009903134778141975,-0.004597836639732122,0.00351128913462162
1772018046048956000,2.188955810546875,0.017655186355113983,0.00008964911103248596,0.00009817804675549269
1772018046068923000,2.2089228515625,0.01364224124699831,0.006360010243952274,0.015303101390600204
1772018046088891100,2.22889111328125,0.002521118614822626,0.008110768161714077,0.014189766719937325
1772018046108857900,2.24885791015625,-0.007273866329342127,-0.006856003776192665,-0.0031699128448963165
1772018046128825900,2.268825927734375,0.0005681861657649279,-0.00012897048145532608,-0.01844620890915394
1772018046148793000,2.28879296875,0.005559602286666632,-0.0004725884646177292,-0.0029824273660779
1772018046168760000,2.308760009765625,0.005255652591586113,0.01041360292583704,0.013261920772492886
1772018046188727800,2.328727783203125,-0.003121880814433098,0.022558409720659256,0.017602739855647087
1772018046208695000,2.348695068359375,-0.004431402776390314,0.01469799317419529,-0.0009047664352692664
1772018046228663000,2.3686630859375,0.002644590102136135,0.015103853307664394,-0.011330642737448215
1772018046248630000,2.388630126953125,0.0056887101382017136,0.01003943383693695,-0.006096463184803724
1772018046268597000,2.408596923828125,0.005312083754688501,-0.0005770018324255943,0.006728519685566425
1772018046288565000,2.42856494140625,0.005187301896512508,-0.010366052389144897,0.02210281975567341
1772018046308532000,2.448531982421875,0.00488652940839529,0.005738245323300362,0.01611962541937828
1772018046328500000,2.4685,-0.0002693505957722664,0.006441585719585419,-0.010817982256412506
1772018046348467000,2.488467041015625,0.0031898110173642635,0.0073879798874258995,-0.010827303864061832
1772018046368435000,2.50843505859375,0.003895576111972332,0.010905754752457142,0.013189216144382954
1772018046388402000,2.52840185546875,0.002961063990369439,0.007936951704323292,0.017530035227537155
1772018046408369200,2.548369140625,-0.0015562265180051327,0.007687493227422237,-0.0006713397451676428
1772018046428337000,2.5683369140625,0.0037530879490077496,-0.006857441272586584,-0.0017531146295368671
1772018046448303900,2.588303955078125,-0.0007002954371273518,-0.0025655897334218025,-0.0003777263918891549
1772018046468271900,2.60827197265625,-0.0037274928763508797,-0.005110945552587509,-0.007247882895171642
1772018046488239000,2.628239013671875,0.0011184595059603453,0.007063351571559906,-0.012259550392627716
1772018046508204800,2.648204833984375,-0.003806082531809807,0.013612400740385056,-0.0013728169724345207
1772018046528172800,2.6681728515625,-0.0002388511784374714,0.007837099954485893,0.014371131546795368
1772018046548139800,2.688139892578125,-0.0003109048120677471,0.010355985723435879,0.013451537117362022
1772018046568107500,2.708107421875,-0.002563104033470154,-0.0020347191020846367,-0.0030134550761431456
1772018046588074800,2.72807470703125,-0.005939450114965439,-0.0251153577119112,-0.001516092219389975
1772018046608041700,2.748041748046875,-0.004026740323752165,-0.016938116401433945,0.004138465505093336
1772018046628009700,2.768009765625,0.0033130343072116375,-0.008204578422009945,0.0005035120993852615
1772018046647976700,2.787976806640625,0.0011003040708601475,0.011179967783391476,0.0004172283224761486
1772018046667944700,2.80794482421875,-0.005536933895200491,0.004878905601799488,-0.001593727502040565
1772018046687911700,2.82791162109375,0.003746935399249196,0.010522342287003994,0.0017035342752933502
1772018046707878700,2.847878662109375,0.00069568888284266,-0.003835749812424183,-0.0016870705876499414
1772018046727846700,2.8678466796875,0.0029533221386373043,0.0005186228081583977,-0.011811342090368271
1772018046747813600,2.887813720703125,0.0026153945364058018,-0.003667860757559538,-0.01083968672901392
1772018046767781600,2.90778173828125,-0.005369570571929216,-0.0051231905817985535,-0.002145930891856551
1772018046787748900,2.927748779296875,-0.007807969581335783,-0.0008026589639484882,-0.0035231849178671837
1772018046807715600,2.947715576171875,-0.005999692250043154,-0.0068870955146849155,-0.007501814980059862
1772018046827683600,2.96768359375,0.0001500975340604782,0.01698344200849533,-0.0033078682608902454
1772018046847650800,2.98765087890625,-0.00011440878733992577,0.010527130216360092,-0.002642346080392599
1772018046867618800,3.007618896484375,0.0026819370687007904,-0.0027388683520257473,0.011942856013774872
1772018046887585500,3.02758544921875,0.004972423892468214,-0.006566742435097694,0.021058987826108932
1772018046907553800,3.0475537109375,0.0042534866370260715,0.002613377757370472,0.003466547466814518
1772018046927520800,3.067520751953125,-0.002497323788702488,0.01365023385733366,-0.017734345048666
1772018046947487500,3.087487548828125,-0.0006502098403871059,-0.01522616483271122,-0.007829250767827034
1772018046967455700,3.107455810546875,0.005056348629295826,-0.011777562089264393,0.02033354341983795
1772018046987422700,3.127422607421875,0.000012871809303760529,0.015341500751674175,0.004566031973809004
1772018047007390700,3.147390625,0.00107786082662642,0.0086605129763484,-0.023401819169521332
1772018047027357700,3.167357666015625,0.00795662123709917,-0.011759255081415176,-0.008903169073164463
1772018047047324700,3.18732470703125,0.002561756409704685,0.0016959886997938156,0.017232423648238182
1772018047067292700,3.207292724609375,-0.001738253515213728,0.005898080766201019,0.005104653537273407
1772018047087259600,3.227259765625,-0.0048775081522762775,-0.007647265680134296,-0.021112700924277306
1772018047107226600,3.2472265625,0.00042570196092128754,-0.017293836921453476,-0.024063754826784134
1772018047127194600,3.267194580078125,0.0030927909538149834,-0.010918872430920601,0.020960582420229912
1772018047147161600,3.28716162109375,0.0017966842278838158,0.00966923963278532,0.04592772200703621
1772018047167129900,3.3071298828125,-0.002037221100181341,0.009608160704374313,0.024831224232912064
1772018047187096600,3.3270966796875,0.003377927001565695,-0.006536046043038368,-0.01883210428059101
1772018047207064600,3.347064697265625,0.0022969767451286316,-0.0008571138605475426,-0.023747634142637253
1772018047227031800,3.36703173828125,0.0048837666399776936,0.001116485334932804,-0.0031631281599402428
1772018047246998800,3.386998779296875,0.0002871858887374401,-0.010285653173923492,0.014981256797909737
1772018047266966800,3.406966796875,-0.0008627930656075478,-0.0232858806848526,0.016964111477136612
1772018047286933800,3.426933837890625,-0.0005722693167626858,-0.010080070234835148,0.0015133824199438095
1772018047306900700,3.446900634765625,-0.003732349257916212,-0.009228650480508804,-0.014758131466805935
1772018047326868700,3.46686865234375,-0.006722271908074617,-0.00978747010231018,-0.009715036489069462
1772018047346835700,3.486835693359375,-0.0037087006494402885,-0.010331480763852596,3.069872036576271e-7
1772018047366803700,3.5068037109375,-0.005380109418183565,0.00634425412863493,-0.0006909167277626693
1772018047386770700,3.526770751953125,-0.0024647112004458904,0.006511956453323364,-0.0004072892479598522
1772018047406738000,3.546738037109375,-0.006379229016602039,0.002774667926132679,0.0034086222294718027
1772018047426705700,3.56670556640625,-0.004661801736801863,0.003406004048883915,0.01295006088912487
1772018047446672600,3.586672607421875,-0.00239688903093338,0.009826320223510265,0.0023232477251440287
1772018047466640600,3.606640625,-0.007128688041120768,0.011377111077308655,-0.0027239727787673473
1772018047486608000,3.62660791015625,-0.005506058689206839,-0.002284292597323656,0.01318814791738987
1772018047506574600,3.64657470703125,0.0033076901454478502,-0.0005089351907372475,0.020201848819851875
1772018047526542600,3.66654248046875,0.001987579045817256,0.012351563200354576,-0.001268821652047336
1772018047546509800,3.686509765625,-0.004560308065265417,0.005336269736289978,-0.02060084044933319
1772018047566477800,3.706477783203125,-0.0063549671322107315,-0.001734590157866478,-0.010232753120362759
1772018047586444500,3.726444580078125,-0.0032365568913519382,-0.012427045032382011,0.014670329168438911
1772018047606411800,3.746411865234375,0.004137753508985043,-0.009060715325176716,0.017460523173213005
1772018047626379800,3.7663798828125,-0.0005203103646636009,0.007119429297745228,0.007010281085968018
1772018047646346800,3.7863466796875,-0.0033163633197546005,0.013194899074733257,-0.006220569834113121
1772018047666314500,3.806314453125,-0.0020993342623114586,-0.006499097682535648,-0.006093537900596857
1772018047686281700,3.82628173828125,0.002361202845349908,0.003164363093674183,0.012025411240756512
1772018047706248700,3.846248779296875,0.002871233504265547,0.009857871569693089,0.017733899876475334
1772018047726216700,3.866216796875,-0.0011845300905406475,0.012820718809962273,0.007444508373737335
1772018047746183700,3.88618359375,0.0005227699875831604,0.0052786292508244514,-0.004776206333190203
1772018047766150700,3.906150634765625,0.000017816666513681412,0.018388479948043823,0.0013205679133534431
1772018047786118700,3.92611865234375,-0.0010456261225044727,0.022572999820113182,0.020209968090057373
1772018047806085600,3.946085693359375,-0.002368925604969263,0.0233762189745903,0.019889991730451584
1772018047826053600,3.9660537109375,-0.0007127742283046246,-0.007765037007629871,-0.005323221907019615
1772018047846020600,3.9860205078125,0.0036641142796725035,-0.017932280898094177,-0.014483430422842503
1772018047865987800,4.00598779296875,0.010048622265458107,-0.019778700545430183,0.0010546515695750713
1772018047885955800,4.025955810546875,0.0016867683734744787,-0.002943991683423519,0.016582079231739044
1772018047905922600,4.045922607421875,0.00440185284242034,0.005380068905651569,0.022633977234363556
1772018047925890600,4.065890625,0.008850705809891224,0.000450928695499897,0.004416491836309433
1772018047945857800,4.08585791015625,0.00791375432163477,-0.006397673860192299,-0.014505534432828426
1772018047965824500,4.105824462890625,0.007175088860094547,-0.004843865986913443,-0.00582589115947485
1772018047985792500,4.12579248046875,0.009101060219109058,-0.014080248773097992,0.020213032141327858
1772018048005759700,4.145759765625,0.011864330619573593,0.015894953161478043,0.03433750942349434
1772018048025727700,4.165727783203125,0.007295549847185612,0.011847163550555706,0.008019747212529182
1772018048045694500,4.185694580078125,0.008384402841329575,-0.009177369065582752,-0.022937100380659103
1772018048065661700,4.20566162109375,0.007182965986430645,-0.02451152727007866,-0.019179649651050568
1772018048085629700,4.225629638671875,0.007438122294843197,0.002081211656332016,0.006883511319756508
1772018048105596700,4.2455966796875,0.008862672373652458,0.01615922339260578,0.031335990875959396
1772018048125563600,4.265563720703125,0.007963813841342926,0.009497754275798798,0.017269838601350784
1772018048145531600,4.28553173828125,0.005058940965682268,-0.0061935558915138245,-0.00986084621399641
1772018048165498600,4.30549853515625,0.005814435891807079,-0.007585692685097456,-0.003475253004580736
1772018048185467000,4.325466796875,0.008013212122023106,0.005646601319313049,0.010099945589900017
1772018048205433600,4.34543359375,0.007895353250205517,-0.007446437142789364,0.005623036064207554
1772018048225400600,4.365400634765625,0.006477228365838528,-0.015452783554792404,0.0029032828751951456
1772018048245368800,4.385368896484375,0.002121611265465617,-0.0033474802039563656,0.003422599285840988
1772018048265335800,4.405335693359375,0.004822958260774612,0.003033490851521492,0.014607610180974007
1772018048285302500,4.425302490234375,0.005169633310288191,-0.006145472638309002,0.012175877578556538
1772018048305270800,4.445270751953125,0.002704628510400653,-0.007024221122264862,-0.006234820932149887
1772018048325237800,4.46523779296875,0.004996726289391518,0.0038849404081702232,0.0024942203890532255
1772018048345205800,4.485205810546875,0.0052462052553892136,0.008499206975102425,0.02384052611887455
1772018048365172700,4.5051728515625,0.005358245689421892,0.006642960011959076,0.024021221324801445
1772018048385139700,4.5251396484375,0.0034396438859403133,-0.005882618948817253,0.0088538508862257
1772018048405107700,4.545107666015625,-0.0011867908760905266,-0.011723017320036888,0.0006794107612222433
1772018048425074700,4.56507470703125,0.006972258910536766,0.00958543736487627,0.002688897540792823
1772018048445041700,4.585041748046875,-0.003053177148103714,0.027508169412612915,0.01128797885030508
1772018048465009700,4.605009765625,0.011960119009017944,0.0297386534512043,0.016055170446634293
1772018048484977000,4.624976806640625,-0.008855878375470638,0.06581766903400421,0.062295373529195786
1772018048504945000,4.64494482421875,-0.011379051953554153,0.061203356832265854,0.08606474846601486
1772018048524911900,4.664911865234375,-0.017548229545354843,0.031000107526779175,0.05344821512699127
1772018048544878800,4.68487890625,-0.004699567798525095,-0.03370646387338638,0.007500563748180866
1772018048564846800,4.704846923828125,0.005368503276258707,-0.045062094926834106,0.025903940200805664
1772018048584813800,4.724813720703125,0.010471112094819546,-0.03308418020606041,0.06227166950702667
1772018048604780800,4.74478076171875,0.005613705608993769,-0.01240538340061903,0.04516618326306343
1772018048624749000,4.7647490234375,-0.001541841309517622,-0.012362461537122726,-0.0012934597907587886
1772018048644715800,4.7847158203125,-0.010095149278640747,-0.0005169138312339783,-0.006863195449113846
1772018048664683800,4.804683837890625,-0.00907573290169239,0.00600505992770195,-0.0006906545022502542
1772018048684651000,4.824651123046875,-0.014231296256184578,-0.0046052164398133755,-0.0050126975402235985
1772018048704618000,4.844617919921875,-0.014612661674618721,-0.013992859050631523,-0.013567037880420685
1772018048724585700,4.864585693359375,-0.014082375913858414,-0.008431360125541687,-0.01986061967909336
1772018048744553000,4.884552978515625,-0.002604125067591667,-0.003474142402410507,-0.007722595706582069
1772018048764520000,4.90452001953125,-0.00209492864087224,0.0025765597820281982,0.003177988575771451
1772018048784488000,4.924488037109375,-0.006253497209399939,0.0076090311631560326,-0.002222237177193165
1772018048804455000,4.944454833984375,-0.0026478776708245277,-0.019344214349985123,-0.010858070105314255
1772018048824423000,4.9644228515625,0.0013969652354717255,-0.02324688620865345,0.001306451391428709
1772018048844390000,4.984389892578125,0.004100099205970764,-0.003020700067281723,0.0054041245020926
1772018048864356900,5.00435693359375,0.004287967458367348,0.002857893705368042,-0.004483129363507032
1772018048884324900,5.024324951171875,0.004259407985955477,0.018055573105812073,-0.010888827964663506
1772018048904291800,5.044291748046875,-0.0013171043246984482,0.017378196120262146,-0.006209655664861202
1772018048924259000,5.064259033203125,-0.008940977975726128,0.01664944924414158,-0.00293330242857337
1772018048944227000,5.08422705078125,-0.005823271814733744,-0.0016908831894397736,0.010292354971170425
1772018048964193800,5.10419384765625,0.0006526457145810127,0.011877203360199928,0.013408921658992767
1772018048984161800,5.124161865234375,0.00002521369606256485,0.011732240207493305,0.007048094645142555
1772018049004129000,5.14412890625,0.0005077184177935123,-0.011717625893652439,-0.0028741792775690556
1772018049024095700,5.164095703125,-0.00003792904317378998,-0.017148151993751526,-0.002783897565677762
1772018049044063700,5.184063720703125,0.00750702153891325,-0.005583928432315588,-0.004637192003428936
1772018049064031000,5.204031005859375,0.013528944924473763,0.0013239486142992973,-0.0025884227361530066
1772018049083998000,5.223998046875,0.017747417092323303,0.010483103804290295,0.019315145909786224
1772018049103965700,5.243965576171875,0.014340685680508614,0.01662665233016014,0.007716279476881027
1772018049123933000,5.263932861328125,0.015444748103618622,0.018625937402248383,-0.02254415675997734
1772018049143900000,5.28389990234375,0.014979585073888302,-0.008635112084448338,-0.03196548670530319
1772018049163868000,5.303867919921875,0.015953920781612396,-0.013292327523231506,-0.006488623097538948
1772018049183835000,5.3238349609375,0.01694130338728428,-0.009566227905452251,0.009001122787594795
1772018049203803000,5.343802978515625,0.01467641070485115,0.00546183530241251,0.0026530767790973186
1772018049223769900,5.363769775390625,0.012788254767656326,0.00889572873711586,-0.003078178968280554
1772018049243737000,5.383737060546875,0.009268498979508877,-0.014868790283799171,-0.011692574247717857
1772018049263704800,5.403704833984375,0.008774603717029095,-0.015868473798036575,-0.008336324244737625
1772018049283671800,5.423671875,0.010599193163216114,-0.010735824704170227,0.0022069981787353754
1772018049303639000,5.44363916015625,0.01075445581227541,0.0004888670518994331,0.01663707010447979
1772018049323607000,5.46360693359375,0.005896042566746473,-0.006405440159142017,0.011458152905106544
1772018049343573800,5.48357373046875,-0.0011213785037398338,-0.0002514924854040146,-0.006795018911361694
1772018049363541000,5.503541015625,0.002347597386687994,-0.005999065935611725,-0.0023103894200176
1772018049383509000,5.523509033203125,0.0023899415973573923,0.013492343947291374,0.009213108569383621
1772018049403475700,5.543475830078125,-0.011298948898911476,0.022314343601465225,-0.0042226724326610565
1772018049423443700,5.563443603515625,-0.010035460814833641,-0.0034211641177535057,-0.00411880761384964
1772018049443411000,5.583410888671875,-0.005544606130570173,-0.002519611269235611,0.018065057694911957
1772018049463378000,5.6033779296875,-0.0056171114556491375,0.006484684534370899,0.015062875114381313
1772018049483346000,5.623345947265625,-0.010685945861041546,-0.016769083216786385,-0.021195929497480392
1772018049503313000,5.64331298828125,-0.006775690708309412,-0.030802201479673386,-0.030062394216656685
1772018049523281400,5.663281494140625,-0.004093846771866083,-0.0011376729235053062,0.003964683040976524
1772018049543249400,5.68324951171875,-0.004207265097647905,0.019763542339205742,0.025928305462002754
1772018049563216400,5.70321630859375,-0.008744711056351662,0.00702966284006834,0.008111225441098213
1772018049583183400,5.723183349609375,-0.01246599294245243,-0.003199563827365637,-0.0035654043313115835
1772018049603151400,5.7431513671875,-0.00984201394021511,-0.0030532842501997948,-0.004354499280452728
1772018049623118300,5.763118408203125,-0.006798553746193647,-0.0009003849700093269,-0.01203239243477583
1772018049643085300,5.783085205078125,-0.01152358204126358,-0.012686497531831264,-0.030735772103071213
1772018049663053300,5.80305322265625,-0.017567062750458717,-0.007279552519321442,-0.02939380519092083
1772018049683020300,5.823020263671875,-0.01390301063656807,-0.0020682397298514843,-0.011124387383460999
1772018049702987500,5.842987548828125,-0.01073424518108368,-0.003994220867753029,0.0006680886726826429
1772018049722955300,5.862955322265625,-0.008611859753727913,-0.010010149329900742,0.004622351378202438
1772018049742922200,5.882922119140625,-0.01085694506764412,0.008517618291079998,-0.0036682027857750654
1772018049762889500,5.902889404296875,-0.009963542222976685,-0.0005947938188910484,-0.017353521659970284
1772018049782857500,5.922857421875,-0.00933687575161457,-0.010149668902158737,-0.00993222463876009
1772018049802824200,5.94282421875,-0.011209595948457718,-0.015202386304736137,0.005123157985508442
1772018049822792200,5.962792236328125,-0.008870549499988556,-0.005809066817164421,0.007092698477208614
1772018049842759400,5.982759521484375,-0.0034301872365176678,-0.013387148268520832,0.019477862864732742
1772018049862726100,6.00272607421875,-0.001322844997048378,-0.0007066046819090843,0.032419491559267044
1772018049882694100,6.022694091796875,-0.009275905787944794,-0.008044272661209106,0.008709636516869068
1772018049902661400,6.042661376953125,-0.005459790583699942,-0.01180700957775116,-0.019457153975963593
1772018049922628400,6.06262841796875,0.0008545322343707085,0.018724072724580765,-0.020197512581944466
1772018049942596400,6.082596435546875,-0.0020541157573461533,0.007905455306172371,0.000769156264141202
1772018049962563300,6.102563232421875,-0.0037668910808861256,-0.00641175452619791,0.0029574749059975147
1772018049982530300,6.1225302734375,-0.0013482938520610332,-0.019268576055765152,0.00706420186907053
1772018050002498300,6.142498291015625,-0.0001803804188966751,-0.001879656221717596,0.010896358639001846
1772018050022465300,6.16246533203125,0.006692125461995602,0.003351029008626938,0.010032162070274353
1772018050042432300,6.182432373046875,0.001948503078892827,0.0008633695542812347,0.004425675608217716
1772018050062400300,6.202400146484375,0.0009446877520531416,-0.006405241787433624,-0.0015758913941681385
1772018050082367500,6.222367431640625,0.004129719454795122,-0.0026609161868691444,-0.007415137253701687
1772018050102334200,6.242334228515625,0.0029855300672352314,-0.004008532967418432,-0.013163837604224682
1772018050122302200,6.26230224609375,0.0031599211506545544,0.004233120009303093,-0.01726590469479561
1772018050142269400,6.28226953125,0.0016779655124992132,-0.007386723533272743,-0.018334630876779556
1772018050162236200,6.302236083984375,-0.0006272345781326294,-0.004444799851626158,0.004436462186276913
1772018050182204200,6.3222041015625,0.00843779556453228,0.009890488348901272,0.017825637012720108
1772018050202171400,6.34217138671875,0.005447089672088623,0.012490548193454742,0.001316035632044077
1772018050222138400,6.362138427734375,0.005218308884650469,0.010783628560602665,-0.03424834832549095
1772018050242106400,6.3821064453125,-0.0007292735390365124,0.01143844798207283,-0.036173947155475616
1772018050262073300,6.4020732421875,-0.00026824045926332474,0.006074686534702778,-0.01720518432557583
1772018050282040300,6.422040283203125,-0.000661464873701334,-0.0011020894162356853,-0.005985287018120289
1772018050302008300,6.44200830078125,-0.0019388734363019466,-0.007985135540366173,-0.005713111720979214
1772018050321975300,6.461975341796875,0.004795171786099672,0.001701299101114273,-0.001986150862649083
1772018050341942300,6.4819423828125,-0.0036497358232736588,0.015071950852870941,-0.0002536316169425845
1772018050361910300,6.50191015625,-0.00012690620496869087,0.007259035483002663,-0.007419665344059467
1772018050381877500,6.52187744140625,0.0026262695901095867,0.0006621191278100014,0.0021898187696933746
1772018050401844200,6.54184423828125,0.0070905182510614395,0.012894634157419205,0.009040667675435543
1772018050421812200,6.561812255859375,-0.003588911611586809,-0.0120177511125803,0.008559168316423893
1772018050441779500,6.581779541015625,0.0032038320787250996,-0.024349186569452286,0.0037957048043608665
1772018050461747500,6.60174755859375,0.0006577004678547382,-0.02322685532271862,0.007967946119606495
1772018050481714200,6.621714111328125,-0.00045097339898347855,-0.00008318666368722916,0.011501695029437542
1772018050501681400,6.641681396484375,-0.0014340318739414215,0.01679764688014984,0.018148012459278107
1772018050521648600,6.661648681640625,-0.0004393104463815689,0.009572955779731274,0.011955630965530872
1772018050541615600,6.68161572265625,-0.005829751491546631,0.0009090239182114601,-0.015159610658884048
1772018050561582800,6.701582763671875,-0.0017650937661528587,0.002561788074672222,-0.0248537827283144
1772018050581550800,6.72155078125,-0.0018430235795676708,0.012784043326973915,-0.009210241958498955
1772018050601517600,6.741517578125,-0.0010313778184354305,0.004734761081635952,0.003998104482889175
1772018050621484800,6.76148486328125,-0.005354424938559532,-0.003116108011454344,0.002984505845233798
1772018050641452800,6.781452880859375,-0.0054956115782260895,-0.0011137924157083035,-0.008528206497430801
1772018050661419500,6.80141943359375,-0.0021583260968327522,0.0054029254242777824,0.00337292836047709
1772018050681386800,6.82138671875,-0.002389034256339073,0.009189978241920471,0.006760202813893557
1772018050701354800,6.841354736328125,-0.002074506599456072,-0.003064108081161976,-0.013132944703102112
1772018050721321700,6.86132177734375,0.0008393044117838144,-0.021589558571577072,-0.028486067429184914
1772018050741288700,6.881288818359375,-0.0075044031254947186,-0.0004523303359746933,-0.011027316562831402
1772018050761256700,6.901256591796875,-0.006355005316436291,0.01619427651166916,0.006939566228538752
1772018050781223700,6.9212236328125,-0.0054274266585707664,-0.011624040082097054,0.005313706584274769
1772018050801191000,6.94119091796875,-0.002829308621585369,-0.02329654060304165,-0.008897986263036728
1772018050821158700,6.96115869140625,-0.007210185751318932,-0.001751551404595375,-0.013903796672821045
1772018050841125600,6.981125732421875,0.001060253707692027,-0.010007000528275967,-0.004896320402622223
1772018050861092900,7.0010927734375,-0.0001746159978210926,0.011417977511882782,-0.003557682503014803
1772018050881060900,7.021060791015625,-0.00648514786735177,-0.005554019473493099,-0.01308567263185978
1772018050901027600,7.041027587890625,-0.0015932973474264145,-0.025221090763807297,-0.008739927783608437
1772018050920994800,7.060994873046875,0.002032330259680748,-0.027598761022090912,0.009524031542241573
1772018050940962800,7.080962890625,0.004636604804545641,-0.022864393889904022,0.009063836187124252
1772018050960929500,7.100929443359375,0.004914380144327879,-0.00701946672052145,-0.0010099693899974227
1772018050980896800,7.120896728515625,-0.004395239520817995,0.005488685332238674,-0.006647215690463781
1772018051000864800,7.14086474609375,-0.0018045241013169289,0.002915889024734497,-0.011347562074661255
1772018051020831700,7.160831787109375,0.0016546710394322872,-0.00557283777743578,-0.009224755689501762
1772018051040798700,7.180798828125,0.006372666917741299,0.0019344799220561981,0.0027421582490205765
1772018051060766700,7.2007666015625,0.0018804993014782667,0.0017850268632173538,0.0032656025141477585
1772018051080733700,7.220733642578125,0.000637679360806942,-0.008127028122544289,-0.0078554917126894
1772018051100701000,7.240700927734375,-0.0019914708100259304,-0.00530590582638979,-0.008188653737306595
1772018051120667600,7.260667724609375,0.0017946998123079538,-0.006580262910574675,0.004807040095329285
1772018051140635600,7.2806357421875,0.004393261391669512,-0.015216812491416931,-0.008074536919593811
1772018051160603000,7.300602783203125,0.0009673093445599079,-0.007270602509379387,-0.023684121668338776
1772018051180569600,7.320569580078125,-0.0019030538387596607,0.007673542946577072,-0.017633020877838135
1772018051200537600,7.34053759765625,-0.0015328507870435715,0.007955854758620262,0.0026252453681081533
1772018051220504800,7.3605048828125,-0.00040018558502197266,0.001093701459467411,0.01765625923871994
1772018051240471800,7.380471923828125,-0.0028455154970288277,0.0026872390881180763,0.0160229429602623
1772018051260439600,7.400439453125,-0.00014973385259509087,-0.004640019498765469,-0.0074088796973228455
1772018051280406800,7.42040673828125,-0.0023573115468025208,-0.004950675647705793,-0.009329285472631454
1772018051300373800,7.440373779296875,-0.0010002492927014828,-0.011508057825267315,0.0044154217466712
1772018051320341800,7.460341796875,0.0010213109198957682,-0.006557541899383068,0.00553128682076931
1772018051340308700,7.480308837890625,0.001547870459035039,0.0020004762336611748,-0.02471410110592842
1772018051360275700,7.500275634765625,-0.0034320498816668987,0.006680214777588844,-0.02909606508910656
1772018051380243700,7.52024365234375,-0.0011616526171565056,-0.009619444608688354,-0.006796752102673054
1772018051400211000,7.5402109375,0.004192625172436237,-0.010360518470406532,0.004414490424096584
1772018051420177700,7.560177734375,0.001773927127942443,-0.006932066287845373,0.006766327656805515
1772018051440145700,7.580145751953125,0.001070579281076789,-0.0036262008361518383,0.0027943565510213375
1772018051460113000,7.60011279296875,-0.0006462689489126205,0.003909013234078884,0.00732226250693202
1772018051480079600,7.62007958984375,-0.006143695209175348,0.011145702563226223,-0.00954526662826538
1772018051500047600,7.640047607421875,-0.0009984602220356464,0.011910480447113514,-0.021586082875728607
1772018051520014800,7.660014892578125,0.0034351623617112637,0.0025974875316023827,-0.004498576745390892
1772018051539981800,7.67998193359375,0.004913498181849718,-0.003034197725355625,0.01646103337407112
1772018051559949800,7.69994970703125,0.007700564339756966,-0.020219523459672928,0.005145926959812641
1772018051579917000,7.7199169921875,-0.00009850319474935532,-0.021761495620012283,-0.020077936351299286
1772018051599883800,7.7398837890625,0.0045613390393555164,-0.013132179155945778,-0.010503471828997135
1772018051619851800,7.759851806640625,0.0035192815121263266,0.0008239690214395523,0.017900871112942696
1772018051639819000,7.779819091796875,0.0047480640932917595,-0.0028546550311148167,0.01543105486780405
1772018051659786000,7.799785888671875,-0.00023379921913146973,-0.0014079366810619831,-0.0028562056832015514
1772018051679753700,7.819753662109375,0.0031020157039165497,-0.003979353699833155,-0.0015208967961370945
1772018051699721000,7.839720947265625,0.0036495993845164776,-0.00005480088293552399,0.006798684597015381
1772018051719688000,7.85968798828125,0.0026008090935647488,-0.00023228581994771957,0.001124953618273139
1772018051739654700,7.879654541015625,0.002310783602297306,0.0025673117488622665,-0.010449010878801346
1772018051759623000,7.899622802734375,0.0026065432466566563,0.0003909645602107048,-0.00698370486497879
1772018051779590000,7.91958984375,0.0012042250018566847,-0.007176763378083706,-0.004764759913086891
1772018051799556900,7.939556884765625,0.010272599756717682,-0.004449117463082075,-0.0065655894577503204
1772018051819524900,7.95952490234375,0.011806824244558811,0.008364131674170494,-0.016071876510977745
1772018051839491800,7.979491943359375,0.00495210662484169,0.003028837963938713,-0.019665412604808807
1772018051859458800,7.999458740234375,0.00565540324896574,-0.02488991618156433,-0.009002115577459335
1772018051879427000,8.019427001953124,0.011041225865483284,-0.018721412867307663,0.0024663880467414856
1772018051899393800,8.039393798828126,0.013398196548223495,0.004132254980504513,0.01443436834961176
1772018051919360800,8.05936083984375,0.010919755324721336,0.007579232566058636,0.01245084498077631
1772018051939329000,8.0793291015625,0.0059100305661559105,0.011137528344988823,0.0026271098759025335
1772018051959296000,8.0992958984375,0.007569225039333105,0.0020244941115379333,-0.013336677104234695
1772018051979262700,8.1192626953125,0.011111998930573463,0.011376515962183475,-0.013280482962727547
1772018051999231000,8.13923095703125,0.01386161521077156,0.009818839840590954,0.002864265348762274
1772018052019198000,8.159197998046874,0.013723628595471382,-0.015108734369277954,0.0002984427846968174
1772018052039164700,8.17916455078125,0.009442180395126343,-0.03677699714899063,-0.0110748540610075
1772018052059132000,8.1991318359375,0.011080736294388771,-0.027225647121667862,-0.015298093669116497
1772018052079100000,8.219099853515624,0.009163577109575272,-0.022544387727975845,-0.003908154089003801
1772018052099067000,8.23906689453125,0.009275674819946289,-0.016932325437664986,-0.01222240924835205
1772018052119033900,8.259033935546874,0.01014440506696701,-0.02047947235405445,-0.016385596245527267
1772018052139001900,8.279001953125,0.01079245563596487,-0.010788589715957642,0.0059255678206682205
1772018052158968800,8.29896875,0.002822361420840025,0.009694894775748253,0.01666063815355301
1772018052178935800,8.318935791015624,0.0055208695121109486,0.004866344854235649,0.000492320628836751
1772018052198903800,8.33890380859375,0.0010273538064211607,-0.012085621245205402,-0.01712675392627716
1772018052218870800,8.358870849609374,0.0072472188621759415,-0.012048648670315742,-0.0028483490459620953
1772018052238838000,8.378838134765624,0.0035315239802002907,0.0045530106872320175,0.01212114654481411
1772018052258805800,8.3988056640625,0.002015667734667659,-0.004016141407191753,0.008950652554631233
1772018052278772700,8.418772705078124,0.007848087698221207,-0.005029220134019852,-0.007903561927378178
1772018052298740000,8.438739990234374,-0.0005904794670641422,0.01388537883758545,-0.01889043115079403
1772018052318707000,8.45870703125,-0.009772480465471745,0.004070867784321308,-0.01101440005004406
1772018052338674700,8.4786748046875,-0.004095487762242556,-0.021701395511627197,0.00008126127067953348
1772018052358642000,8.498641845703125,-0.0025602555833756924,-0.009806012734770775,0.003991448320448399
1772018052378609000,8.51860888671875,-0.0011665797792375088,0.01721419394016266,0.012905847281217575
1772018052398577000,8.538576904296875,-0.009178461506962776,0.03886868432164192,-0.007055876776576042
1772018052418543900,8.5585439453125,-0.016792159527540207,0.013478209264576435,-0.030548686161637306
1772018052438510800,8.5785107421875,-0.00900827907025814,-0.006369716487824917,-0.01682768017053604
1772018052458478800,8.598478759765625,-0.002541131805628538,0.005926920101046562,0.014763535931706429
1772018052478445800,8.61844580078125,-0.005610640626400709,0.00640997476875782,0.01798103377223015
1772018052498412800,8.638412841796875,-0.011117266491055489,-0.007033047266304493,0.006067781709134579
1772018052518380300,8.65838037109375,-0.013594147749245167,-0.010439034551382065,-0.003895504167303443
1772018052538348300,8.678348388671875,-0.008679142221808434,-0.001954931765794754,0.0025209838058799505
1772018052558315000,8.69831494140625,-0.00895953644067049,0.01067683007568121,0.0038084888365119696
1772018052578282200,8.7182822265625,-0.008881282992661,0.015546114183962345,-0.015909288078546524
1772018052598250200,8.738250244140625,-0.0099303238093853,0.006359519436955452,-0.030210595577955246
1772018052618217000,8.758217041015625,-0.0063126711174845695,0.000051392242312431335,0.002677844138815999
1772018052638184200,8.77818408203125,-0.002380182035267353,-0.0012228707782924175,0.02816655859351158
1772018052658152200,8.798152099609375,-0.004096705000847578,-0.001700127962976694,0.011347899213433266
1772018052678119200,8.818119140625,-0.0018044793978333473,0.00007171370089054108,-0.013879427686333656
1772018052698086100,8.838086181640625,-0.005561076104640961,-0.004164700862020254,-0.007611412554979324
1772018052718053000,8.85805322265625,0.00045791175216436386,-0.0019321925938129425,0.005125288851559162
1772018052738021000,8.878021240234375,0.0013910764828324318,-0.023880019783973694,0.013167635537683964
1772018052757988000,8.897988037109375,0.005689210258424282,-0.0026678014546632767,0.009493539109826088
1772018052777955000,8.917955078125,-0.0017453283071517944,0.003256259486079216,-0.013092730194330215
1772018052797923000,8.937923095703125,-0.007031774614006281,-0.016142183914780617,-0.01392869558185339
1772018052817890000,8.95789013671875,-0.0006169690750539303,-0.004669860005378723,0.01832231879234314
1772018052837857000,8.97785693359375,0.005300273187458515,-0.006556032225489616,0.024402979761362076
1772018052857825000,8.997824951171875,0.005962954368442297,-0.004602258559316397,-0.002613724209368229
1772018052877792000,9.0177919921875,0.0012070813681930304,0.0006713327020406723,-0.02960885688662529
1772018052897759000,9.037759033203125,-0.0002933661453425884,0.003786146640777588,-0.018376575782895088
1772018052917726000,9.057725830078125,0.005333635024726391,0.008155779913067818,-0.0016983957029879093
1772018052937694000,9.07769384765625,0.005278175696730614,0.008501929230988026,-0.008370811119675636
1772018052957661200,9.0976611328125,0.0019505557138472795,-0.001855636015534401,-0.025452326983213425
1772018052977628000,9.1176279296875,0.0004680538550019264,-0.013373379595577717,-0.011671666987240314
1772018052997596000,9.137595947265625,0.003420397639274597,-0.006719593424350023,0.00679908599704504
1772018053017563100,9.157563232421875,0.005864596925675869,0.003931496292352676,-0.0016728282207623124
1772018053037530000,9.177530029296875,-0.0010110298171639442,0.014263961464166641,-0.02801109291613102
1772018053057497000,9.1974970703125,0.0023804043885320425,-0.0006469907239079475,-0.008816891349852085
1772018053077465000,9.217465087890625,0.003692795755341649,-0.002399453427642584,0.023542646318674088
1772018053097432000,9.23743212890625,0.0072534638457000256,0.0034507326781749725,0.021770445629954338
1772018053117399000,9.25739892578125,0.0006912944372743368,0.007876411080360413,-0.007885182276368141
1772018053137367000,9.277366943359375,-0.0005541821010410786,-0.0019668126478791237,-0.01745205745100975
1772018053157334000,9.297333984375,0.004193161614239216,-0.00731116347014904,0.0013012574054300785
1772018053177300000,9.317300048828125,0.002897534053772688,0.007757268846035004,0.01704986020922661
1772018053197268000,9.33726806640625,-0.0006942437030375004,-0.002277050632983446,-0.00185032794252038
1772018053217235200,9.357235107421875,0.0045450651086866856,-0.008048408664762974,-0.013709384948015213
1772018053237202200,9.3772021484375,-0.003164893016219139,0.009416233748197556,-0.0008163550519384444
1772018053257169000,9.3971689453125,0.0011627648491412401,0.004835617728531361,0.0123935891315341
1772018053277137200,9.41713720703125,-0.005534186493605375,-0.0002313964068889618,-0.009147124364972115
1772018053297104100,9.437104248046875,-0.003610944841057062,-0.005098321475088596,-0.019460348412394524
1772018053317070800,9.45707080078125,0.0023795911110937595,-0.005573941394686699,-0.0023512686602771282
1772018053337039000,9.4770390625,0.0007611815817654133,0.008683906868100166,0.028296787291765213
1772018053357006000,9.497006103515625,0.00042534247040748596,0.009434281848371029,0.022428512573242188
1772018053376973000,9.51697314453125,-0.0056163049302995205,0.0007246807217597961,-0.0012776150833815336
1772018053396940000,9.53693994140625,-0.0005272128619253635,0.0070990994572639465,-0.01734180375933647
1772018053416908000,9.556907958984375,0.001166683156043291,0.009059223346412182,-0.006466250400990248
1772018053436875000,9.576875,0.0036984949838370085,-0.008985172025859356,0.004488930571824312
1772018053456842200,9.59684228515625,-0.004550332203507423,-0.015952039510011673,-0.000875875586643815
1772018053476809000,9.61680908203125,-0.0015028351917862892,-0.013230244629085064,-0.011954892426729202
1772018053496777000,9.63677685546875,-0.0023761140182614326,0.005374392494559288,-0.005596861243247986
1772018053516744400,9.656744384765625,0.0027091922238469124,0.008333696983754635,-0.0049116299487650394
1772018053536711200,9.676711181640625,-0.001015413086861372,-0.0047038039192557335,-0.011717738583683968
1772018053556681500,9.696681396484376,-0.00429067388176918,-0.004865298978984356,-0.0003725381102412939
1772018053576648200,9.716648193359376,-0.006808384321630001,0.005250229500234127,-0.0002127491170540452
1772018053596615400,9.736615478515626,-0.005535359028726816,0.006686330772936344,-0.005563173443078995
1772018053616582400,9.75658251953125,-0.00339343398809433,-0.01325742993503809,-0.007148818578571081
1772018053636550400,9.77655029296875,0.0021280767396092415,-0.015034046955406666,-0.003947298973798752
1772018053656517400,9.796517333984376,-0.004405084997415543,-0.004675840958952904,-0.004633730743080378
1772018053676484400,9.816484375,-0.003761440981179476,0.00005069468170404434,0.0005796740297228098
1772018053696451300,9.836451416015626,-0.00007111253216862679,0.0005667125806212425,0.014466729015111923
1772018053716419300,9.85641943359375,-0.000967090018093586,0.012696072459220886,0.008277409709990025
1772018053736386300,9.87638623046875,-0.005248591769486666,-0.005938264541327953,-0.024348044767975807
1772018053756353300,9.896353271484376,-0.009744315408170223,-0.023370295763015747,-0.02543940767645836
1772018053776321500,9.916321533203124,0.002333714859560132,-0.035591211169958115,0.015693511813879013
1772018053796288300,9.936288330078124,0.005037833005189896,-0.019576970487833023,0.04053094983100891
1772018053816255200,9.956255126953126,-0.0034581352956593037,-0.0035695466212928295,0.019110215827822685
1772018053836222500,9.976222412109376,-0.00973418913781643,0.011985483579337597,-0.016309693455696106
1772018053856190500,9.9961904296875,-0.009316086769104004,-0.0022191228345036507,-0.011590038426220417
1772018053876157200,10.0161572265625,-0.000898619182407856,-0.012413067743182182,0.016423219814896584
1772018053896124400,10.03612451171875,0.0017933105118572712,-0.007042883895337582,0.022114528343081474
1772018053916092400,10.056092529296874,-0.00172087037935853,-0.00046714581549167633,-0.0035128064919263124
1772018053936059100,10.07605908203125,-0.008632929995656013,0.0026370324194431305,-0.016560297459363937
1772018053956026400,10.0960263671875,-0.003178741317242384,-0.009613649919629097,-0.005994073115289211
1772018053975993300,10.115993408203124,-0.001814268995076418,0.0022368328645825386,0.008899791166186333
1772018053995961300,10.13596142578125,-0.0025215493515133858,0.013251283206045628,0.006090154871344566
1772018054015928300,10.15592822265625,-0.00523080350831151,0.011238976381719112,-0.017222758382558823
1772018054035895300,10.175895263671874,-0.002162562683224678,0.007788955233991146,-0.01791943982243538
1772018054055862500,10.195862548828124,-0.0005558496341109276,0.011601743288338184,-0.0052648987621068954
1772018054075830300,10.215830322265624,-0.00026155682280659676,0.02371576614677906,-0.0019383439794182777
1772018054095797200,10.23579736328125,-0.004925339017063379,0.0024377619847655296,-0.010306261479854584
1772018054115764500,10.255764404296874,0.002349576912820339,-0.013725807890295982,0.0039954474195837975
1772018054135731200,10.275731201171874,-0.0006818585097789764,0.004901451990008354,0.010677050799131393
1772018054155699200,10.29569921875,-0.0016887728124856949,0.010250885039567947,-0.0056177666410803795
1772018054175666400,10.31566650390625,0.0012806383892893791,0.008496823720633984,-0.01763075217604637
1772018054195633400,10.33563330078125,0.0023997402749955654,0.011584270745515823,-0.004309622570872307
1772018054215601400,10.355601318359374,-0.006318732164800167,0.002710261382162571,0.0034609504509717226
1772018054235568400,10.375568359375,-0.0030358945950865746,-0.01233318354934454,-0.014367046765983105
1772018054255535400,10.395535400390624,0.00103377690538764,-0.018461719155311584,-0.016280265524983406
1772018054275502300,10.41550244140625,0.002406514948233962,-0.00016194675117731094,0.009499937295913696
1772018054295470300,10.43547021484375,0.0012425482273101807,-0.0005796803161501884,0.022738641127943993
1772018054315437300,10.455437255859374,-0.002228841185569763,-0.00035593193024396896,0.00315455230884254
1772018054335404300,10.475404296875,-0.0032848999835550785,-0.009136857464909554,0.0009631731081753969
1772018054355371300,10.495371337890624,0.0042401752434670925,-0.002821205649524927,0.006185497157275677
1772018054375339300,10.51533935546875,0.003231588751077652,-0.005605772137641907,-0.001437400234863162
1772018054395306200,10.53530615234375,-0.0032926760613918304,-0.015049226582050323,-0.00658901734277606
1772018054415273500,10.5552734375,-0.002175919245928526,-0.00989953987300396,0.012037660926580429
1772018054435240200,10.575240234375,0.0014297619927674532,-0.004355163313448429,0.022423457354307175
1772018054455208200,10.595208251953125,-0.0006038956344127655,0.001853475347161293,0.009536154568195343
1772018054475175400,10.615175537109375,-0.003257229458540678,0.009735957719385624,-0.0004006308736279607
1772018054495142100,10.63514208984375,-0.002924547530710697,0.014804637059569359,0.008795262314379215
1772018054515110100,10.655110107421875,0.0006645743269473314,-0.0003783348947763443,0.023097369819879532
1772018054535077400,10.675077392578125,0.000355518888682127,0.012217325158417225,0.02344677224755287
1772018054555044400,10.69504443359375,-0.008201634511351585,0.017641574144363403,0.0025881007313728333
1772018054575011300,10.71501123046875,-0.011223530396819115,0.017736997455358505,-0.017057638615369797
1772018054594979300,10.734979248046875,-0.006787961348891258,0.011672886088490486,-0.010958869010210037
1772018054614946300,10.7549462890625,-0.0054167467169463634,0.012886524200439453,-0.002183884847909212
1772018054634913500,10.77491357421875,-0.00440180953592062,0.018944602459669113,-0.012415616773068905
1772018054654880300,10.79488037109375,0.0005492465570569038,0.02350691892206669,-0.0390448272228241
1772018054674848300,10.81484814453125,-0.009576618671417236,0.1000378280878067,-0.0011465830029919744
1772018054694815500,10.8348154296875,0.006939255632460117,0.05667342245578766,0.11288091540336609
1772018054714782200,10.8547822265625,0.016555916517972946,0.0036079660058021545,0.14362311363220215
1772018054734749400,10.87474951171875,0.01775691658258438,-0.037700340151786804,0.004806516692042351
1772018054754717400,10.894717529296875,0.010643808171153069,-0.06149403750896454,-0.1925511658191681
1772018054774684400,10.914684326171875,-0.002592724282294512,-0.013740373775362968,-0.25104549527168274
1772018054794651400,10.9346513671875,-0.005203474313020706,0.03504432737827301,-0.05526134744286537
