time,seconds_elapsed,z,y,x
1772019775097308700,0.06930859375,0.23347850100696085,0.24215309811085461,-0.6921153453778475
1772019775117275600,0.089275634765625,0.1300181265324354,0.2709828867539763,-0.599098513908498
1772019775137241600,0.10924169921875,0.04705342759788036,0.2759600906446576,-0.44245304068066177
1772019775157207800,0.129207763671875,-0.36634208009839053,0.5921612985238432,-0.2727158662927337
1772019775177173500,0.149173583984375,-0.4873100542128086,0.5330027148514985,-0.28258031250201165
1772019775197140700,0.169140625,-0.09407178388237952,0.20596388661563395,-0.35889728051777925
1772019775217106700,0.189106689453125,0.03863514334261417,0.2784086528405547,-0.2625730780661106
1772019775237072600,0.20907275390625,-0.33716333188712594,0.1095060843795538,-0.4305677013693377
1772019775257038600,0.22903857421875,-0.2248018580764532,0.1871811524733901,-0.28292494295490905
1772019775277005600,0.249005615234375,-0.013420038065314293,-0.006606266397237777,-0.24287929349355397
1772019775296971500,0.268971435546875,0.019438275441527365,-0.08945055382251739,-0.3088706823280081
1772019775316937700,0.288937744140625,0.18420915092527865,0.08138093687444925,0.13592977999532593
1772019775336903700,0.308903564453125,-0.026126374903321266,-0.07010813997089863,0.068075889791199
1772019775356870700,0.32887060546875,-0.5846113215357065,0.11209434730708598,0.16535123265497387
1772019775376836600,0.348836669921875,-0.8254606435716152,0.48165860432237384,0.2839902158325538
1772019775396802600,0.368802490234375,-0.3827051858782768,0.32101240755319593,0.36312052423600105
1772019775416768500,0.3887685546875,-0.14751871190965174,-0.06284048705548048,0.4831697395376861
1772019775436734700,0.408734619140625,0.11465455318391322,-0.22658874149322508,0.34794308457672596
1772019775456701400,0.428701416015625,-0.05751870751082897,-0.23541414524465798,0.15470933579979462
1772019775476667600,0.448667724609375,-0.19782500382363796,-0.0034366964504122734,0.13725321061881257
1772019775496633600,0.468633544921875,0.05076046542227268,-0.0440408017784357,0.08458046356812118
1772019775516599600,0.488599609375,0.2713169410139322,-0.09139467362761497,0.15936784739643334
1772019775536566800,0.50856689453125,0.6697586252063512,-0.10979016201794146,0.25682920065186915
1772019775556532700,0.52853271484375,0.5133206937819719,-0.19929653768092392,0.1835114509847015
1772019775576498400,0.54849853515625,0.3234960410624742,-0.17356266922652722,0.1617773014246486
1772019775596464600,0.568464599609375,0.432914447158575,-0.05378273585289716,-0.0483684009202756
1772019775616431600,0.588431640625,0.23120354181230066,0.15000117637515067,-0.14045372369317338
1772019775636397600,0.6083974609375,0.44036417864263055,0.16905629771798847,-0.0247045436729677
1772019775656363800,0.62836376953125,0.40391456264555453,0.5585878224849701,0.12392298799511045
1772019775676329700,0.648329833984375,0.3321504721611738,1.0818728609204291,0.12375954106170683
1772019775696295400,0.66829541015625,0.8413666532337665,1.0605632386490702,-0.16588259958531706
1772019775716262700,0.6882626953125,1.6890934891492126,1.012241106289625,-0.16737462824136018
1772019775736228600,0.708228515625,1.6734733106911182,0.7374255095049739,-0.35750074812546373
1772019775756194600,0.728194580078125,1.5134545981705188,0.24615678079426287,-0.4802238953441381
1772019775776160800,0.748160888671875,1.3871417558968067,-0.16678513791561125,-0.6408537255004048
1772019775796127500,0.76812744140625,1.0088473721981048,-0.430650301618874,-0.7919245769336819
1772019775816093700,0.78809375,0.16932196291685103,-0.6938733680263162,-0.8531479841813444
1772019775836059600,0.8080595703125,0.32858956480920315,-0.656521250231564,-1.0739397298336029
1772019775856025600,0.828025634765625,0.5142559288054704,-0.5269812626048922,-0.7414157481849193
1772019775875991600,0.847991455078125,0.7975701816052198,-0.37280192376226184,-0.4075130985941738
1772019775895958800,0.867958740234375,0.6772627172261476,-0.3889896729752421,0.024499065962433814
1772019775915924500,0.887924560546875,-0.30084815592467784,-0.295325593110919,0.1307066933184862
1772019775935890700,0.907890625,-0.8028297095686197,0.01806727934926748,-0.06079904435575008
1772019775955856600,0.927856689453125,-0.7892442518085241,0.06310176834017038,0.11289433857835829
1772019775975823600,0.94782373046875,-0.7834960635453462,-0.15654665249586106,0.32566772254575044
1772019775995789600,0.96778955078125,-0.80685764991045,-0.3992781350165605,0.7190994330890477
1772019776015756000,0.987756103515625,-0.5372253009825945,-0.34789661508649583,0.9636426412068306
1772019776035722000,1.007721923828125,-1.2732903357893228,-0.3760401750311255,0.9892170813158154
1772019776055688200,1.027688232421875,-0.37516836063265796,-0.6241533505901694,0.4918669868648052
1772019776075655000,1.047655029296875,0.0845095902889967,-0.9313657808497547,0.7531231371134519
1772019776095621000,1.06762109375,-0.4659422720134258,-1.1434168784245848,0.6441210567332804
1772019776115587000,1.087587158203125,-0.8993985709637403,-1.1294093958601354,0.2677517958782613
1772019776135553000,1.107552978515625,-0.5373094721347094,-0.5071116100087761,0.4316134840952232
1772019776155519000,1.12751904296875,-1.9297317987829445,-0.06606792466938495,0.3471226350393146
1772019776175486200,1.147486328125,-2.482988781633973,0.38003099823296066,0.44069015919398513
1772019776195452000,1.167451904296875,-1.6957465172976254,0.5458884999096393,0.8083676160819828
1772019776215418000,1.187418212890625,-1.4613707751899956,0.4846984104096889,0.6512194905616343
1772019776235384000,1.207384033203125,-0.8263678215444088,0.3606049977511167,0.5906618537463247
1772019776255351000,1.22735107421875,0.09461597376167774,0.1088283312484622,0.4952172471407801
1772019776275317000,1.24731689453125,0.7418927180469036,-0.0065597969070076935,0.34021249032467604
1772019776295283200,1.267283203125,0.27980712146162984,-0.07899521078169346,-0.07692304415013641
1772019776315249000,1.287248779296875,0.5727046106427908,-0.1944315619930625,-0.29072113152276724
1772019776335215000,1.307215087890625,0.5287900655925274,-0.38589462956935167,-0.354362303969264
1772019776355181800,1.327181884765625,0.37124972588419913,-0.31177140873819587,-0.3706163964167237
1772019776375148000,1.34714794921875,0.3656745561003685,-0.1741106584981084,-0.2882937582453713
1772019776395114000,1.367114013671875,0.4106692976027727,-0.20887685145288704,-0.2752956536528654
1772019776415080200,1.387080078125,-0.07120879468917846,-0.002628302676975727,-0.13534699340499937
1772019776435046000,1.4070458984375,0.005092354702949524,0.19932050307840107,0.0640117684577126
1772019776455013000,1.42701318359375,0.2548334237247705,0.007499415844678879,0.15655194972548633
1772019776474978800,1.446978759765625,0.3416536290436983,-0.14153379228115082,0.14826803243961184
1772019776494945000,1.466945068359375,0.289465761166811,-0.3906465002715587,-0.06722793575893156
1772019776514911000,1.486910888671875,0.07008826622664928,-0.4474474149018526,-0.14790365610662848
1772019776534877200,1.506877197265625,-0.13570493999719618,-0.32505145381093026,-0.03243148466320708
1772019776554844200,1.52684423828125,-0.3280406987547874,-0.2558206811964512,0.01700682877721265
1772019776574810000,1.54681005859375,-0.3574900806009769,-0.23085779711455107,0.16907007051501421
1772019776594775800,1.56677587890625,-0.04762333644032478,-0.09025281011611223,0.2873398185214028
1772019776614742000,1.586741943359375,0.15676760177016258,-0.062058104506134984,0.24443677033493294
1772019776634709000,1.606708984375,0.07777940525114536,-0.10994739840626716,0.25493542279452086
1772019776654675000,1.626675048828125,-0.03727496090531349,-0.10674918688684701,0.18740714324899016
1772019776674641200,1.64664111328125,-0.05155424614846706,-0.18844927271306514,0.08853573139938525
1772019776694607000,1.666607177734375,-0.007138181316852569,-0.18226766146868467,0.12396247062212787
1772019776714573000,1.686572998046875,0.1722381426244974,-0.16862667412906884,0.14825486243078484
1772019776734540000,1.7065400390625,0.3424386419415474,-0.24932021326124668,0.1672633498866111
1772019776754506000,1.726506103515625,0.20174422309398649,-0.3043815907478332,0.1030771564437542
1772019776774472000,1.746471923828125,-0.062324646487832064,-0.45377281853109597,0.020050233327411113
1772019776794438100,1.766438232421875,-0.37506080860495566,-0.5149979793444276,-0.057302681006817145
1772019776814404000,1.786404052734375,-0.21805822903513908,-0.3654655895248055,0.10509860666822642
1772019776834371000,1.80637109375,-0.08473463121652602,-0.32469051154404877,0.20830255869626998
1772019776854337000,1.8263369140625,-0.022041151416301728,-0.2641919114395976,0.15492487824661658
1772019776874303000,1.846302978515625,0.2100362506210804,-0.28540362629443405,0.16680840919334441
1772019776894269000,1.86626904296875,0.19936814161241054,-0.2917734535872936,0.1415213072589133
1772019776914235100,1.886235107421875,0.21937807946205137,-0.18849515768140554,0.13661173437749966
1772019776934201900,1.906201904296875,-0.0008376198679208755,-0.13511574193239212,0.008736949149845168
1772019776954168000,1.92616796875,-0.09264730403721332,-0.00615910715162754,-0.05159200260927901
1772019776974134000,1.946134033203125,0.1283405487090349,0.12282616920173167,0.013835279219143558
1772019776994100000,1.966099853515625,0.21515724689662455,0.18756898274719713,0.0825049542020075
1772019777014066200,1.986066162109375,0.07408230429887772,0.21403467260748146,0.05728875294616446
1772019777034033200,2.006033203125,0.20061726489067078,0.1537587753430009,0.027213934961298945
1772019777053999000,2.0259990234375,0.09001929362118244,-0.04895838443636894,0.02442887766989879
1772019777073965000,2.045965087890625,-0.1088783078700304,-0.019788988575339315,-0.05980807882333174
1772019777093931300,2.06593115234375,-0.03882628200054168,-0.08031769155710936,0.007597213663347065
1772019777113897000,2.08589697265625,-0.017205401822924613,-0.10398644417524337,0.09006770847332664
1772019777133864200,2.1058642578125,-0.015488661032915114,-0.08242080131620168,0.06937728211281355
1772019777153830100,2.125830078125,0.08159925580024718,-0.3116933750659227,0.0016246694592293351
1772019777173796000,2.145796142578125,0.02376373742520809,-0.3105170247629285,-0.048289641162217595
1772019777193762000,2.165761962890625,0.2044581582278013,-0.11754589071124791,-0.011409460861305705
1772019777213728300,2.185728271484375,0.16731997544467447,-0.22793723349273204,0.04184338306570425
1772019777233695000,2.205695068359375,-0.05094926599264145,-0.19445494286864995,-0.0018515598505502565
1772019777253661200,2.2256611328125,-0.08298807981014251,-0.16916268070191143,-0.11719577123248018
1772019777273627100,2.245627197265625,-0.05450549716949463,-0.2564639475360513,-0.14606900629168376
1772019777293593000,2.265593017578125,0.13906068016588688,-0.18135405375510452,-0.004841626778314821
1772019777313559000,2.28555908203125,0.14946575432419776,-0.14280337382555008,0.11210875942492857
1772019777333526000,2.305526123046875,0.16286884125471116,0.0115831780269742,0.10476148366834968
1772019777353492000,2.325491943359375,0.1616378381550312,-0.048691550193727014,0.141175672159018
1772019777373458200,2.345458251953125,0.12450082441568373,-0.01853752720952034,0.12676335338703357
1772019777393424100,2.365424072265625,-0.0038239422023296356,-0.05176350498497486,0.12117027348717674
1772019777413390000,2.38539013671875,-0.0012286650121212004,-0.11164748032242058,0.040912257961742575
1772019777433357000,2.405357177734375,0.07308160282373428,-0.19913930129259824,0.06944745670561678
1772019777453323000,2.425322998046875,-0.012358546313643455,-0.26095336790978907,0.03540729473675601
1772019777473289000,2.4452890625,0.15397008000612258,-0.12308131300657987,0.07481918090579565
1772019777493255200,2.465255126953125,0.1940671125948429,-0.19265169283896683,0.07600896607909817
1772019777513221000,2.48522119140625,-0.03243044348359108,-0.11843377946168183,0.11697468496086075
1772019777533188000,2.50518798828125,-0.08283435055315494,-0.018729834911227226,0.10078374827695079
1772019777553154300,2.525154296875,-0.04384206433594227,-0.023957506431639193,0.16430378769496454
1772019777573120000,2.5451201171875,0.10591010571420192,-0.058440498530864714,0.25571460873978213
1772019777593086000,2.5650859375,0.04781973579525947,-0.039677053610980506,0.2495871571017429
1772019777613052200,2.58505224609375,-0.08847966296374797,0.05431845016479492,0.32272067277580496
1772019777633019100,2.60501904296875,-0.12584931641519068,-0.07743161472678184,0.18335607775989918
1772019777652985000,2.624985107421875,-0.12006430327296257,-0.3379217490389943,-0.026298516599833965
1772019777672951300,2.644951416015625,0.1577250486254692,-0.3929875104397535,0.022654214413883163
1772019777692917000,2.6649169921875,0.015084171885251999,-0.23303397210985421,0.048489059024723245
1772019777712883200,2.68488330078125,0.06853343800008296,-0.039303836384415626,0.07538496612897143
1772019777732850200,2.70485009765625,0.2039963859349489,0.009852408711612224,0.14826262561213224
1772019777752816000,2.724816162109375,0.07621873180568217,-0.0120624859765172,0.15119427688354625
1772019777772782000,2.744781982421875,0.06782382842600346,0.013157587736845016,0.13354314058711753
1772019777792748300,2.764748291015625,0.17120938409864903,-0.045267128702998156,0.04451093090767972
1772019777812714000,2.7847138671875,0.15137363377213478,-0.10184154110103845,0.0832099515330512
1772019777832680200,2.80468017578125,-0.01558686071038246,-0.02273760924786329,0.08629491193634457
1772019777852647200,2.824647216796875,0.13177169220149515,-0.09701280577033758,0.07870354349189437
1772019777872613000,2.844613037109375,0.0180991357922554,-0.19130992284119128,-0.03112241135863587
1772019777892579000,2.8645791015625,-0.1446884569197893,-0.17050357391685247,-0.08264123913384974
1772019777912545300,2.884545166015625,0.03461889343857765,-0.13572481374144554,0.03278579625990242
1772019777932511000,2.904510986328125,0.20612813726663587,-0.11995236733108758,0.11428692544791846
1772019777952478200,2.924478271484375,0.23990999535918234,-0.06803717891573906,0.2294283123007044
1772019777972444200,2.944444091796875,0.16880466104447842,-0.14839111083000897,0.1826657391418703
1772019777992410000,2.96441015625,-0.11196867510080337,-0.24151713829487562,0.05254543087659403
1772019778012376300,2.984376220703125,-0.34723756665587424,-0.3043696080490947,-0.020359938597399742
1772019778032342300,3.00434228515625,-0.08468845398724079,-0.42143589854985475,-0.10335046609295531
1772019778052309200,3.024309326171875,0.19644085598886013,-0.48450551818609233,-0.055856747381668535
1772019778072275500,3.044275390625,0.0658259326070547,-0.3775789289057255,-0.04149102596407756
1772019778092241400,3.064241455078125,0.13048340595662594,-0.2962795328348875,0.059907374479342246
1772019778112207000,3.08420703125,-0.05119476518630981,-0.20750994701385497,0.06648280734689906
1772019778132173300,3.10417333984375,-0.2236076798558235,-0.18178543090969324,0.01969363844208419
1772019778152139300,3.12413916015625,-0.10714520046710968,-0.1337438690572977,0.08994624665128066
1772019778172106200,3.144106201171875,-0.03132394354641437,-0.0629676205664873,0.11226815123772248
1772019778192072400,3.164072509765625,0.05475859514772892,-0.01267769526541233,0.20149561862777918
1772019778212038400,3.184038330078125,0.2197206092894077,-0.028920097275078296,0.2646981073960662
1772019778232004000,3.204004150390625,0.2878840449333191,-0.10669541087299585,0.27338609370449557
1772019778251970300,3.22397021484375,0.08094692937135696,-0.1088654483884573,0.1476202360553667
1772019778271937300,3.243937255859375,-0.29705285529494285,-0.06822101105004548,0.026904592734202742
1772019778291903200,3.2639033203125,-0.22240999450385568,-0.09028612786382437,0.08231085640201345
1772019778311869400,3.283869384765625,0.06001987667679786,-0.08257453057318925,0.13523332216376438
1772019778331835400,3.30383544921875,0.07879004359841346,-0.06847527807205915,0.1226301899719052
1772019778351801300,3.32380126953125,0.007177928805351257,-0.09463526298403739,0.0454075052880682
1772019778371768300,3.343768310546875,0.02299158400893211,-0.05921820490509271,0.07059956761649809
1772019778391734300,3.363734375,0.15603110418915747,-0.02643120306879282,0.07850097012449987
1772019778411700200,3.3837001953125,0.10493395415842532,-0.10276333212107419,0.030873277169466015
1772019778431666400,3.40366650390625,0.02526303607225418,-0.07921586779505015,0.023555885094497353
1772019778451632400,3.42363232421875,0.13680442567169665,0.00032762451916933057,0.1183257068441715
1772019778471598300,3.443598388671875,0.0531254409879446,-0.04967676183879375,0.09550283046565018
1772019778491565300,3.4635654296875,-0.12812602917551993,-0.05534779321253299,0.1428326729852706
1772019778511531300,3.48353125,-0.09484627538621425,-0.02706687062382698,0.09967728487239219
1772019778531497200,3.503497314453125,0.23544950881898402,-0.1169043779373169,0.1488635323810391
1772019778551463400,3.52346337890625,0.07644201916754245,-0.10236381140947341,0.10773714761142618
1772019778571429400,3.543429443359375,-0.06463526151776314,-0.037593525335192675,0.04860553414439782
1772019778591396400,3.563396240234375,0.059311436146497726,-0.04403729464709759,0.11671902969935909
1772019778611362300,3.5833623046875,-0.011052139890193938,0.04559972165822983,0.10937019217335618
1772019778631328300,3.603328369140625,-0.07864683573544025,-0.01239537119269371,0.004188090206449851
1772019778651294200,3.623294189453125,-0.01987023711800575,-0.13417173908054827,-0.06755882994742132
1772019778671260400,3.643260498046875,0.10655249527096748,-0.14285101235955952,-0.08839600326828657
1772019778691226400,3.663226318359375,0.12493512417972087,-0.1978705965310335,-0.1482586618230678
1772019778711193300,3.683193359375,0.16564239762127397,-0.21854835063964126,-0.1967432730015367
1772019778731159300,3.7031591796875,0.10464403130114078,-0.28913462951630353,-0.22943068692088125
1772019778751125200,3.723125244140625,-0.07864917382299899,-0.30958471234887835,-0.1454742370026186
1772019778771091200,3.74309130859375,-0.21633388946056364,-0.24163228910714388,-0.17024976355256513
1772019778791057400,3.763057373046875,0.09290800080001353,-0.2803410822078585,-0.09378960594013333
1772019778811023400,3.7830234375,0.006192424899339676,-0.2636202490314841,-0.04595000553377904
1772019778830990300,3.802990234375,-0.1498258198082447,-0.1118432951554656,-0.010773624342912808
1772019778850956300,3.822956298828125,-0.11471709702610969,-0.054068859317898746,0.09930467043402603
1772019778870922200,3.842922119140625,0.008878887504339218,-0.027465514552593228,0.10559703031019307
1772019778890888200,3.86288818359375,0.10436053818464279,0.022444763781130313,0.06548090942851267
1772019778910854400,3.8828544921875,0.20882278317809103,0.09717384155094623,0.0215484907948412
1772019778930820400,3.9028203125,0.11888006192445755,0.04347790719866752,0.028227457102108746
1772019778950787300,3.922787353515625,-0.011693944925069808,0.0397492420643568,-0.018405831687827594
1772019778970753300,3.942753173828125,0.05921557455658912,-0.012603753246366978,0.02191002900005551
1772019778990719200,3.96271923828125,0.061276598739624016,0.03350742506533861,0.15113512144167907
1772019779010685200,3.982685302734375,0.23061200565993784,0.018002397419512272,0.2594054626143537
1772019779030651100,4.002651123046875,0.25004326683878897,-0.20779548595696687,0.21906941537167876
1772019779050617300,4.022617431640625,0.05348433742821216,-0.19629910943061113,0.19222170392386614
1772019779070584000,4.042583984375,-0.03910392989814281,-0.20458529173880816,0.16395340335471556
1772019779090550300,4.06255029296875,-0.10173194324672222,-0.31432635391801594,0.08151313015306368
1772019779110516000,4.082515869140625,-0.26594284676015373,-0.30209289528876543,0.022125356817746068
1772019779130482200,4.102482177734375,-0.315780936640501,-0.27918811278045175,-0.039782322350051254
1772019779150448000,4.1224482421875,-0.31141163551509377,-0.3200476541742682,-0.016351776101696303
1772019779170414300,4.142414306640625,-0.2965753009110689,-0.22770693186819552,-0.07723664014395326
1772019779190381000,4.162381103515625,-0.07667641244530678,-0.11018383751064538,-0.028793137294007464
1772019779210347300,4.18234716796875,0.22075170590281484,-0.005061959564685821,0.10663061114163137
1772019779230313000,4.20231298828125,0.1170692131102085,0.026765841850638388,0.0545605244255159
1772019779250279200,4.222279052734375,0.05821487308144569,0.042537411478161806,0.002480601301975548
1772019779270245000,4.2422451171875,0.13356617440283297,0.011149462784826755,-0.011902975432714447
1772019779290211300,4.26221142578125,0.1904430768787861,0.10449380917549132,0.03189471090538427
1772019779310178000,4.282177978515625,0.21625673257112502,0.08802607397735118,0.06044297919338569
1772019779330144300,4.302144287109375,0.3037754415482282,0.154530636498332,0.14633399563711136
1772019779350110000,4.32210986328125,0.1427723941653967,0.0370806073769927,0.1479245710304938
1772019779370076200,4.342076171875,-0.0026122283250093457,-0.03255290081948042,0.26726362876882775
1772019779390042000,4.3620419921875,-0.2574094116926193,0.06823825444579124,0.3292794102368876
1772019779410008300,4.38200830078125,-0.2009206317514181,0.1549991307929158,0.19642419711500406
1772019779429975000,4.40197509765625,0.23173604125380515,-0.06495879438370465,0.09056912778997793
1772019779449941200,4.421941162109375,0.33547172553837296,-0.2567527013495564,-0.035249117633514106
1772019779469907000,4.441906982421875,0.07221826399266719,-0.1571235756009817,-0.12418847053088247
1772019779489873200,4.461873046875,0.046509822240471836,-0.12491115878224372,-0.2026940711647272
1772019779509839000,4.481839111328125,0.15725801563560962,-0.059637307099997997,-0.03080276921652257
1772019779529805000,4.50180517578125,-0.008120762613415718,0.18087065415233372,0.1681014629448764
1772019779549772000,4.52177197265625,-0.10588380222916602,0.2303735207289457,0.21196153786154462
1772019779569738200,4.54173828125,-0.08459960666000843,0.036950843517482276,0.0784845213131979
1772019779589704000,4.561703857421875,-0.14001111275851727,-0.07244096683263779,0.0825843213148415
1772019779609670100,4.581670166015625,-0.1279448273897171,-0.05271715244799852,0.18414711853973567
1772019779629636000,4.601635986328125,0.1298573830127716,-0.13009294533431529,0.10140552430395036
1772019779649602000,4.62160205078125,0.21097966895103454,-0.2459685647457838,-0.006354373995400965
1772019779669568000,4.641568115234375,0.191409291562438,-0.3637204994231462,-0.08123864232692866
1772019779689535200,4.66153515625,0.0710112262904644,-0.33364480237215755,-0.009033146484289318
1772019779709501000,4.6815009765625,-0.27012685444653034,-0.24092618666440246,0.0604720591573976
1772019779729467100,4.701467041015625,-0.5489806207060813,-0.11537731450051068,-0.04157680455138907
1772019779749433000,4.72143310546875,-0.39372400802075863,-0.015264789149165153,0.001319211106095463
1772019779769399000,4.74139892578125,0.13132044130265713,0.10302461340576409,0.15811200211644172
1772019779789365000,4.761364990234375,0.3372352280795574,0.009758592948317527,0.1170948590081185
1772019779809332200,4.781332275390625,0.38507133048772807,-0.10950666890144348,-0.015578713936544954
1772019779829298000,4.8012978515625,0.40823768654167647,-0.2612079271927476,-0.08131609147731214
1772019779849264000,4.82126416015625,0.2216384256094694,-0.26387363927066326,-0.05985796411335468
1772019779869230000,4.84122998046875,0.10555120927393435,-0.15337094506919383,-0.06797775861239061
1772019779889196000,4.861196044921875,0.10806056174635886,-0.08223609239906073,0.07151828076345845
1772019779909162000,4.881161865234375,-0.14935644873082637,0.023158465008437632,0.1316859318804927
1772019779929128200,4.901128173828125,-0.19061843344569204,0.19385142401754854,0.20579622016483917
1772019779949095000,4.921094970703125,-0.05231821625828743,0.1740440230026841,0.2963706086518243
1772019779969061000,4.94106103515625,-0.04228255993425846,0.10642156236767768,0.19485751405386253
1772019779989027000,4.961027099609375,0.010394552764296532,0.01687573147714138,0.09792811225065962
1772019780008993000,4.980992919921875,0.06972878526449203,0.030927053183317184,0.16604000037042424
1772019780028958700,5.000958740234375,-0.02801321156322956,-0.02257043598741293,0.11944675589650869
1772019780048925000,5.020925048828125,-0.08244155184328555,-0.08428367257863283,0.0620764438804239
1772019780068891000,5.040890869140625,-0.11604279267191886,-0.1412266260281205,0.07099681417262181
1772019780088857900,5.06085791015625,-0.02360124033987522,-0.13206044601500033,0.05393683043606579
1772019780108823800,5.08082373046875,0.12768588419258595,-0.12197218272089957,0.08335475769806652
1772019780128790000,5.1007900390625,0.3098766810327768,-0.04956394911408424,0.152231474444177
1772019780148755700,5.120755615234375,0.175131525978446,-0.161774324016273,0.11141210066396742
1772019780168722000,5.140721923828125,-0.08286591473519801,-0.12794541191160677,0.17303389611206949
1772019780188688000,5.16068798828125,-0.35763328846395015,-0.07295066992044448,0.20673888957612216
1772019780208653800,5.18065380859375,-0.268904034653306,-0.05808160209059715,0.158185578809306
1772019780228620800,5.200620849609375,-0.17768413307070732,-0.12542378447949887,0.17156303810821846
1772019780248587000,5.2205869140625,-0.2191495314031839,-0.1267857204824686,0.1000700927154161
1772019780268552700,5.240552734375,-0.04186111965179443,-0.07714052282571793,0.1492168575970456
1772019780288519000,5.260518798828125,0.17536182760298252,-0.0683858462229371,0.14932840994643046
1772019780308484900,5.28048486328125,0.2822843252301216,-0.1744315610155463,0.10813656785832718
1772019780328448800,5.30044873046875,0.27645781103372574,-0.21109452750235794,0.07283486152105033
1772019780348415000,5.3204150390625,0.2552268069565296,-0.2330164364531636,-0.06695687286574394
1772019780368380700,5.340380615234375,-0.06387129140794277,-0.18717150786221026,-0.22631376047674565
1772019780388347000,5.360346923828125,-0.17807400917112826,-0.15657412502467632,-0.21983917590146884
1772019780408312800,5.380312744140625,-0.07083470067977905,-0.04593348365724086,-0.24749646843280643
1772019780428279000,5.400279052734375,0.1107563767015934,-0.022639409570395945,-0.20996722223917022
1772019780448244700,5.42024462890625,0.5443582216024399,0.011648059956729412,-0.1648823365015909
1772019780468212000,5.4402119140625,0.686450816810131,-0.1554471668213606,-0.013723642388079315
1772019780488177700,5.460177734375,0.15602701253592968,-0.13718845655322073,0.06581006831764243
1772019780508143900,5.480143798828125,-0.25658406678438184,-0.0339306189134717,0.09860833133347333
1772019780528109800,5.50010986328125,-0.317709274354577,0.034926351952552795,0.12507326314193196
1772019780548076000,5.520075927734375,-0.24446342087984083,0.06281476809233427,0.15317686553550883
1772019780568041700,5.540041748046875,-0.2077174522846937,-0.0009659224227070807,0.07051026363153942
1772019780588008000,5.560008056640625,-0.055064300096035,-0.06347030939161777,0.003183908999431878
1772019780607974000,5.579973876953125,0.3355740168690681,-0.11647943052351474,0.028758677901979533
1772019780627940900,5.59994091796875,0.4272480919599533,-0.2488020346060395,0.03840196477440186
1772019780647906800,5.61990673828125,0.291091901063919,-0.21805063025057314,0.040023446762701496
1772019780667873000,5.639873046875,-0.004379822519421577,-0.0772720402508974,-0.05446320153088308
1772019780687838700,5.659838623046875,-0.308727510997653,0.06518032817989587,-0.1690853046167642
1772019780707805000,5.679804931640625,-0.1147732111275196,0.1989838184699416,-0.09946306673297658
1772019780727774000,5.69977392578125,0.1979009916692972,0.23532149852514267,0.23934750263821333
1772019780747740000,5.719739990234375,0.21177695680856704,0.18788579361140728,0.28786908482620494
1772019780767705900,5.739705810546875,0.4141635694593191,0.12099310855567455,0.4124089443443343
1772019780787671800,5.759671875,0.10036357750296591,-0.0685235011279583,0.40471265422068536
1772019780807638000,5.779637939453125,0.32340310208201406,-0.06139087276905775,0.32810485003218054
1772019780827604700,5.799604736328125,0.060623687788844104,-0.3782636962994933,0.21602692413693292
1772019780847571000,5.819571044921875,-0.10333353322446345,-0.4390753078758716,0.12863507467620075
1772019780867537000,5.839536865234375,-0.20398060384392738,-0.402891649338603,0.12162327795168384
1772019780887502800,5.8595029296875,-0.36286183676719663,-0.36626843034029005,0.13273646384673193
1772019780907468800,5.87946875,-0.6525251663327216,-0.30837270621061325,0.04379617936760187
1772019780927435000,5.89943505859375,-0.31039573647081853,-0.2645057996943593,0.18011441069124265
1772019780947400700,5.919400634765625,-0.08288695752322674,-0.3093815909922123,0.12889331462043338
1772019780967367000,5.939366943359375,-0.03213292184174061,-0.41713031031042336,0.019263357266038655
1772019780987334000,5.959333984375,0.09328034124374389,-0.36106355517357586,-0.002070422199042514
1772019781007299800,5.9792998046875,0.02182838544845581,-0.2957248215615749,-0.012726612441055475
1772019781027265500,5.999265625,-0.03519230941236019,-0.18145897543430328,0.07687748797535895
1772019781047231700,6.019231689453125,-0.13335399295687675,-0.07724222963452339,0.10230044558336958
1772019781067197400,6.039197509765625,-0.15977087523937225,-0.03931172742992639,0.12979208095790817
1772019781087163600,6.05916357421875,0.010984335350990295,0.01584755747318268,0.21903759546130894
1772019781107129600,6.079129638671875,0.10647884551286697,-0.00829582691937685,0.20942442059936
1772019781127095800,6.099095703125,0.10037994411587714,-0.013708791878819465,0.20717508903630077
1772019781147061500,6.1190615234375,0.07753916675448418,0.13076602229028939,0.2513506779092364
1772019781167028700,6.13902880859375,0.021376550027728078,0.17099837169647217,0.1641679228882305
1772019781186994400,6.158994384765625,-0.0020405659168958664,0.2615180160552263,0.19839602691093458
1772019781206960600,6.178960693359375,0.1380389359027147,0.3047413639709353,0.2871041648683138
1772019781226926600,6.198926513671875,0.31268472419083115,0.17881401388347148,0.3741330627681687
1772019781246892800,6.218892822265625,0.5296919828683138,-0.04366027802824974,0.2804868656204082
1772019781266858500,6.2388583984375,0.6586825199186801,-0.10871931791603565,0.12165350869316607
1772019781286824700,6.25882470703125,0.5894903257489204,-0.01035977371186018,-0.007467723798472434
1772019781306790700,6.278790771484375,0.10042144517004489,0.0023278584256768227,-0.1785340278983116
1772019781326757600,6.298757568359375,-0.4117494940549135,-0.05002805949449539,-0.09959230086952447
1772019781346723600,6.3187236328125,-0.5576438196331263,0.11625175924748182,0.07273561153081246
1772019781366689800,6.338689697265625,-0.7500918065935372,0.1297527535945177,0.016579415411688385
1772019781386655500,6.358655517578125,-0.6465525216639042,0.03413637061864137,-0.12248363937437534
1772019781406621700,6.37862158203125,-0.25925942347347736,-0.06831219646483659,-0.24497073108116163
1772019781426587600,6.398587646484375,0.21821546542346476,-0.09702186585962772,-0.23114125369843094
1772019781446553600,6.4185537109375,0.464431282928586,-0.16048574551045894,-0.17603537948299197
1772019781466519600,6.43851953125,0.4629191247999668,-0.18433423860967157,-0.1204391644673422
1772019781486485800,6.45848583984375,0.3493289859771728,-0.203822782933712,-0.14925591096580026
1772019781506452500,6.478452392578125,0.0737730922192335,-0.2795110611245036,-0.23560188636910168
1772019781526418700,6.498418701171875,0.062277300214767455,-0.23901567686796188,-0.2078231594151817
1772019781546384600,6.518384521484375,0.1380143859833479,-0.16083499733954668,-0.1279170991325751
1772019781566350600,6.5383505859375,0.1554728857845068,-0.18381021473556755,-0.05470237144846469
1772019781586316500,6.558316650390625,0.160243168926239,-0.13362930276691912,0.03879806055305526
1772019781606282800,6.57828271484375,0.13394260649979114,-0.09651508538126945,0.12527697815364225
1772019781626248700,6.598248779296875,-0.027957681983709334,-0.1488029065012932,0.12003383506946265
1772019781646214700,6.618214599609375,-0.0876420430958271,-0.14597820446938276,0.12725817856611682
1772019781666180600,6.6381806640625,-0.04274900840222835,-0.10692308214902878,0.16235917469952255
1772019781686146600,6.658146484375,-0.00042027123868465424,-0.18476123185008764,0.22615155565235762
1772019781706113500,6.678113525390625,-0.04451426450908184,-0.21008008976280687,0.26154190838746727
1772019781726079700,6.698079833984375,-0.027983400946855544,-0.2331581830114126,0.2542361336850561
1772019781746045700,6.718045654296875,-0.018801731103658674,-0.16883447166085241,0.21382555990144608
1772019781766011600,6.73801171875,-0.35705870344638824,-0.14087386706769467,0.11515786306355148
1772019781785977600,6.7579775390625,-0.26002982332408425,-0.10042232195287942,0.15809243889944627
1772019781805943800,6.77794384765625,0.014523615393042564,0.04361351627707481,0.14695048356764018
1772019781825909500,6.797909423828125,-0.08890870203077793,0.04708791438937187,0.1143776359386742
1772019781845875500,6.81787548828125,-0.17570961812734603,0.14423895958662034,-0.02615333597548306
1772019781865841700,6.837841552734375,0.13485153803825378,0.13104162436127662,-0.0268452454960905
1772019781885808600,6.85780859375,0.09515022676885128,0.13879004653096197,-0.013431856367271393
1772019781905774600,6.877774658203125,-0.008921557602286339,0.16937486214786768,-0.07527292058924212
1772019781925740800,6.89774072265625,-0.026352000352740285,0.10417875187695026,-0.09491769665461033
1772019781945706500,6.91770654296875,0.1945814918577671,0.0018196166425943374,-0.03208482665000483
1772019781965672700,6.937672607421875,0.17256839749217032,-0.1223679040402174,-0.08597213712222873
1772019781985638700,6.957638671875,0.16910802790522575,-0.24462708700895308,-0.12114497464913875
1772019782005604600,6.9776044921875,0.008069324687123298,-0.3143739924520254,-0.16136570668276398
1772019782025570300,6.9975703125,0.02221124728620052,-0.25958412538319825,-0.17330611891588196
1772019782045536500,7.01753662109375,0.07016483859419823,-0.33846506213545796,-0.06986954544205218
1772019782065502500,7.03750244140625,-0.021856442499160765,-0.20725451094806194,0.016697013909369705
1772019782085468400,7.057468505859375,-0.08732055605649948,-0.11411211687028408,0.10824139820598065
1772019782105435400,7.077435302734375,-0.2273585568219423,-0.1506143398374319,0.06359114102600141
1772019782125401600,7.097401611328125,-0.15185761789679528,-0.10143675969243049,-0.006511044128146022
1772019782145367300,7.1173671875,0.09525018001198768,-0.12859919964522123,0.006693743751291185
1772019782165333500,7.13733349609375,0.038216625669598575,-0.1512415318250656,0.05456553852735087
1772019782185299500,7.157299560546875,0.014321370819211005,0.0017705168038606642,0.041770610090438275
1772019782205265400,7.177265380859375,0.1282674834728241,-0.017089958749711514,0.07714324450576678
1772019782225231400,7.1972314453125,0.004256488400697708,-0.11398176848888397,0.08600452328817919
1772019782245197300,7.217197265625,-0.044456981363892555,-0.052071840281784534,0.04608142249425873
1772019782265163500,7.23716357421875,0.016197101563215254,-0.11610036807805299,0.02178922248184681
1772019782285129200,7.257129150390625,0.010455927562713623,-0.19433540814220904,-0.008795538336131722
1772019782305095400,7.277095458984375,0.04125497045218944,-0.020970599575340747,0.028184092884417623
1772019782325062400,7.2970625,0.0644669192135334,-0.02035305219888687,0.11597979217199608
1772019782345028400,7.3170283203125,0.022862404671311377,-0.04236147038936615,0.10206572351204231
1772019782364994600,7.33699462890625,0.060872109591960905,0.0002297171026468277,0.10492367022642865
1772019782384960500,7.35696044921875,0.09229016116261482,-0.0779626528635621,0.03953260363899171
1772019782404926200,7.37692626953125,0.03589198211431503,-0.0622621026456356,-0.041301677404437215
1772019782424892400,7.396892333984375,0.11060440101027488,0.026627017901837823,-0.03703183633182198
1772019782444858400,7.4168583984375,0.0804009859263897,-0.0328369784578681,0.005767714947555214
1772019782464824300,7.43682421875,-0.05553951639235019,-0.02285539040863514,-0.038367815909627824
1772019782484790300,7.456790283203125,0.0264776725590229,0.06517945139706134,0.06580014057867228
1772019782504756500,7.476756591796875,0.14009762199819087,0.03850216461271047,0.12909268225058912
1772019782524722400,7.496722412109375,0.18835048851370811,-0.10050970797538757,0.04481686418484896
1772019782544689400,7.516689453125,0.16729659456908702,-0.22167641953229902,0.008506145201809704
1772019782564655400,7.5366552734375,0.0928226606041193,-0.20152239703685043,0.0641000038635917
1772019782584621300,7.556621337890625,-0.050531917363405225,-0.18337357688397168,0.048175636560842394
1772019782604587300,7.576587158203125,-0.08326514318585396,-0.2751148719921708,-0.012733206578623502
1772019782624553500,7.596553466796875,-0.1724205134540796,-0.27395138117074963,-0.031871567491814495
1772019782644519400,7.61651953125,-0.16156594196259974,-0.21608488313555715,-0.01791875599035993
1772019782664485400,7.6364853515625,-0.01166296526491642,-0.1340820149704814,0.09832379703735931
1772019782684451300,7.656451416015625,0.084029697817564,-0.0940358357861638,0.17103669441286473
1772019782704417500,7.67641748046875,0.1269505556553602,-0.08760375691205263,0.151479066907987
1772019782724383200,7.69638330078125,0.1314747550815344,-0.2376271451190114,0.06681003000726923
1772019782744349400,7.716349365234375,-0.10283318248689174,-0.316696590180695,-0.12749333902886137
1772019782764315400,7.7363154296875,-0.09413549676835536,-0.35553923879414795,-0.19944639448039234
1772019782784281600,7.756281494140625,-0.048474400311708445,-0.27413696687072514,-0.06360001388562377
1772019782804248300,7.776248291015625,-0.09123626819550991,-0.10721212822347878,0.07111376421633175
1772019782824214500,7.796214599609375,-0.11049684898257255,0.12697247522622346,0.18011347910948097
1772019782844180200,7.81618017578125,-0.05647767402529716,0.28680209491550923,0.2923318546550348
1772019782864146400,7.836146484375,0.12472235821187495,0.27989012356996534,0.3095059845568612
1772019782884112400,7.8561123046875,0.10749123742580413,0.21272826618403196,0.26204167460314925
1772019782904078600,7.87607861328125,0.07536006914973259,0.13241495854109525,0.08802245724815874
1772019782924044300,7.896044189453125,0.17953356032967566,-0.03591682429462671,0.0011997311785817146
1772019782944010500,7.916010498046875,0.13051964631378649,-0.015110767631232737,0.050516893324209375
1772019782963976400,7.9359765625,0.05836567972898483,-0.035627485959231854,0.049441135585168376
1772019782983942400,7.9559423828125,0.01510755276083946,-0.13483458690345287,0.010533120984770357
1772019783003908400,7.975908447265625,-0.02649696178138256,-0.08523235160559416,-0.0038941578943282366
1772019783023875000,7.995875,-0.06147650522589683,-0.0422065720885992,-0.026815809339052064
1772019783043841000,8.015841064453125,-0.0235281751036644,-0.07574410003125667,0.0018982257036026565
1772019783063807000,8.035806884765625,0.022239304336905477,-0.09886574016064405,0.024956079881777987
1772019783083774200,8.055774169921875,0.004770867663621902,-0.13079407934099435,-0.03174185843123123
1772019783103740200,8.075740234375,-0.004014496338367462,-0.1060550671428442,-0.02532991816285066
1772019783123706000,8.0957060546875,0.10324527041912078,-0.12029635846316813,0.016717746170144526
1772019783143672300,8.11567236328125,0.10881108785271644,-0.0991165000513196,0.08228837057556956
1772019783163638000,8.135637939453124,0.13181085516810417,-0.06213292330801486,0.05741826107734814
1772019783183604000,8.15560400390625,0.25544191101193425,-0.036839492097496984,0.15593761721942573
1772019783203570200,8.175570068359375,0.14234978483915328,-0.05456979457736015,0.19217589202076196
1772019783223536000,8.1955361328125,-0.004091068705916404,-0.019282792618870732,0.1731185056556016
1772019783243502000,8.215502197265625,0.05305822097063064,0.002415244448184967,0.24928079456631091
1772019783263468000,8.235468017578125,0.17419862904250621,-0.07949000856131315,0.3152230104967952
1772019783283434200,8.255434326171875,-0.03660276073217392,-0.12291063261479139,0.26861951862350103
1772019783303400000,8.27539990234375,-0.287188463884592,-0.10784633447378873,0.29678337243748826
1772019783323366100,8.2953662109375,-0.31254560798108577,-0.0033741526082158085,0.36054354988746345
1772019783343332000,8.31533203125,-0.34696284136772154,0.038836803394556044,0.38008448198586703
1772019783363298300,8.33529833984375,-0.3106137631356716,0.17101678413599727,0.38206670531164855
1772019783383264000,8.355263916015625,-0.3260696909427643,0.13150982639491557,0.1948924392367713
1772019783403231200,8.375231201171875,-0.19832243195176125,-0.04068973778486252,-0.09330240694507956
1772019783423197000,8.395197021484375,-0.08416004619896411,-0.11584960818737744,-0.29165474084476006
1772019783443163100,8.4151630859375,0.09813304197192191,-0.10774696575254201,-0.39642066322620956
1772019783463129000,8.435129150390624,0.28213468762636185,-0.14185878645181654,-0.3420812433386221
1772019783483095300,8.45509521484375,0.23537644358277318,-0.1076315226793289,-0.29628305823253465
1772019783503061000,8.47506103515625,0.20674948403537272,-0.02839256626963615,-0.2481576540215872
1772019783523027200,8.495027099609375,0.3446159859806299,-0.008636895442008971,-0.15087209572447463
1772019783542993200,8.5149931640625,0.42275779480338094,0.017057517784833907,-0.12473061458356678
1772019783562959000,8.534958984375,0.5430833793610335,-0.030673370683193205,-0.07302506859721615
1772019783582925000,8.554925048828125,0.4855278469711542,-0.05520020143538713,-0.07651846367092803
1772019783602891300,8.574891357421874,0.28489012381434436,-0.191086635479331,-0.15987952324561774
1772019783622857200,8.594857177734376,0.10419745657742023,-0.3303516060456633,-0.21910587492454794
1772019783642823200,8.6148232421875,0.09435352343320846,-0.3806704651802778,-0.13643296201080082
1772019783662789000,8.6347890625,-0.07247253101468086,-0.35476094789803025,-0.07475981996795163
1772019783682755300,8.65475537109375,-0.37020226265788075,-0.18516864360719917,-0.025290508601069447
1772019783702721000,8.674720947265625,-0.5160942501485347,-0.0034627076745033262,0.06597268413398415
1772019783722687000,8.69468701171875,-0.40984745982587334,0.19773498745262622,0.2457836366329342
1772019783742654200,8.714654296875,-0.2691138780117035,0.24227555544674395,0.32052155529633164
1772019783762620200,8.7346201171875,-0.08270166408419609,0.1326657184317708,0.2807985071191564
1772019783782586000,8.754586181640626,0.048907531031966205,0.07433598679900169,0.21785401169992982
1772019783802552300,8.77455224609375,0.1380880357414484,-0.048071080207824704,0.09368906817510723
1772019783822518000,8.79451806640625,-0.06450900478959083,-0.050071314114332195,-0.014660868439264594
1772019783842484000,8.81448388671875,0.10790917057693004,-0.006793897923827171,0.06967572163669392
1772019783862450200,8.8344501953125,0.21514731002449988,-0.12725509155988693,0.08530623882571235
1772019783882416000,8.854416015625,-0.001149170035123825,-0.17526976540535688,-0.040512499788124115
1772019783902382000,8.874382080078124,0.08595978909730911,-0.07889233492910862,-0.0059086760545149445
1772019783922348000,8.89434814453125,0.04820142858922481,-0.23652210648655891,0.04925451783873141
1772019783942314200,8.914314208984376,-0.152592946434021,-0.24219839855730532,-0.07104216941799968
1772019783962280000,8.934280029296875,0.11873334693014621,-0.19918547852188348,-0.10499989553410559
1772019783982246100,8.95424609375,0.26202245844602584,-0.2409451836258173,-0.15302121831607074
1772019784002212000,8.974212158203125,0.2617243522822857,-0.1835518560603261,-0.10624879961665719
1772019784022178000,8.994177978515625,0.1510457169920206,-0.17280980503261087,-0.03901760332155973
1772019784042144000,9.01414404296875,0.10562018285691738,-0.12933978887945413,0.040049850712437184
1772019784062110000,9.03410986328125,0.07728197712302208,-0.09123246880322694,0.11691605010880157
1772019784082076200,9.054076171875,-0.07084639111757278,-0.07268909637480973,0.14409829074060543
1772019784102041900,9.074041748046875,-0.12594634704887867,-0.015387246485054492,0.18234532981477677
1772019784122008000,9.094008056640625,0.07434533914923667,0.012585925328731536,0.23843623301219194
1772019784141974000,9.11397412109375,0.04355798669755458,-0.04807254151254892,0.22557143594315274
1772019784161940200,9.133940185546875,0.08614800514578819,0.010047346761822699,0.20670650341017172
1772019784181906000,9.153906005859374,0.142458505910635,0.0176002463594079,0.31452677186094224
1772019784201873200,9.173873046875,-0.11767536230981349,0.0646978053599596,0.24706744763208552
1772019784221838800,9.1938388671875,-0.17335224134624003,0.0648524113997817,0.1594859390844591
1772019784241805000,9.21380517578125,0.00784486828148365,0.036470074263215066,0.10930036920700222
1772019784261771000,9.23377099609375,0.001626139897108078,0.044052199955284595,0.1709223838508129
1772019784281737200,9.2537373046875,0.07694003181755542,0.10585574517846107,0.14520722009688614
1772019784301703000,9.273702880859375,0.2697983531445265,-0.07079086153805256,0.04439816384874284
1772019784321669000,9.293669189453125,0.2863800701111555,-0.1821396511748433,-0.027067939202906562
1772019784341632000,9.313632080078126,0.25870763480961323,-0.18866466902941464,-0.0009506974541116505
1772019784361598000,9.333597900390625,0.24534838702082631,-0.1398588448062539,0.0062049099215772
1772019784381564200,9.353564208984375,0.06509352667927741,-0.07540420055240392,0.030781064274790694
1772019784401530000,9.373530029296875,-0.29121231257319447,-0.044699850209057326,0.013584759073774329
1772019784421495800,9.393495849609375,-0.3190729639232158,-0.04284253190457821,-0.12690876234024762
1772019784441462000,9.4134619140625,-0.15879180107414723,-0.1899625998854637,-0.06705390349943191
1772019784461428000,9.433427978515626,-0.08880582617819309,-0.2574795543193817,-0.06522676570408512
1772019784481394200,9.453394287109376,-0.2200689843356609,-0.17920622807145117,-0.06345812119690235
1772019784501359900,9.47335986328125,-0.14542203189134598,-0.10897913789600133,-0.001856537419767119
1772019784521326000,9.493326171875,-0.19203648355007172,-0.11315963845103978,0.023472111234604378
1772019784541292000,9.5132919921875,-0.2775871073246002,-0.11703852571099996,-0.0312272599725984
1772019784561258000,9.533258056640625,-0.18505320053398608,-0.1588011534243822,0.03733890440344112
1772019784581225000,9.553224853515625,-0.1571411112576723,-0.093293200725317,0.042349889549426735
1772019784601190100,9.573190185546874,-0.0164870244204998,-0.0630047377064824,-0.002342122129758354
1772019784621156900,9.593156982421876,0.017676526466012,-0.14619535435140132,-0.016911711539397946
1772019784641123000,9.613123046875,0.1127080952912569,-0.04009206415265798,0.0015452977798180653
1772019784661089000,9.633089111328125,0.234931037902832,0.012284019772708415,0.11231494952151551
1772019784681055000,9.653054931640625,-0.005328501546382904,0.03125935387760401,0.10226572132986038
1772019784701021000,9.67302099609375,-0.03908756328523159,0.1596308822467923,0.08646642344519495
1772019784720988200,9.69298828125,0.02138473333418369,0.16084551873356104,0.15146008821288123
1772019784740953900,9.712953857421875,0.05181143577992916,0.061469783224165436,0.1453207452076487
1772019784760920000,9.732920166015624,0.12906827846169472,0.00924567499011755,0.07452323929967825
1772019784780886000,9.752885986328126,0.0921212343364954,-0.10454320127516985,-0.008106071934360078
1772019784800852000,9.77285205078125,0.056386488610506054,-0.12117898651659488,0.060356132026994594
1772019784820818000,9.79281787109375,0.058734513041377064,-0.04425064513683319,0.14724773121485485
1772019784840784100,9.8127841796875,0.01958966661095619,-0.11275514930337667,0.1038204125591088
1772019784860750000,9.83275,0.023926819032430647,-0.247227040374279,0.010123315199528587
1772019784880716000,9.852716064453125,-0.05945990470647811,-0.20301234333366155,0.035228097678371706
1772019784900682000,9.872681884765624,-0.06674713910520076,-0.14500819039344787,0.07787067286432721
1772019784920648200,9.892648193359374,-0.13239245444834233,-0.1411374864399433,0.08760396697460673
1772019784940614000,9.91261376953125,-0.06131400814056396,-0.14421148705780507,0.03919023820841685
1772019784960580000,9.932580078125,-0.08327741814553737,-0.257424901522696,0.04522753191154916
1772019784980546000,9.952546142578125,-0.0483066425293684,-0.17807488595396279,0.037572400348773224
1772019785000512000,9.972511962890625,0.04724047460258007,-0.16820961776077747,0.007340359675313811
1772019785020478200,9.992478271484375,0.1444979027837515,-0.2751809229657054,-0.019658206369099207
1772019785040444400,10.0124443359375,0.02589958041012287,-0.21355594917982815,-0.04316906501178164
1772019785060410400,10.032410400390624,-0.008806406790018081,-0.18065321200937032,-0.004106188643234782
1772019785080376300,10.052376220703126,0.01837503012418747,-0.1198646890476346,-0.04097919941784348
1772019785100342300,10.07234228515625,0.07606792515814303,-0.0858037217527628,-0.01755762192723341
1772019785120308500,10.09230859375,0.13386603413224218,-0.05107844533026218,-0.021580456835683434
1772019785140274200,10.112274169921875,0.2773094594269991,-0.0058776598617434495,0.04009268064058851
1772019785160240000,10.132240234375,0.14913608397841452,-0.003141805157065391,0.028182389551098457
1772019785180206300,10.152206298828125,0.019316694888472555,-0.006579962912201881,0.011884800455207005
1772019785200172300,10.17217236328125,-0.013216039925813675,0.01706657787412405,0.05231490548977162
1772019785220138200,10.19213818359375,0.09187807323038577,-0.0030035657301545142,0.08350675165569409
1772019785240104200,10.212104248046876,0.0335316827237606,-0.08078034063279628,0.12191141984383574
1772019785260070400,10.2320703125,0.002122398981451988,-0.0895741802021861,0.09382973702112213
1772019785280036000,10.2520361328125,0.09506722466051577,-0.10776771627962589,0.09828596751131116
1772019785300002300,10.272002197265625,0.0437970561504364,-0.14682751477509737,0.07336155227627605
1772019785319968300,10.29196826171875,-0.0005652326673269272,-0.13300854052007197,-0.0005089907017536462
1772019785339934500,10.3119345703125,0.013043605968356131,-0.16562661553025246,0.0043595377832185474
1772019785359900200,10.331900146484376,0.10034370375871658,-0.1255462418153882,0.03362994633330963
1772019785379866400,10.351866455078126,0.1313391460031271,-0.09269318900555372,-0.023251833247160538
1772019785399832300,10.371832275390625,0.22339725197553634,-0.1087999819368124,-0.033521216128673405
1772019785419798300,10.39179833984375,0.07660743886232375,-0.09723813895881175,-0.03828949910956435
1772019785439764200,10.41176416015625,-0.24916531496047972,-0.165163089671731,-0.12264583506560883
1772019785459730400,10.43173046875,-0.20600363410413264,-0.19345891756862402,-0.23535850606728342
1772019785479696400,10.4516962890625,0.1390244398087263,-0.14727058236747978,-0.050488544012559575
1772019785499662300,10.471662353515624,0.16893267133831977,-0.09376958606541157,0.03272771853026934
1772019785519628300,10.491628173828126,0.07685936779677867,-0.046076983781158924,0.07956104623721912
1772019785539594200,10.51159423828125,-0.0012649053692817688,0.006418927131593227,0.06319724633758887
1772019785559560200,10.531560302734375,-0.12918284475207328,0.005372925209999084,0.07643575382353737
1772019785579526100,10.551526123046875,0.007971125009655952,-0.08492430856972932,0.0972114701475948
1772019785599492400,10.571492431640625,-0.023970073652267453,-0.07434037071317434,0.07558655311567708
1772019785619458300,10.591458251953124,0.04375029439926147,0.07085837381631135,0.14066869988441466
1772019785639424300,10.61142431640625,0.14042027808129787,0.12859247764348983,0.21205761864716186
1772019785659390200,10.63139013671875,0.05211655620634555,0.10065846879631281,0.1716390259538777
1772019785679356400,10.6513564453125,-0.04574351404309272,0.02615793908536434,0.09310737756332382
1772019785699322000,10.671322021484375,-0.10941723705232143,0.0038470308169722555,0.03137322604823858
1772019785719288300,10.691288330078125,0.038839726004004475,-0.006209376034140586,0.08991775120915844
1772019785739254300,10.711254150390625,-0.0012228197932243347,-0.022620120348036288,0.1525256168188527
1772019785759220500,10.731220458984374,-0.012427519896626472,-0.012346855875849723,0.13247216862104833
1772019785779186200,10.751186279296874,0.0002566051095724106,-0.051530573011934755,0.16202680093999952
1772019785799152400,10.77115234375,0.09207856423854828,-0.04557283365130424,-0.006245050135720521
1772019785819118300,10.791118408203126,0.16260288379490376,-0.1810197072342038,-0.01433901607375592
1772019785839084300,10.811084228515625,0.1214309154510498,-0.09843699335455894,0.014905874442588537
1772019785859050200,10.83105029296875,0.0626806203186512,-0.03814969791322946,0.02285566440327093
1772019785879016400,10.851016357421875,-0.24369535911679266,-0.044972821931540966,0.09815587485823779
1772019785898982400,10.870982421875,-0.4022171110779047,-0.24319763872772454,-0.2194274350291118
1772019785918948000,10.890947998046874,-0.7316483874082564,-0.3758893683835864,-0.2821349250883795
1772019785938914300,10.910914306640626,0.33806817177236076,-0.2919692684203386,0.13053419542894698
1772019785958880300,10.93088037109375,0.7985334736794233,-0.008651216228306294,0.25346518584517763
1772019785978846200,10.95084619140625,0.4029144456923008,0.06149579444825649,0.10120825729933566
