time,seconds_elapsed,z,y,x
1772018056247050800,0.07005078125,-0.0010549328289926052,0.02056179940700531,-0.02815595641732216
1772018056267017700,0.090017822265625,-0.0017854697071015835,0.010112223215401173,-0.03240010142326355
1772018056286984700,0.109984619140625,0.0028559002093970776,-0.0022503305226564407,0.024716179817914963
1772018056306952700,0.12995263671875,0.007469416595995426,0.024673499166965485,0.035644590854644775
1772018056326919700,0.149919677734375,0.010803325101733208,-0.01385529525578022,-0.007721788715571165
1772018056346887000,0.169886962890625,0.010640580207109451,-0.020298758521676064,-0.03726263716816902
1772018056366853600,0.189853515625,0.0031163636595010757,-0.016908714547753334,-0.013645457103848457
1772018056386820900,0.20982080078125,0.005341124255210161,-0.0034208418801426888,0.013777513056993484
1772018056406788900,0.229788818359375,0.0032945675775408745,0.019180895760655403,0.0025087432004511356
1772018056426755600,0.249755615234375,0.0043507711961865425,0.005217758007347584,-0.021411901339888573
1772018056446722800,0.269722900390625,0.008130387403070927,-0.010136090219020844,-0.03583811596035957
1772018056466689800,0.289689697265625,0.003974142484366894,-0.015955515205860138,0.01588047854602337
1772018056486657800,0.30965771484375,-0.0007987492717802525,0.01501220092177391,0.055683284997940063
1772018056506624800,0.329624755859375,0.004881734494119883,0.005020499229431152,0.028444472700357437
1772018056526591700,0.349591796875,0.001236387062817812,-0.0010369662195444107,-0.017476413398981094
1772018056546559000,0.36955908203125,0.001073160907253623,-0.01760028302669525,-0.01176766213029623
1772018056566527000,0.38952685546875,0.0002620457671582699,0.0010115057229995728,0.026302088052034378
1772018056586493700,0.40949365234375,-0.0010467409156262875,-0.005904692225158215,0.032717783004045486
1772018056606461000,0.4294609375,0.002839858178049326,0.005507459864020348,0.011826482601463795
1772018056626428000,0.449427978515625,-0.003840866032987833,0.0010096710175275803,-0.012356221675872803
1772018056646394600,0.46939453125,-0.006904660724103451,-0.0177801251411438,-0.016068264842033386
1772018056666363000,0.48936279296875,-0.0041056410409510136,-0.02523346245288849,0.013630240224301815
1772018056686329900,0.509329833984375,-0.005811966024339199,-0.0038877460174262524,0.028031285852193832
1772018056706296800,0.529296875,-0.005199686624109745,0.010126632638275623,0.008550927974283695
1772018056726263800,0.549263916015625,-0.011292440816760063,0.004716899245977402,-0.017234863713383675
1772018056746230800,0.569230712890625,-0.011154495179653168,-0.006356710568070412,-0.0047724684700369835
1772018056766198800,0.58919873046875,-0.0013335435651242733,-0.014073912054300308,0.014032909646630287
1772018056786165800,0.609165771484375,-0.005159466527402401,0.006458580493927002,0.005923319607973099
1772018056806132700,0.6291328125,-0.0036430307663977146,-0.0008450066670775414,-0.0071047330275177956
1772018056826100000,0.649099853515625,-0.00880345143377781,-0.010716917924582958,-0.008397163823246956
1772018056846068000,0.66906787109375,-0.006886742077767849,-0.0062458710744977,-0.0050568957813084126
1772018056866034700,0.68903466796875,-0.00480416277423501,-0.008894224651157856,-0.007771455217152834
1772018056886002000,0.709001953125,-0.012913240119814873,0.010135100223124027,-0.014910191297531128
1772018056905969000,0.728968994140625,-0.011574501171708107,0.0037923837080597878,-0.012080714106559753
1772018056925935900,0.748935791015625,-0.008056985214352608,-0.00017934851348400116,-0.0007593504851683974
1772018056945903900,0.76890380859375,-0.004068109206855297,-0.0048501864075660706,0.008770638145506382
1772018056965870800,0.788870849609375,-0.005191430449485779,0.004889792762696743,0.021505873650312424
1772018056985837800,0.808837890625,-0.012078034691512585,0.01223878376185894,0.004380680620670319
1772018057005804800,0.8288046875,-0.010542558506131172,-0.004171666223555803,-0.01548409927636385
1772018057025772800,0.848772705078125,0.003499535843729973,-0.02617499604821205,-0.009958175010979176
1772018057045739800,0.86873974609375,0.00020492682233452797,-0.0043648784048855305,0.010389440692961216
1772018057065706800,0.888706787109375,-0.007068178616464138,-0.0023196768015623093,0.0056783100590109825
1772018057085673700,0.908673828125,-0.006410700734704733,0.006374663673341274,-0.005897782742977142
1772018057105641000,0.928640869140625,-0.006324165966361761,0.001954055391252041,-0.009881471283733845
1772018057125609000,0.94860888671875,-0.008481239899992943,-0.003649553284049034,-0.010476426221430302
1772018057145575700,0.96857568359375,-0.00595046253874898,-0.004631673917174339,0.0030548304785043
1772018057165543000,0.98854296875,-0.007275955285876989,-0.005102573893964291,0.008578760549426079
1772018057185510000,1.008510009765625,0.0022800180595368147,-0.003180278465151787,0.009673718363046646
1772018057205476900,1.028476806640625,0.00291815516538918,0.009247071109712124,0.006451956927776337
1772018057225444900,1.04844482421875,-0.0018033003434538841,0.010135232470929623,0.0016846300568431616
1772018057245411800,1.068411865234375,-0.005439922213554382,-0.001617135014384985,0.0012204444501549006
1772018057265378800,1.08837890625,0.00009940331801772118,0.008833481930196285,0.01617729291319847
1772018057285345800,1.108345703125,0.003120865672826767,0.0017188182100653648,0.01588021218776703
1772018057305312800,1.128312744140625,0.0013756086118519306,0.00410985853523016,0.01873326115310192
1772018057325281000,1.148281005859375,-0.0009892093949019909,0.002661284990608692,0.0009658446069806814
1772018057345247700,1.168247802734375,-0.0031636678613722324,-0.0013266922906041145,-0.017153505235910416
1772018057365214700,1.188214599609375,0.0007684389129281044,-0.0007414878346025944,-0.004702691920101643
1772018057385182000,1.208181884765625,0.0019104084931313992,0.007886807434260845,0.00393087649717927
1772018057405149700,1.228149658203125,0.006090234033763409,0.007499664090573788,0.008870640769600868
1772018057425116700,1.24811669921875,0.007717704400420189,0.009371972642838955,0.014081647619605064
1772018057445084000,1.268083984375,0.0032979280222207308,0.021885555237531662,0.006719738245010376
1772018057465050600,1.288050537109375,0.003965557552874088,0.026532292366027832,-0.006113767623901367
1772018057485017900,1.308017822265625,0.00884561613202095,0.005346602760255337,0.0026662712916731834
1772018057504985900,1.32798583984375,0.01218344084918499,-0.0052315546199679375,0.015299118123948574
1772018057524953000,1.347953125,0.007154667750000954,0.0115720359608531,0.010260945186018944
1772018057544920300,1.36792041015625,0.0049830712378025055,0.019011229276657104,-0.0034992052242159843
1772018057564887000,1.387886962890625,0.008039934560656548,0.006599249318242073,-0.018486415967345238
1772018057584854000,1.40785400390625,0.010458027943968773,0.039372559636831284,-0.011868590489029884
1772018057604822300,1.427822265625,0.010670846328139305,0.03278696537017822,-0.00445634825155139
1772018057624789200,1.447789306640625,0.010366300120949745,0.008471549488604069,0.0031741491984575987
1772018057644756000,1.467755859375,0.012158462777733803,-0.011647558771073818,0.01736772619187832
1772018057664723200,1.48772314453125,0.012672743760049343,0.004781428724527359,0.023365428671240807
1772018057684690200,1.507690185546875,0.00916128046810627,0.013145136646926403,0.02021784335374832
1772018057704658000,1.527657958984375,0.007162353955209255,0.007372709922492504,0.011878285557031631
1772018057724625200,1.547625244140625,0.006496570073068142,-0.01164953038096428,0.013826520182192326
1772018057744592100,1.567592041015625,0.0020109834149479866,-0.005283458158373833,0.012301063165068626
1772018057764559000,1.58755908203125,0.003289108397439122,0.0039053549990057945,-0.01133396290242672
1772018057784526000,1.607526123046875,0.004916238132864237,0.005904321558773518,-0.02354881353676319
1772018057804494000,1.627494140625,0.003987048752605915,0.01022838894277811,-0.007142676040530205
1772018057824461300,1.64746142578125,-0.00022125989198684692,0.007992693223059177,-0.00011925527360290289
1772018057844428000,1.667427978515625,0.00375972012989223,-0.0011782199144363403,-0.009736998938024044
1772018057864395300,1.687395263671875,0.0053843301720917225,0.011468857526779175,-0.014225747436285019
1772018057884362200,1.7073623046875,0.009787499904632568,0.02078085020184517,-0.0027663076762109995
1772018057904330200,1.727330322265625,0.013521989807486534,0.015486483462154865,-0.0000906265340745449
1772018057924297200,1.747297119140625,0.012615139596164227,0.03339599817991257,-0.020571796223521233
1772018057944264200,1.76726416015625,0.009973369538784027,0.03302630037069321,-0.02635831944644451
1772018057964231200,1.787231201171875,0.010735232383012772,0.018524933606386185,-0.01571405865252018
1772018057984198100,1.8071982421875,0.01977691799402237,-0.0033503766171634197,-0.011594148352742195
1772018058004166100,1.827166259765625,0.0210406631231308,0.00809653103351593,-0.017610233277082443
1772018058024133000,1.847133056640625,0.02487095817923546,0.024141086265444756,-0.021598709747195244
1772018058044100000,1.86710009765625,0.020416591316461563,0.03459431603550911,-0.001998378662392497
1772018058064067000,1.887067138671875,0.014781665056943893,0.0514061339199543,0.0064927078783512115
1772018058084034300,1.907034423828125,0.014229008927941322,0.017346806824207306,-0.012539037503302097
1772018058104002300,1.927002197265625,0.01665039174258709,-0.0022132592275738716,-0.017629938200116158
1772018058123969000,1.946968994140625,0.022146370261907578,-0.015887152403593063,0.002865482121706009
1772018058143936300,1.966936279296875,0.027305742725729942,-0.005718004424124956,0.024593813344836235
1772018058163903200,1.9869033203125,0.027036720886826515,0.029554259032011032,0.024338284507393837
1772018058183870000,2.006869873046875,0.017784358933568,0.029990563169121742,0.003802516497671604
1772018058203838200,2.026838134765625,0.013811511918902397,0.015274284407496452,-0.011479103937745094
1772018058223805200,2.04680517578125,0.008567964658141136,0.010835697874426842,-0.009014345705509186
1772018058243772000,2.06677197265625,0.002680056029930711,0.023277826607227325,0.0009549271780997515
1772018058263739100,2.0867392578125,-0.0012137829326093197,0.004096277058124542,-0.0037478141020983458
1772018058283706000,2.1067060546875,-0.004667141009122133,-0.01434776559472084,-0.006702589802443981
1772018058303674000,2.126674072265625,-0.005778205115348101,-0.006718421820551157,-0.01681048423051834
1772018058323641000,2.14664111328125,-0.008663498796522617,0.0021784529089927673,-0.0010179379023611546
1772018058343608000,2.166608154296875,-0.009115751832723618,0.010499069467186928,0.031447332352399826
1772018058363575300,2.1865751953125,-0.005650144536048174,0.01444300077855587,0.04187653586268425
1772018058383542000,2.2065419921875,-0.008906571194529533,0.005826293490827084,0.021909212693572044
1772018058403510000,2.226510009765625,-0.005814733915030956,0.007288497872650623,0.02029201202094555
1772018058423477200,2.246477294921875,-0.006975327618420124,0.006493652239441872,0.02855047397315502
1772018058443444200,2.2664443359375,-0.012631106190383434,0.011147311888635159,0.017003275454044342
1772018058463411200,2.2864111328125,-0.02406248450279236,-0.0021071890369057655,0.003348984057083726
1772018058483378200,2.306378173828125,-0.023292817175388336,-0.0026527633890509605,0.0028959789779037237
1772018058503345200,2.32634521484375,-0.01697741448879242,-0.006871771067380905,0.02165142446756363
1772018058523313200,2.346313232421875,-0.015272919088602066,0.0003985026851296425,0.03258715942502022
1772018058543280000,2.366280029296875,-0.013556265272200108,0.01617823913693428,0.022199898958206177
1772018058563247000,2.3862470703125,-0.018148371949791908,0.018365997821092606,-0.006190860643982887
1772018058583214000,2.406214111328125,-0.024402067065238953,-0.013102984987199306,-0.013039441779255867
1772018058603181000,2.42618115234375,-0.02142995595932007,-0.020952701568603516,0.010791853070259094
1772018058623149000,2.446149169921875,-0.01791159249842167,0.004696737974882126,0.04840740188956261
1772018058643116300,2.4661162109375,-0.018467677757143974,0.021302849054336548,0.0701218917965889
1772018058663083000,2.4860830078125,-0.016690079122781754,0.006900470703840256,0.04942140728235245
1772018058683050200,2.50605029296875,-0.0231173038482666,-0.0025155027396976948,0.016921516507864
1772018058703017200,2.526017333984375,-0.019057627767324448,0.007490893825888634,0.006388983689248562
1772018058722985000,2.54598486328125,-0.01369945053011179,0.002975752577185631,0.01339268870651722
1772018058742952200,2.5659521484375,-0.011726679280400276,-0.0013902904465794563,0.022478334605693817
1772018058762919200,2.585919189453125,-0.0028546908870339394,-0.012845003977417946,0.015051447786390781
1772018058782886100,2.60588623046875,-0.002041592262685299,-0.01591850072145462,-0.011684294790029526
1772018058802853000,2.62585302734375,-0.0034091253764927387,-0.02060779556632042,-0.04323503002524376
1772018058822820000,2.645820068359375,-0.008163690567016602,-0.02192707359790802,-0.030982358381152153
1772018058842788000,2.6657880859375,-0.006440364755690098,0.006053773686289787,0.009975595399737358
1772018058862755000,2.685755126953125,-0.007874216884374619,0.013736005872488022,0.04866506904363632
1772018058882722000,2.70572216796875,-0.012650620192289352,0.012938707135617733,0.04551881179213524
1772018058902689300,2.725689208984375,-0.014178978279232979,0.003557327203452587,0.02594098076224327
1772018058922656000,2.745656005859375,-0.013549127615988255,-0.007342351600527763,-0.0014746664091944695
1772018058942624000,2.7656240234375,-0.008753350004553795,-0.019078614190220833,-0.0062812697142362595
1772018058962591200,2.78559130859375,-0.0046877567656338215,-0.00752251734957099,0.008376235142350197
1772018058982558200,2.80555810546875,-0.007315703667700291,0.0026331860572099686,0.012260451912879944
1772018059002525200,2.825525146484375,0.0013984744437038898,-0.011264890432357788,-0.0028455331921577454
1772018059022492200,2.8454921875,0.007184621877968311,0.0004799356684088707,-0.01483441237360239
1772018059042460200,2.865460205078125,-0.0041065881960093975,0.007818813435733318,-0.01902436837553978
1772018059062427100,2.88542724609375,-0.012690815143287182,-0.004374741110950708,-0.011778168380260468
1772018059082394000,2.90539404296875,-0.003349281381815672,-0.011393291875720024,0.007107640616595745
1772018059102361000,2.925361083984375,0.0022098664194345474,-0.015914347022771835,0.017154810950160027
1772018059122328000,2.945328125,0.0046484749764204025,0.0019723428413271904,0.004355661571025848
1772018059142295000,2.965294921875,-0.0020051426254212856,0.02943241223692894,-0.0033017266541719437
1772018059162263000,2.985262939453125,-0.0006115222349762917,0.013865062035620213,0.005240895785391331
1772018059182230300,3.005230224609375,0.010422231629490852,-0.0016882233321666718,0.017924733459949493
1772018059202197000,3.025197021484375,0.014329882338643074,-0.004565423354506493,0.021620800718665123
1772018059222164200,3.045164306640625,0.008446711115539074,-0.00125934649258852,0.009098482318222523
1772018059242131200,3.065131103515625,0.006222651805728674,-0.011234567500650883,0.01258283294737339
1772018059262099000,3.085098876953125,0.005418425425887108,-0.012565983459353447,0.01731686480343342
1772018059282066200,3.105066162109375,0.0037475156132131815,-0.010448215529322624,0.009231377393007278
1772018059302033200,3.125033203125,0.005123631097376347,0.007689515128731728,0.00929395854473114
1772018059322000100,3.145000244140625,0.006224327255040407,0.0017390549182891846,0.012983234599232674
1772018059341967000,3.164967041015625,0.005004214122891426,-0.0071828123182058334,0.005743439309298992
1772018059361934000,3.18493408203125,0.005212799180299044,-0.0031680907122790813,-0.0011064816499128938
1772018059381902300,3.20490234375,0.00452994043007493,0.008265442214906216,0.015581153333187103
1772018059401869000,3.224869140625,0.007577455602586269,-0.002383733168244362,0.03619108721613884
1772018059421836000,3.2448359375,0.008652876131236553,-0.006869771052151918,0.03131670132279396
1772018059441803300,3.26480322265625,0.005150481127202511,0.0035867514088749886,0.006214547902345657
1772018059461770000,3.28477001953125,-0.0048521035350859165,0.009637692011892796,-0.0021151527762413025
1772018059481737200,3.3047373046875,0.003370968857780099,-0.002141334116458893,0.013700692914426327
1772018059501705200,3.324705322265625,0.006065579131245613,0.013288702815771103,0.019690407440066338
1772018059521671400,3.34467138671875,0.0010910185519605875,0.02114398591220379,0.008192877285182476
1772018059541638700,3.364638671875,0.004054075572639704,-0.008209426887333393,-0.003910924308001995
1772018059561605600,3.384605712890625,0.007173127494752407,-0.013025464490056038,0.0010677245445549488
1772018059581572600,3.404572509765625,0.012767340056598186,-0.009825891815125942,0.007932290434837341
1772018059601540600,3.42454052734375,0.01517647784203291,0.003466188907623291,0.019515573978424072
1772018059621507600,3.444507568359375,0.015303486958146095,-0.000013447366654872894,0.012016646564006805
1772018059641474800,3.464474853515625,0.01036385539919138,0.015487749129533768,0.005982722155749798
1772018059661441500,3.484441650390625,0.009330010041594505,0.013826016336679459,-0.005038104020059109
1772018059681408800,3.50440869140625,0.006358165293931961,0.008585764095187187,-0.004096674732863903
1772018059701375700,3.524375732421875,0.010053040459752083,-0.01085086353123188,0.0014819814823567867
1772018059721343700,3.54434375,0.008119603618979454,-0.017127638682723045,0.004914927762001753
1772018059741310700,3.564310791015625,0.007342487573623657,-0.005326027981936932,0.005513740237802267
1772018059761277700,3.584277587890625,0.012189682573080063,0.011612792499363422,0.0017557551618665457
1772018059781244700,3.60424462890625,0.01005650870501995,0.006129106506705284,0.00810539536178112
1772018059801211600,3.624211669921875,0.011043216101825237,-0.005564380437135696,0.002815957646816969
1772018059821178600,3.6441787109375,0.006315317936241627,-0.01500810869038105,0.006580601446330547
1772018059841146600,3.664146728515625,0.006985665298998356,0.0030554505065083504,0.013021321967244148
1772018059861113600,3.684113525390625,0.0018620218615978956,0.0276154987514019,0.01821075566112995
1772018059881080600,3.70408056640625,0.003466025460511446,0.01855805702507496,0.004596545360982418
1772018059901047800,3.7240478515625,0.006064696237444878,-0.005249516107141972,-0.0033371420577168465
1772018059921014500,3.7440146484375,0.004300867207348347,-0.0011623911559581757,0.014019344933331013
1772018059940981500,3.7639814453125,0.003140800166875124,0.0026293378323316574,0.02068723365664482
1772018059960949800,3.78394970703125,0.0017791676800698042,-0.0016525136306881905,0.012900548055768013
1772018059980916700,3.803916748046875,0.00035963114351034164,-0.00046113133430480957,0.009099956601858139
1772018060000883500,3.823883544921875,-0.0051261126063764095,-0.015685105696320534,0.01248709112405777
1772018060020850700,3.8438505859375,-0.0075690364465117455,-0.024586642161011696,0.016400739550590515
1772018060040817700,3.863817626953125,-0.007385917939245701,-0.025795890018343925,0.017122462391853333
1772018060060784600,3.88378466796875,-0.005812736228108406,-0.02559659816324711,0.01719716191291809
1772018060080752600,3.903752685546875,-0.006290535908192396,-0.0014637038111686707,0.01892036199569702
1772018060100719600,3.9237197265625,-0.004917989484965801,0.008891298435628414,0.005399762652814388
1772018060120686600,3.9436865234375,-0.00711963651701808,0.0032109348103404045,-0.0117680374532938
1772018060140653600,3.963653564453125,-0.013734367676079273,-0.009575562551617622,-0.003606383455917239
1772018060160620800,3.983620849609375,-0.0068285358138382435,-0.00823876541107893,0.028477251529693604
1772018060180587500,4.00358740234375,-0.004823134746402502,-0.014891894534230232,0.01862129010260105
1772018060200555500,4.023555419921875,-0.001535467803478241,-0.022011244669556618,-0.009816344827413559
1772018060220522800,4.043522705078125,-0.005436472129076719,-0.0003087986260652542,-0.01959400624036789
1772018060240489700,4.06348974609375,-0.007340093608945608,0.00006902404129505157,-0.01343611255288124
1772018060260456400,4.08345654296875,-0.0002568722702562809,-0.010865806601941586,-0.005139834247529507
1772018060280423700,4.103423583984375,0.002013217657804489,-0.011988753452897072,0.005654223263263702
1772018060300390700,4.123390625,0.0011385248508304358,-0.0006565675139427185,0.016835646703839302
1772018060320358700,4.143358642578125,0.0003343140706419945,0.014969195239245892,0.01211372297257185
1772018060340325600,4.16332568359375,-0.0018851645290851593,0.001234740950167179,-0.008472511544823647
1772018060360292600,4.183292724609375,-0.003222881816327572,0.004626433365046978,-0.018882274627685547
1772018060380259800,4.203259765625,0.0020897542126476765,0.0055458443239331245,-0.01115110982209444
1772018060400226600,4.2232265625,-0.004298781976103783,0.01437230035662651,-0.0069144293665885925
1772018060420193800,4.24319384765625,-0.00029235100373625755,-0.009663663804531097,-0.001995169324800372
1772018060440160800,4.263160888671875,0.007933087646961212,-0.013188891112804413,-0.006337187252938747
1772018060460128500,4.28312841796875,0.010293163359165192,0.005447614938020706,-0.0076369415037333965
1772018060480095700,4.303095703125,0.008425217121839523,-0.0027234177105128765,-0.007467164658010006
1772018060500062700,4.323062744140625,0.0016057363245636225,0.012543458491563797,-0.005767407827079296
1772018060520029700,4.34302978515625,0.0068223364651203156,0.0033377092331647873,0.00004574039485305548
1772018060539997000,4.362996826171875,0.005013186484575272,0.006008396856486797,0.0035047917626798153
1772018060559964000,4.3829638671875,-0.00007687276229262352,0.012373864650726318,0.011018232442438602
1772018060579932000,4.402931884765625,-0.0037688352167606354,0.010176540352404118,0.007576365023851395
1772018060599899000,4.42289892578125,-0.001364528201520443,0.0050139231607317924,-0.005323855206370354
1772018060619865900,4.442865966796875,0.004053713753819466,0.00021861493587493896,-0.016677578911185265
1772018060639833000,4.4628330078125,0.007101631723344326,0.00487104058265686,-0.0006267026183195412
1772018060659799800,4.4827998046875,0.0006187804974615574,-0.0009248373098671436,0.00994524173438549
1772018060679766800,4.502766845703125,-0.0005732621066272259,-0.01093310583382845,0.0038798933383077383
1772018060699734000,4.522734130859375,-0.008213107474148273,-0.008179455995559692,-0.013834918849170208
1772018060719702000,4.542701904296875,-0.0035802610218524933,0.002974504604935646,-0.014005095697939396
1772018060739668700,4.562668701171875,-0.0031648133881390095,0.002208125777542591,-0.006942525506019592
1772018060759636000,4.582635986328125,-0.00048782723024487495,0.0004731258377432823,0.002848854288458824
1772018060779603000,4.60260302734375,-0.002119077369570732,0.005261823534965515,0.0005426954012364149
1772018060799570000,4.62256982421875,-0.0023621534928679466,0.0245424285531044,-0.003060567192733288
1772018060819537000,4.642536865234375,-0.001321396790444851,0.01414526253938675,0.005798571277409792
1772018060839505000,4.6625048828125,0.0005838354118168354,-0.001370393205434084,0.006396584212779999
1772018060859472000,4.682471923828125,0.0032709871884435415,-0.018338507041335106,0.010437396354973316
1772018060879438800,4.70243896484375,-0.0035803192295134068,0.008459807373583317,0.009110081940889359
1772018060899406000,4.722406005859375,-0.006701474543660879,0.019239868968725204,-0.010863099247217178
1772018060919372800,4.742372802734375,-0.0010023675858974457,-0.0019463859498500824,-0.024846022948622704
1772018060939339800,4.76233984375,-0.008011801168322563,-0.0035893688909709454,-0.026579074561595917
1772018060959307000,4.78230712890625,-0.010157840326428413,0.004716832190752029,-0.01482108049094677
1772018060979275000,4.80227490234375,-0.010458232834935188,-0.00987345352768898,0.006008300930261612
1772018060999241700,4.82224169921875,-0.0025933105498552322,-0.009875277057290077,0.008043881505727768
1772018061019209000,4.842208984375,-0.0046950653195381165,-0.028171084821224213,-0.0023048967123031616
1772018061039176000,4.862176025390625,0.003413211554288864,-0.04323789104819298,-0.005854492075741291
1772018061059143000,4.882142822265625,0.006505089811980724,-0.04610700160264969,0.0026842718943953514
1772018061079110000,4.90210986328125,0.0006602904759347439,-0.03370734304189682,0.016589298844337463
1772018061099076900,4.922076904296875,-0.006772851571440697,0.0018902523443102837,0.015986226499080658
1772018061119044900,4.942044921875,-0.01581437699496746,-0.002066208515316248,0.0037295662332326174
1772018061139011800,4.96201171875,-0.020520158112049103,-0.014180444180965424,-0.007328679319471121
1772018061158978800,4.981978759765625,-0.028203686699271202,-0.019245225936174393,-0.02505107969045639
1772018061178945800,5.00194580078125,-0.0290015060454607,-0.02187303453683853,-0.03696220740675926
1772018061198912800,5.021912841796875,-0.024880629032850266,-0.00700939167290926,-0.017689036205410957
1772018061218880000,5.0418798828125,-0.01985863596200943,-0.00684894947335124,0.009851239621639252
1772018061238846700,5.0618466796875,-0.021900562569499016,-0.01225006952881813,0.005978744477033615
1772018061258814700,5.081814697265625,-0.02146664261817932,-0.00837323535233736,-0.017445096746087074
1772018061278782000,5.101781982421875,-0.018356891348958015,-0.007502598222345114,-0.01855163834989071
1772018061298749000,5.1217490234375,-0.01779075339436531,0.00006068870425224304,-0.002042565029114485
1772018061318716000,5.1417158203125,-0.015077996999025345,-0.010937168262898922,0.01194608211517334
1772018061338683000,5.161682861328125,-0.009863101877272129,-0.017857227474451065,0.0027604498900473118
1772018061358649900,5.18164990234375,-0.011533062905073166,-0.0006200820207595825,-0.017145756632089615
1772018061378616800,5.201616943359375,-0.014154253527522087,-0.013048358261585236,-0.02788427844643593
1772018061398584800,5.221584716796875,-0.015271051786839962,0.0000930633395910263,-0.01706399954855442
1772018061418551800,5.2415517578125,-0.03084707446396351,0.019387584179639816,-0.0004659813130274415
1772018061438519000,5.26151904296875,-0.024986065924167633,-0.013981595635414124,0.02368343621492386
1772018061458485800,5.28148583984375,-0.018512675538659096,-0.032175078988075256,0.0054495674557983875
1772018061478453000,5.301452880859375,-0.016229350119829178,-0.03695051372051239,-0.01268042903393507
1772018061498418000,5.32141796875,-0.005722935311496258,-0.0006316062062978745,0.009886667132377625
1772018061518386000,5.341385986328125,-0.006393485236912966,0.015017722733318806,0.02098672091960907
1772018061538352600,5.3613525390625,-0.003119366243481636,0.014495347626507282,0.0025529826525598764
1772018061558319600,5.381319580078125,-0.0024613216519355774,-0.007943864911794662,-0.014959962107241154
1772018061578286600,5.40128662109375,0.002499563619494438,-0.004700758028775454,-0.018012871965765953
1772018061598253800,5.42125390625,0.005958261899650097,-0.00594756007194519,-0.0013165883719921112
1772018061618220500,5.441220458984375,0.008450135588645935,-0.011233570985496044,0.0191508736461401
1772018061638187500,5.4611875,0.005795849021524191,-0.011857399716973305,0.005161413922905922
1772018061658155800,5.48115576171875,0.005468812771141529,-0.010223283432424068,-0.02403588593006134
1772018061678122800,5.501122802734375,0.00964624248445034,-0.01409224420785904,-0.028139417991042137
1772018061698089500,5.52108935546875,0.014012215659022331,-0.0060330964624881744,-0.004846343770623207
1772018061718056700,5.541056640625,0.02007996290922165,-0.006649352144449949,0.011989894323050976
1772018061738023700,5.561023681640625,0.022715404629707336,-0.021665003150701523,0.0036731103900820017
1772018061757990700,5.58099072265625,0.024558521807193756,-0.034113429486751556,-0.005877246614545584
1772018061777957600,5.60095751953125,0.01990736648440361,-0.02412443235516548,0.009007155895233154
1772018061797924900,5.6209248046875,0.015384480357170105,-0.016961045563220978,0.007341218646615744
1772018061817892600,5.640892578125,0.011228084564208984,-0.0034910421818494797,-0.0007340182783082128
1772018061837859600,5.660859619140625,0.006275670602917671,0.005963445641100407,0.010142331942915916
1772018061857826800,5.680826904296875,0.01688305288553238,-0.00427310261875391,0.016036439687013626
1772018061877796600,5.700796630859375,0.017202898859977722,-0.004056587815284729,-0.035489339381456375
1772018061897763800,5.720763916015625,0.007820837199687958,-0.007488713134080172,-0.059119563549757004
1772018061917730600,5.74073046875,0.007555071264505386,-0.020468927919864655,-0.008059976622462273
1772018061937697500,5.760697509765625,0.014033743180334568,-0.013668280094861984,0.04291745275259018
1772018061957664800,5.780664794921875,0.016262248158454895,-0.009360491298139095,0.0503840297460556
1772018061977631500,5.800631591796875,0.008994979783892632,0.011414234526455402,0.012736254371702671
1772018061997599500,5.820599609375,0.008229371160268784,0.0100625054910779,-0.03975611925125122
1772018062017566700,5.840566650390625,0.003350720973685384,0.015585181303322315,-0.05023712292313576
1772018062037533700,5.86053369140625,0.006880208384245634,0.012496712617576122,-0.026270005851984024
1772018062057500700,5.880500732421875,0.007853345014154911,0.013118592090904713,0.00328455725684762
1772018062077467600,5.900467529296875,0.003499637357890606,0.009554356336593628,0.013591654598712921
1772018062097435000,5.920434814453125,0.010656321421265602,0.008626638911664486,0.004521861672401428
1772018062117401600,5.940401611328125,0.011496786959469318,0.010354890488088131,-0.0021697278134524822
1772018062137369600,5.96036962890625,0.01303954515606165,0.0019908566027879715,0.006645069923251867
1772018062157336800,5.9803369140625,0.01571362465620041,0.00851267296820879,0.017980283126235008
1772018062177303600,6.000303466796875,0.015299810096621513,0.008580832742154598,0.014450658112764359
1772018062197270500,6.0202705078125,0.016381602734327316,0.0144387511536479,0.012301086448132992
1772018062217237800,6.04023779296875,0.01777562126517296,0.016646958887577057,0.00567515566945076
1772018062237204500,6.06020458984375,0.013898164965212345,0.011275999248027802,-0.0001495870528742671
1772018062257171700,6.080171630859375,0.013934616930782795,0.011510295793414116,0.01285037025809288
1772018062277138700,6.100138671875,0.007360042072832584,0.02178889513015747,0.01333786454051733
1772018062297106700,6.120106689453125,0.004898312501609325,0.026798024773597717,-0.011562034487724304
1772018062317073700,6.14007373046875,-0.001715466845780611,0.007005528546869755,-0.030420802533626556
1772018062337040600,6.16004052734375,0.004172510467469692,0.010872251354157925,-0.008836014196276665
1772018062357007600,6.180007568359375,0.0033986521884799004,0.024914845824241638,0.00769555289298296
1772018062376974600,6.199974609375,-0.004154599271714687,-0.002659070771187544,0.012743441388010979
1772018062396941600,6.219941650390625,-0.0005031786859035492,-0.011249078437685966,0.01188603974878788
1772018062416908800,6.23990869140625,-0.0016893455758690834,0.0028671957552433014,0.006120162084698677
1772018062436875500,6.25987548828125,0.0039446004666388035,0.010343359783291817,0.010334212332963943
1772018062456842800,6.2798427734375,0.0014294602442532778,0.011488694697618484,0.025618499144911766
1772018062476810800,6.299810791015625,0.0023239937145262957,0.00559436809271574,0.033089734613895416
1772018062496777500,6.319777587890625,0.0009379370603710413,0.006017490290105343,0.008003676310181618
1772018062516744700,6.33974462890625,-0.004456103313714266,-0.0057790232822299,-0.01647968962788582
1772018062536711200,6.359711181640625,-0.00815943256020546,-0.0023694452829658985,-0.01262117363512516
1772018062556678400,6.379678466796875,-0.008092638105154037,-0.005873191170394421,0.009706906974315643
1772018062576645400,6.399645263671875,-0.007141346111893654,-0.00641104020178318,0.017607172951102257
1772018062596612000,6.419612060546875,-0.006451853550970554,0.00478142686188221,0.010337808169424534
1772018062616579300,6.439579345703125,-0.010316144675016403,0.013838933780789375,-0.005253131501376629
1772018062636547300,6.45954736328125,-0.010736358352005482,0.017971154302358627,-0.02533576637506485
1772018062656514000,6.47951416015625,-0.00874033011496067,-0.007228049449622631,-0.004236072301864624
1772018062676481300,6.499481201171875,-0.00314528401941061,-0.01788351498544216,0.04397806152701378
1772018062696448300,6.5194482421875,-0.00636794650927186,0.005416620522737503,0.03799806162714958
1772018062716415200,6.539415283203125,-0.010407747700810432,0.009050945751369,-0.0001782124163582921
1772018062736382200,6.55938232421875,-0.006535849999636412,-0.0153399258852005,0.0001859818585216999
1772018062756349400,6.579349365234375,-0.0021156659349799156,0.0068606967106461525,0.020853163674473763
1772018062776316200,6.599316162109375,-0.010886400938034058,0.01832578331232071,0.02766820788383484
1772018062796284200,6.6192841796875,-0.007047975901514292,-0.004019360989332199,0.006788224913179874
1772018062816251400,6.63925146484375,-0.0035381168127059937,0.009405333548784256,-0.011193180456757545
1772018062836218400,6.65921826171875,-0.012167846783995628,0.01912032812833786,-0.021230898797512054
1772018062856185000,6.67918505859375,-0.011609290726482868,0.005806192755699158,-0.00621067825704813
1772018062876152300,6.69915234375,-0.007206921931356192,-0.01045418530702591,0.0037114699371159077
1772018062896119300,6.719119384765625,-0.003791512455791235,-0.006714837625622749,-0.0007206864538602531
1772018062916086300,6.739086181640625,-0.0031477371230721474,0.0010771146044135094,0.0015595033764839172
1772018062936053200,6.75905322265625,0.00047818454913794994,0.00021359138190746307,0.017950057983398438
1772018062956020500,6.7790205078125,-0.006099012680351734,-0.00017032865434885025,0.006515243090689182
1772018062975988200,6.79898828125,-0.005871318746358156,-0.0016632177866995335,-0.020442206412553787
1772018062995955200,6.818955078125,-0.001479488331824541,0.0019041961058974266,-0.013125704601407051
1772018063015922400,6.83892236328125,-0.0022897059097886086,0.0026816846802830696,0.00016520917415618896
1772018063035889200,6.85888916015625,-0.0050038984045386314,0.01658916100859642,0.0028834878467023373
1772018063055856000,6.878856201171875,-0.0034923055209219456,0.0026501473039388657,-0.0067535582929849625
1772018063075823400,6.8988232421875,0.003613218665122986,-0.002528915647417307,-0.015473274514079094
1772018063095790000,6.9187900390625,-0.00014794711023569107,-0.0011767977848649025,-0.008910048753023148
1772018063115757300,6.93875732421875,0.0026563392020761967,-0.0062865568324923515,-0.015794584527611732
1772018063135724300,6.958724365234375,-0.00004381733015179634,0.007080866023898125,-0.021487627178430557
1772018063155692300,6.9786923828125,0.0036571379750967026,0.017153754830360413,-0.012105172500014305
1772018063175659300,6.9986591796875,-0.005376514513045549,0.013878349214792252,-0.015297243371605873
1772018063195626200,7.018626220703125,-0.0030848863534629345,0.004253732971847057,-0.01773243583738804
1772018063215593200,7.03859326171875,-0.0049866498447954655,-0.00468090595677495,-0.0054432787001132965
1772018063235560200,7.058560302734375,-0.0051999748684465885,0.0015427134931087494,0.013839472085237503
1772018063255527200,7.078527099609375,-0.0074247741140425205,-0.0031935307197272778,0.02528773620724678
1772018063275494400,7.098494384765625,-0.002501710783690214,0.0025245286524295807,0.01688067428767681
1772018063295461000,7.118461181640625,-0.0089766476303339,0.013554995879530907,-0.0019413502886891365
1772018063315428400,7.138428466796875,-0.011390464380383492,0.006881425157189369,-0.008506182581186295
1772018063335395300,7.158395263671875,-0.012204892933368683,-0.0007328796200454235,-0.010202879086136818
1772018063355363300,7.17836328125,-0.0021457993425428867,-0.017468862235546112,0.0012455112300813198
1772018063375330300,7.198330322265625,-0.006333698984235525,-0.004075522068887949,0.019706817343831062
1772018063395297300,7.21829736328125,-0.008730016648769379,0.003758776932954788,0.013334007002413273
1772018063415264300,7.23826416015625,-0.013131434097886086,0.001656102016568184,-0.0005474527133628726
1772018063435231200,7.258231201171875,-0.009018421173095703,-0.012681151740252972,0.00828824657946825
1772018063455198200,7.2781982421875,-0.004148003179579973,0.00008298736065626144,0.004828665405511856
1772018063475165400,7.29816552734375,-0.0051877968944609165,-0.006225772202014923,-0.007994579151272774
1772018063495132200,7.318132080078125,-0.010661625303328037,-0.012327546253800392,-0.007640115916728973
1772018063515099400,7.338099365234375,-0.011706937104463577,-0.00631088437512517,-0.00017367536202073097
1772018063535067400,7.3580673828125,-0.01493009366095066,0.0010294439271092415,-0.0009159048786386847
1772018063555034400,7.378034423828125,-0.010201917961239815,-0.0006901593878865242,-0.01664559915661812
1772018063575001600,7.398001708984375,-0.0072078160010278225,-0.005791519768536091,-0.012770690955221653
1772018063594968300,7.41796826171875,-0.0030851694755256176,0.003963683731853962,0.008721677586436272
1772018063614935300,7.437935302734375,-0.0023988671600818634,0.004236312583088875,0.020090576261281967
1772018063634902500,7.457902587890625,-0.00031259749084711075,0.016586363315582275,0.0034986899700015783
1772018063654869200,7.477869140625,-0.0006452319212257862,0.005009414628148079,-0.014913738705217838
1772018063674836500,7.49783642578125,0.008109372109174728,-0.01482999138534069,-0.006167251616716385
1772018063694803500,7.517803466796875,0.008174669928848743,0.0065339794382452965,0.0055678291246294975
1772018063714770400,7.5377705078125,0.004495756234973669,0.01922212541103363,-0.007673938293009996
1772018063734738400,7.557738525390625,0.00716947577893734,0.0010324707254767418,-0.02357046864926815
1772018063754705400,7.577705322265625,0.006433478556573391,0.01507976558059454,-0.00903814285993576
1772018063774672400,7.59767236328125,0.006184927653521299,0.015760768204927444,0.0015173039864748716
1772018063794639400,7.617639404296875,0.005265931133180857,0.0013993429020047188,-0.0035654783714562654
1772018063814606300,7.6376064453125,0.01116960495710373,-0.016519423574209213,-0.015927603468298912
1772018063834573600,7.657573486328125,0.009148254990577698,0.009464931674301624,-0.011818877421319485
1772018063854540300,7.677540283203125,0.010681441985070705,0.017406931146979332,0.005646531470119953
1772018063874507500,7.697507568359375,0.009898716583848,0.013726755976676941,0.014180900529026985
1772018063894474500,7.717474609375,0.007944216951727867,0.0025697872042655945,0.00434198509901762
1772018063914441500,7.73744140625,0.013382142409682274,0.00041372328996658325,-0.0038476362824440002
1772018063934409500,7.757409423828125,0.011868457309901714,-0.012200858443975449,0.004472605884075165
1772018063954376400,7.77737646484375,0.009586654603481293,-0.011024728417396545,0.016783732920885086
1772018063974343400,7.797343505859375,0.0059326766058802605,-0.03040122613310814,0.031670816242694855
1772018063994310400,7.817310302734375,0.003366298507899046,-0.05157013237476349,0.027620404958724976
1772018064014277400,7.83727734375,0.014572154730558395,-0.033861398696899414,0.030160654336214066
1772018064034244400,7.857244384765625,0.012508409097790718,-0.01669885963201523,0.024921821430325508
1772018064054211300,7.87721142578125,0.007183956913650036,-0.017356205731630325,0.018209990113973618
1772018064074178600,7.897178466796875,0.003445638809353113,-0.01499289833009243,0.012046506628394127
1772018064094145300,7.917145263671875,-0.0030272849835455418,-0.010719353333115578,0.01342230848968029
1772018064114112300,7.9371123046875,0.002239437773823738,-0.014589710161089897,0.004517755936831236
1772018064134080500,7.95708056640625,-0.0022929408587515354,0.00012533459812402725,-0.023422537371516228
1772018064154047500,7.977047607421875,-0.002667930442839861,-0.008327304385602474,-0.029795082286000252
1772018064174014200,7.99701416015625,-0.0083061084151268,0.00619890820235014,-0.010296214371919632
1772018064193981400,8.0169814453125,-0.003788821864873171,-0.002151637803763151,0.014907672069966793
1772018064213948400,8.036948486328125,0.0023939565289765596,-0.005360777489840984,0.012346644885838032
1772018064233915400,8.056915283203125,-0.0019664866849780083,0.007933896034955978,-0.006009054370224476
1772018064253882400,8.07688232421875,-0.008633965626358986,-0.003394283354282379,-0.02201971225440502
1772018064273849600,8.096849609375,-0.00807039625942707,-0.013271510601043701,-0.015215341001749039
1772018064293816300,8.11681640625,-0.0009976346045732498,-0.013117780908942223,-0.000529466662555933
1772018064313783300,8.136783203125,0.003847959451377392,-0.018717218190431595,0.00020490307360887527
1772018064333750500,8.15675048828125,-0.00147648761048913,-0.010669036768376827,-0.009924964047968388
1772018064353717200,8.17671728515625,-0.013788774609565735,0.009008512832224369,-0.011352822184562683
1772018064373685200,8.196685302734375,-0.005530812311917543,-0.0014994600787758827,-0.00421182531863451
1772018064393652500,8.216652587890625,-0.0011746515519917011,-0.0038263904862105846,0.0006909181829541922
1772018064413619200,8.236619140625,-0.004353140480816364,-0.009741459041833878,-0.006600149907171726
1772018064433586400,8.25658642578125,-0.005515681579709053,-0.008673310279846191,-0.011053081601858139
1772018064453553400,8.276553466796875,-0.0076741790398955345,-0.01078272145241499,-0.0020605181343853474
1772018064473520400,8.296520263671875,-0.006662948988378048,-0.01719733700156212,0.013928165659308434
1772018064493487400,8.3164873046875,-0.0028429110534489155,0.00276891328394413,0.00897868163883686
1772018064513454300,8.336454345703125,-0.005397498141974211,0.009345967322587967,-0.009971965104341507
1772018064533421600,8.356421630859375,-0.008010569959878922,-0.0064591411501169205,-0.016938796266913414
1772018064553388500,8.376388427734375,-0.008402841165661812,0.0032828105613589287,0.0061281719245016575
1772018064573355500,8.39635546875,-0.005496023688465357,-0.00564512237906456,0.020001646131277084
1772018064593323500,8.416323486328125,-0.0020399345085024834,0.008052953518927097,0.012180862948298454
1772018064613290500,8.43629052734375,-0.0032330420799553394,-0.00310793099924922,0.0049224188551306725
1772018064633257700,8.4562578125,-0.004013397730886936,-0.000261637382209301,0.006349744275212288
1772018064653224400,8.476224365234375,-0.007812902331352234,0.0005869846791028976,0.002820387715473771
1772018064673191400,8.49619140625,-0.001166734378784895,-0.0007776482962071896,-0.01036452129483223
1772018064693158700,8.51615869140625,-0.006370267830789089,0.008862225338816643,-0.022451147437095642
1772018064713125400,8.53612548828125,-0.003052812535315752,-0.0001106681302189827,-0.00984879769384861
1772018064733092600,8.556092529296874,-0.0010496214963495731,-0.005462805740535259,0.021446146070957184
1772018064753059600,8.5760595703125,0.0023036417551338673,-0.008967292495071888,0.025240076705813408
1772018064773026600,8.596026611328124,0.004948943387717009,-0.0034966575913131237,0.004523747600615025
1772018064792993500,8.61599365234375,0.0031384823378175497,-0.00013671908527612686,0.00032155076041817665
1772018064812960500,8.63596044921875,-0.0006980509497225285,0.014220680110156536,0.013258518651127815
1772018064832928500,8.655928466796874,-0.0008317087776958942,0.016552073881030083,0.012290457263588905
1772018064852895500,8.6758955078125,0.000906242523342371,-0.0023109717294573784,-0.0053656320087611675
1772018064872862500,8.695862548828124,0.004893788602203131,0.005915345624089241,-0.011064929887652397
1772018064892829400,8.715829345703124,0.006788876838982105,0.006446881219744682,-0.0021541237365454435
1772018064912796400,8.73579638671875,0.008025438524782658,0.004294794984161854,0.011135043576359749
1772018064932763600,8.755763671875,0.005136929452419281,0.003667715936899185,0.011102824471890926
1772018064952730400,8.77573046875,0.006026408635079861,0.003313218243420124,0.0039078970439732075
1772018064972697600,8.795697509765626,0.007592108100652695,0.00399992149323225,-0.004465749952942133
1772018064992664600,8.81566455078125,0.007247262634336948,0.001540553756058216,-0.009151319041848183
1772018065012631300,8.83563134765625,0.009822451509535313,-0.014407062903046608,0.0024773834738880396
1772018065032598500,8.8555986328125,0.014385011047124863,-0.0038209366612136364,0.01428849995136261
1772018065052565500,8.8755654296875,0.00882164016366005,0.009007636457681656,0.006827789358794689
1772018065072533500,8.895533447265626,0.006528414785861969,0.018032776191830635,-0.0011752784484997392
1772018065092500500,8.91550048828125,0.009800135158002377,0.0011346256360411644,0.00919999461621046
1772018065112467500,8.935467529296876,0.013013456016778946,-0.015455096028745174,0.02660042978823185
1772018065132434700,8.9554345703125,0.010578272864222527,0.009710021317005157,0.01577361300587654
1772018065152401400,8.9754013671875,0.008066008798778057,0.008698977530002594,-0.007846349850296974
1772018065172368600,8.99536865234375,0.010533098131418228,0.023938413709402084,-0.018830180168151855
1772018065192335600,9.015335693359376,0.004795767366886139,0.019219402223825455,-0.006975776981562376
1772018065212302300,9.03530224609375,0.006994473282247782,-0.006547747179865837,0.0030124085023999214
1772018065232269600,9.05526953125,0.009335679933428764,-0.014547664672136307,-0.004396507516503334
1772018065252236500,9.075236572265625,0.012541798874735832,-0.013712167739868164,-0.015218921937048435
1772018065272203500,9.09520361328125,0.011939093470573425,-0.002831085119396448,-0.006341803818941116
1772018065292170500,9.11517041015625,0.012227563187479973,0.0011469721794128418,0.013318844139575958
1772018065312137700,9.1351376953125,0.006361368577927351,0.006374130956828594,0.010646235197782516
1772018065332105500,9.15510546875,0.006669551134109497,0.004394618794322014,-0.00845449510961771
1772018065352072400,9.175072509765625,0.005800328683108091,0.007989947684109211,-0.01648845709860325
1772018065372039700,9.195039794921875,0.007996299304068089,0.0015663569793105125,0.0011127821635454893
1772018065392006400,9.21500634765625,0.009105034172534943,0.0014935899525880814,0.014640701934695244
1772018065411973400,9.234973388671875,0.004349182825535536,0.001077289693057537,0.002969395602121949
1772018065431940600,9.254940673828125,0.0037302477285265923,-0.011854518204927444,-0.01489921472966671
1772018065451907600,9.274907470703125,0.0008361139334738255,-0.011812674812972546,-0.013526080176234245
1772018065471874600,9.29487451171875,0.004191180691123009,-0.001633242703974247,-0.0011153522646054626
1772018065491838500,9.31483837890625,-0.002227043267339468,-0.008785350248217583,-0.013042984530329704
1772018065511805400,9.334805419921874,-0.0005577187985181808,-0.00581378024071455,-0.0229552760720253
1772018065531772700,9.354772705078124,-0.002409236039966345,0.007341891527175903,-0.01751948706805706
1772018065551739600,9.37473974609375,-0.008629205636680126,0.0027349190786480904,-0.012654704041779041
1772018065571707600,9.394707763671875,-0.0023173405788838863,0.006781062111258507,-0.013023674488067627
1772018065591674600,9.414674560546874,-0.004027057439088821,-0.006215901114046574,-0.007469655945897102
1772018065611641600,9.4346416015625,-0.006288070231676102,0.0031694546341896057,0.006671994924545288
1772018065631608800,9.45460888671875,-0.005383704788982868,0.0007796287536621094,0.011134658940136433
1772018065651575600,9.474575439453124,0.0008353479206562042,-0.0009447839111089706,-0.005219152197241783
1772018065671542500,9.49454248046875,-0.005456636194139719,0.000417955219745636,-0.010922045446932316
1772018065691509800,9.514509765625,-0.009053289890289307,-0.017986901104450226,0.0029663462191820145
1772018065711476500,9.5344765625,-0.0009433445520699024,-0.019697636365890503,0.00862848199903965
1772018065731443700,9.554443603515624,0.0010779232252389193,-0.01955760084092617,0.009343682788312435
1772018065751410700,9.57441064453125,0.0007415278814733028,0.002430272288620472,0.018694179132580757
1772018065771377700,9.594377685546876,-0.0008369055576622486,0.01267646998167038,0.007685201242566109
1772018065791344600,9.6143447265625,-0.007727612275630236,0.012032346799969673,-0.012549757957458496
1772018065811311600,9.6343115234375,-0.007992347702383995,0.011731909587979317,-0.02872513048350811
1772018065831278600,9.654278564453126,-0.011074373498558998,0.025190021842718124,-0.015449943952262402
1772018065851245600,9.67424560546875,-0.005668135359883308,0.006823750212788582,-0.003655605250969529
1772018065871213600,9.694213623046876,-0.0038417289033532143,-0.004335317760705948,-0.0035943537950515747
1772018065891181800,9.714181884765624,-0.0012798062525689602,-0.011511987075209618,-0.005375870503485203
1772018065911149800,9.73414990234375,-0.0020262901671230793,-0.0035430104471743107,-0.004720467142760754
1772018065931116500,9.754116455078124,-0.0018422272987663746,0.013920917175710201,-0.008800567127764225
1772018065951083800,9.774083740234374,0.001240093493834138,0.020611358806490898,-0.012233112938702106
1772018065971050800,9.79405078125,0.004401293117552996,0.0110126668587327,-0.007462196052074432
1772018065991017500,9.814017578125,0.003556543728336692,0.024475403130054474,-0.0008475706563331187
1772018066010984700,9.833984619140624,0.004289157222956419,0.010226204060018063,0.003163418732583523
1772018066030951700,9.85395166015625,-0.001672627404332161,-0.0012864358723163605,0.00499248132109642
1772018066050918700,9.873918701171876,0.0035587071906775236,0.003003994934260845,0.007609027437865734
1772018066070885600,9.8938857421875,0.00388509058393538,0.017413420602679253,-0.016799096018075943
1772018066090852900,9.913852783203126,0.0006483611650764942,0.014623460359871387,-0.03397489711642265
1772018066110819600,9.933819580078126,0.0029710987582802773,-0.002412294503301382,-0.024131976068019867
1772018066130786600,9.95378662109375,0.011055918410420418,-0.00480986014008522,-0.006364564411342144
1772018066150753800,9.97375390625,0.004386835265904665,0.0008623283356428146,0.005234166514128447
1772018066170720500,9.993720458984376,-0.0013522328808903694,0.004479605704545975,0.008246462792158127
1772018066190687700,10.013687744140626,0.00230031437240541,-0.016334643587470055,-0.0046293907798826694
1772018066210654700,10.03365478515625,0.009116604924201965,-0.011868834495544434,-0.004081969149410725
1772018066230622500,10.05362255859375,0.010085484012961388,0.0008205482736229897,0.015271218493580818
1772018066250589700,10.073589599609376,0.006868896074593067,0.006540265865623951,0.017710143700242043
1772018066270556700,10.093556640625,0.0011745691299438477,0.005689558573067188,0.002371663460507989
1772018066290523600,10.113523681640626,0.000953249167650938,-0.0015234570018947124,-0.003999415319412947
1772018066310490600,10.13349072265625,0.007472679018974304,-0.0055734822526574135,-0.0043144687078893185
1772018066330457600,10.15345751953125,0.006440627388656139,-0.006951902061700821,-0.0019125541439279914
1772018066350424600,10.173424560546875,-0.0010771122761070728,-0.00038010068237781525,-0.002741341944783926
1772018066370391600,10.1933916015625,-0.00048140669241547585,-0.0032905731350183487,-0.009319344535470009
1772018066390358800,10.21335888671875,-0.00035988492891192436,0.0038508474826812744,-0.003350278362631798
1772018066410325500,10.233325439453125,0.00733659602701664,0.008226939477026463,0.0043673026375472546
1772018066430292500,10.25329248046875,0.0033388868905603886,0.013434767723083496,0.006094766780734062
1772018066450259700,10.273259765625,-0.00012291781604290009,0.00905411783605814,-0.008190033957362175
1772018066470226400,10.293226318359375,0.0004954405594617128,0.002374502830207348,-0.007001062855124474
1772018066490193700,10.313193603515625,-0.0008207317441701889,0.0004282798618078232,0.005501550622284412
1772018066510160600,10.33316064453125,-0.0005079945549368858,-0.004749016370624304,0.004594601225107908
1772018066530128100,10.353128173828125,0.0049316855147480965,-0.010700646787881851,0.004870116710662842
1772018066550095000,10.37309521484375,-0.0019757552072405815,0.0037342188879847527,0.015888946130871773
1772018066570062000,10.39306201171875,-0.0008489768952131271,0.007680837064981461,0.0071682920679450035
1772018066590029300,10.413029296875,0.0005294857546687126,0.00954515766352415,-0.008430376648902893
1772018066609997000,10.4329970703125,0.0022677744273096323,0.02124805934727192,-0.0331927165389061
1772018066629964000,10.452964111328125,-0.003973077051341534,0.01848289929330349,-0.03562604635953903
1772018066649931300,10.47293115234375,0.00037927785888314247,-0.002261888235807419,-0.004807011224329472
1772018066669898000,10.49289794921875,0.004307234194129705,-0.006395177450031042,0.01428531575948
1772018066689865200,10.512865234375,0.00047359755262732506,0.009854334406554699,0.004299129359424114
1772018066709832200,10.532832275390625,-0.00008673127740621567,0.014025111682713032,-0.013045771978795528
1772018066729799000,10.552798828125,-0.005615709349513054,0.02093985304236412,-0.007783100940287113
1772018066749766100,10.57276611328125,-0.004805848002433777,0.011069724336266518,0.013265592977404594
1772018066769733000,10.592733154296875,-0.003157617524266243,0.004126063548028469,0.021026309579610825
1772018066789700000,10.6127001953125,-0.003838043659925461,-0.018954377621412277,0.017484037205576897
1772018066809667000,10.6326669921875,-0.0034711207263171673,0.007321762852370739,0.027218831703066826
1772018066829634300,10.65263427734375,-0.007855748757719994,-0.012889765202999115,0.002716418355703354
1772018066849601000,10.67260107421875,-0.004758720751851797,-0.009319281205534935,-0.009035716764628887
1772018066869568000,10.692568115234375,-0.010942341759800911,-0.00729355588555336,-0.011860927566885948
1772018066889535200,10.71253515625,-0.006360666360706091,-0.0074449628591537476,-0.014456840232014656
1772018066909502000,10.732501953125,-0.008779002353549004,-0.00033416785299777985,-0.007364453282207251
1772018066929469200,10.75246923828125,-0.003275323659181595,0.010233413428068161,-0.012753092683851719
1772018066949436200,10.772436279296874,-0.005578957498073578,0.015293153002858162,-0.022692009806632996
1772018066969403100,10.792403076171874,-0.01879362389445305,0.07046326249837875,0.0868426188826561
1772018066989370000,10.8123701171875,0.004371861461549997,0.02085128054022789,0.14511524140834808
1772018067009337000,10.832337158203124,0.008735978975892067,-0.015149252489209175,0.06462346762418747
1772018067029305300,10.852305419921874,0.010638845153152943,-0.05205189064145088,-0.13911062479019165
1772018067049272000,10.87227197265625,-0.015661219134926796,-0.05848345905542374,-0.2797597646713257
1772018067069239000,10.892239013671874,-0.013334648683667183,-0.014835784211754799,-0.15714968740940094
