time,seconds_elapsed,z,y,x
1772018006723628500,0.081628662109375,0.20525193895399568,-0.07636924619227647,-0.04958480923902243
1772018006743596300,0.10159619140625,-0.02720014161467552,-0.05056523511111736,-0.08025642635654658
1772018006763563500,0.1215634765625,-0.09712298814654349,0.01314998895227909,-0.033083573630079625
1772018006783531500,0.141531494140625,-0.06096446405053138,-0.0005360065728425979,-0.007255670216679572
1772018006803499500,0.16149951171875,-0.06708557727932929,0.0032899814561009404,-0.025066563652083276
1772018006823467500,0.181467529296875,0.07519289588928223,-0.0032680618852376935,-0.013934453860856592
1772018006843434200,0.201434326171875,0.19233342067003248,-0.019122633621096608,0.0026360475920140744
1772018006863402200,0.22140234375,0.13775310469865798,-0.07770604775398969,-0.004751176582463086
1772018006883370500,0.24137060546875,-0.0613952566832304,-0.05083791457265615,-0.020172434934973716
1772018006903338500,0.26133837890625,-0.19307108729481695,-0.023629297390580176,-0.0061082902798429125
1772018006923305500,0.281305419921875,-0.13317045308351516,-0.0597176788598299,-0.017342070347256957
1772018006943273200,0.301273193359375,-0.00977495956122875,-0.095572251573205,-0.04458846225645393
1772018006963241200,0.3212412109375,0.08030746242403984,-0.08414367958605289,-0.03848704010881483
1772018006983208400,0.34120849609375,-0.03462240056991577,-0.04927753338813781,0.009042772829160094
1772018007003176400,0.361176513671875,-0.028814591073989867,-0.0011281272470951079,-0.023752631509304047
1772018007023144400,0.38114453125,0.03521042959094047,-0.030911855614185333,-0.029791034890711304
1772018007043112400,0.401112548828125,0.05508826549351215,-0.040972354118525976,-0.0477719876633957
1772018007063079400,0.421079345703125,0.10061667548120021,-0.04713496840149164,-0.0347346653053537
1772018007083047400,0.44104736328125,0.0367167425006628,-0.05427344197928905,-0.04110642882697284
1772018007103015400,0.461015380859375,-0.13742460339665413,-0.03433715388774872,-0.07084124001841992
1772018007122983400,0.4809833984375,-0.16688158402740955,-0.020199030680954456,-0.007546214128471911
1772018007142950700,0.50095068359375,0.0002712181568145752,-0.10142097760140895,-0.02253467055428773
1772018007162918400,0.52091845703125,0.07968494661152363,-0.13096651329845188,-0.00454922426957637
1772018007182886400,0.540886474609375,-0.01705517969727516,-0.09367606256306171,-0.07839676996450871
1772018007202853400,0.560853271484375,-0.13706161530315875,-0.017877017474174497,-0.03914886501841247
1772018007222821400,0.5808212890625,-0.02047989344894886,0.03142652713805437,-0.014981661358848214
1772018007242789600,0.60078955078125,0.0786404059946537,-0.01431289525181055,-0.03496211738567799
1772018007262757400,0.62075732421875,0.05985854863524437,-0.023415946900844573,-0.0010111863365396857
1772018007282724400,0.640724365234375,-0.05664718537330627,-0.031555706475675106,-0.045458157763071355
1772018007302692400,0.6606923828125,0.04217676147222519,-0.02197743853032589,-0.02141563992910087
1772018007322660400,0.680660400390625,0.09852291807234287,-0.07095949610322713,-0.010952478908002376
1772018007342628400,0.70062841796875,0.035841128709912295,-0.02299333757460117,-0.005037153916992247
1772018007362595300,0.72059521484375,-0.09315291547179222,-0.019383914905786514,-0.035978893212787806
1772018007382563300,0.740563232421875,-0.09653788173496723,-0.0517637972459197,-0.0423321346970275
1772018007402531300,0.76053125,0.051069677501916884,-0.07921236066371203,-0.00240176391210407
1772018007422498600,0.78049853515625,-0.07535480845272541,-0.08828151004314422,-0.018339337756298483
1772018007442466600,0.800466552734375,-0.043669045856595035,-0.0339893633633852,-0.03936290962789207
1772018007462434600,0.8204345703125,-0.0851367822766304,-0.033686288763582706,-0.039590471306070685
1772018007482402000,0.840402099609375,0.038784780946373935,-0.014017419436573982,-0.022899046887271107
1772018007502369300,0.860369384765625,0.06090893447101116,-0.022620704869925973,-0.02118146584704518
1772018007522337300,0.880337158203125,0.03150982150733471,-0.003075169661641121,-0.03273961903061717
1772018007542305300,0.90030517578125,-0.03390402316749096,0.009812368962168694,-0.039296822121739385
1772018007562273300,0.920273193359375,0.005479308193922043,-0.025193477967381476,-0.007858860274218022
1772018007582240000,0.940239990234375,0.014805354943871498,-0.015043547613918781,-0.0346178705252707
1772018007602208300,0.960208251953125,0.021906711381673813,-0.04376987588256597,-0.08949242020286619
1772018007622176300,0.98017626953125,0.04174012362062931,-0.039973113948106764,0.029512437145039438
1772018007642143200,1.000143310546875,-0.09666764559447764,-0.067453533808887,0.002206716264039278
1772018007662111200,1.020111328125,-0.11844342407286167,-0.05782324341535568,-0.011403181817568837
1772018007682079000,1.040078857421875,-0.031633740147948265,-0.04695961183458566,-0.020601437469385562
1772018007702047200,1.060047119140625,0.09539455691874027,-0.004781973579525947,-0.05018054664246738
1772018007722014200,1.08001416015625,0.10722878709733485,-0.0009030863195657729,0.0016783084757626056
1772018007741982200,1.099982177734375,-0.06145370887219905,0.020391630643606183,-0.01926609721239656
1772018007761950200,1.1199501953125,-0.04568623089790344,0.021476503270864485,-0.017759382443875073
1772018007781917200,1.139917236328125,0.022122399958968163,-0.05273264227807521,-0.026588950913771985
1772018007801885200,1.15988525390625,0.12456044564843177,-0.06190759011954069,-0.013007182948105036
1772018007821853200,1.179853271484375,-0.10409984142184257,-0.06382716000527143,-0.05737776467017829
1772018007841821200,1.1998212890625,-0.1713496693521738,-0.038839433743059634,-0.050205644551105794
1772018007861788200,1.2197880859375,0.023821020570397377,-0.05472206252962351,-0.05027626210190356
1772018007881756200,1.239756103515625,0.2076034705162048,-0.0785007052630186,-0.030305450686253607
1772018007901724200,1.25972412109375,0.1084422545403242,-0.049204760412871834,0.02728460502773523
1772018007921691100,1.279691162109375,-0.24659341864585874,-0.015141747291386126,-0.022297062406130132
1772018007941659100,1.2996591796875,-0.21456512622237203,0.0014195114091038704,0.002499415600299835
1772018007961627100,1.319627197265625,0.017705752560496328,-0.04271656743735075,-0.029877909456565974
1772018007981595400,1.339595458984375,0.1319973176509142,-0.0426817883849144,-0.02221709250509739
1772018008001562000,1.35956201171875,0.01866904463469982,-0.04394903184175491,-0.015491948968544602
1772018008021530000,1.379530029296875,-0.0795861624121666,-0.05000760122835636,-0.008135667921602726
1772018008041498000,1.399498046875,-0.05816518872082233,-0.02866670703589916,-0.03483249965663999
1772018008061465300,1.41946533203125,0.07722235589027404,-0.02658405554294586,-0.01902278997581452
1772018008081433000,1.43943310546875,0.007935469174385071,-0.03103694329857826,-0.0067489262709394095
1772018008101401000,1.459401123046875,-0.04455284295380115,-0.008372691547870636,-0.024815365369990468
1772018008121369000,1.479369140625,0.08124971171021461,-0.07265840897560119,-0.00325176833756268
1772018008141336300,1.49933642578125,0.0380891998976469,-0.08688859438002108,0.01908694125320762
1772018008161304300,1.51930419921875,-0.06083937636613845,-0.06992547688037157,0.044473859433457254
1772018008181272300,1.539272216796875,-0.12412906849384307,-0.07321808868497609,-0.007685695664398372
1772018008201239000,1.559239013671875,-0.019641689059138295,-0.02480038699656725,-0.007521737274341285
1772018008221207000,1.57920703125,0.04425707487761974,-0.008956044393777847,-0.04278130323663354
1772018008241175300,1.59917529296875,0.0035503859579563138,-0.050806058129668236,-0.04309409551285207
1772018008261142300,1.619142333984375,-0.02543371646404266,-0.029135785852372646,-0.012797083861380815
1772018008281110300,1.6391103515625,-0.021385902377963065,-0.041948213413357735,0.01516823343951255
1772018008301078000,1.659078125,-0.09740998839437962,-0.04603372916132211,0.014827493710443377
1772018008321046000,1.6790458984375,0.03309387582838535,-0.060195525504648684,0.023701120517775415
1772018008341013200,1.69901318359375,0.04331131846010685,-0.08524199621677399,-0.006367562270537018
1772018008360981200,1.718981201171875,0.023969489130377768,-0.025008769050240517,-0.02202726902142167
1772018008380949200,1.73894921875,-0.14216858305335045,-0.06608282997757196,-0.05682977539859712
1772018008400916200,1.758916259765625,-0.18402210392057894,-0.059117082618176935,-0.046081842619366944
1772018008420884200,1.77888427734375,-0.09413315868079662,-0.04085106582641601,-0.04019150593914091
1772018008440852200,1.798852294921875,0.07855623484253883,-0.052099605071544645,-0.023330898965895176
1772018008460820200,1.8188203125,0.05567395642697811,-0.03731938456892967,-0.007270319796539843
1772018008480787500,1.838787353515625,0.010620762735605239,-0.06400134752839803,0.015703545892611144
1772018008500755500,1.85875537109375,-0.11968085691332817,-0.02358428920507431,0.05292400013171136
1772018008520723500,1.878723388671875,-0.05888064351379871,-0.014304711945354938,0.059145431929826735
1772018008540690400,1.8986904296875,-0.03998948056101799,0.010384908153116702,0.027393472229689356
1772018008560658400,1.918658447265625,0.0579880785882473,-0.019716507861018178,-0.02747625514231622
1772018008580626400,1.93862646484375,0.11020634160339832,-0.04641074578016996,-0.0027918957408517597
1772018008600593700,1.95859375,-0.0117944826900959,-0.028636311897635457,-0.10348726248145103
1772018008620561400,1.9785615234375,0.027651392513513562,-0.06075725104063749,-0.11785586997587233
1772018008640529400,1.998529296875,0.05702654007971286,-0.0445551810413599,-0.06492069086302071
1772018008660496400,2.018496337890625,-0.01281271982192993,-0.046940030351281165,-0.04687766917217523
1772018008680464400,2.03846435546875,-0.1066384199887514,-0.041999066817760465,-0.050581053734757006
1772018008700432600,2.0584326171875,-0.09453823235034942,-0.0008685995280742645,-0.0441670219739899
1772018008720400600,2.078400634765625,0.057747255569696426,0.02750993821620941,-0.008521050509996712
1772018008740367400,2.098367431640625,0.15877777254879474,0.02654226222783327,0.0089226535808295
1772018008760335400,2.11833544921875,0.19318916071653364,0.017124737802147863,-0.03935542044118046
1772018008780303400,2.138303466796875,0.09627893853783608,0.021044249333441255,-0.06278703983519227
1772018008800270600,2.1582705078125,-0.04020926079154014,0.045129766058921814,-0.061334649069793516
1772018008820238300,2.17823828125,0.05456628744602203,0.05540478409677744,-0.050513176130317146
1772018008840206300,2.198206298828125,0.15741116037070751,0.027624796767532826,-0.01824333003591746
1772018008860173600,2.218173583984375,0.10539748001694679,-0.009208850111067295,-0.017381196781247853
1772018008880141600,2.2381416015625,-0.07677227403521537,-0.029906185702979562,-0.011474530020728707
1772018008900109600,2.258109619140625,-0.13345745333135128,-0.04327420132011175,-0.002638860603608191
1772018008920077600,2.27807763671875,-0.07789397154152393,-0.17778817796707153,-0.08044624984022229
1772018008940044300,2.298044189453125,-0.09372983857691287,-0.14308920502960681,-0.08593794259168207
1772018008960012500,2.318012451171875,-0.015035656568408011,-0.15539514437317847,-0.03448810666576028
1772018008979980500,2.33798046875,-0.03695756551921368,-0.1330237380892038,-0.01409863144662231
1772018008999947500,2.357947509765625,-0.11854688444733619,-0.12527180878818034,0.010705299213901162
1772018009019915300,2.377915283203125,-0.06284311740398407,-0.09819061737805604,0.0225547269616276
1772018009039883300,2.39788330078125,-0.03035948242843151,-0.05127893633842468,0.0038746129436418413
1772018009059850500,2.4178505859375,-0.03561550326049328,-0.05721709421575069,-0.026433066232316196
1772018009079818500,2.437818603515625,0.1018108537018299,-0.04531009106189012,-0.039289734793826935
1772018009099786500,2.457786376953125,0.17547697841525076,0.004802139584720135,-0.03955624024290591
1772018009119753500,2.47775341796875,0.13551613942682741,0.0004953823015093803,-0.029776860234886408
1772018009139721500,2.497721435546875,-0.014785481199622154,-0.01155745906382799,0.04740209490507841
1772018009159689500,2.517689453125,-0.050776247513294216,-0.019041969600319862,0.051607949097082016
1772018009179656400,2.537656494140625,-0.01663432393670082,-0.0522694086804986,0.08920976733658462
1772018009199624400,2.55762451171875,-0.008971241962909698,-0.03634586336165666,0.056132258121110494
1772018009219592400,2.577592529296875,0.03844809633791446,-0.000552080924808979,0.028058694672770796
1772018009239560400,2.597560546875,0.16302140146791935,-0.03191927909106016,0.02414933920931071
1772018009259527400,2.61752734375,0.07887246118485927,-0.021575287470221517,0.044560259075276554
1772018009279495400,2.637495361328125,-0.13559154275059698,-0.0510144401833415,0.04320851567275822
1772018009299463400,2.65746337890625,-0.14122107307016848,-0.054575639796257014,0.046061274755373596
1772018009319430400,2.677430419921875,0.01727612897157669,-0.10706862809956073,0.05036394038535654
1772018009339398400,2.6973984375,0.033331191715598105,-0.12579174100905657,0.010064517092332243
1772018009359366400,2.717366455078125,-0.0002741407662630081,-0.07939969992935657,0.009760346513986587
1772018009379333400,2.73733349609375,0.05243044446110725,-0.09586451251804828,-0.005045848680101335
1772018009399301600,2.757301513671875,0.014047814574837683,-0.10537614496797322,-0.018771043704450128
1772018009419269600,2.77726953125,-0.06421557480096816,-0.06266776083707809,0.009413213576748966
1772018009439236400,2.797236328125,-0.02788637031316757,-0.05250555552393198,-0.030167576585523784
1772018009459204400,2.817204345703125,-0.029909985095262527,-0.03785977505594492,-0.0291867853872478
1772018009479172400,2.83717236328125,-0.008898761248588561,-0.02971124765276909,-0.05209175055865198
1772018009499139600,2.8571396484375,0.012796937730908392,-0.006428279481828212,-0.010471344327554106
1772018009519107600,2.877107666015625,0.02450140404999256,0.0036760581642389296,-0.05789707583654671
1772018009539075600,2.89707568359375,-0.005229717347025871,-0.015287293241918087,-0.10192034195829182
1772018009559042600,2.91704248046875,-0.02892857284247875,-0.011112053383886813,-0.09999087173305451
1772018009579010600,2.937010498046875,0.09597089550197124,-0.041327158905565736,-0.07912793378327042
1772018009598978600,2.956978515625,-0.05824409917593002,-0.06112813017964363,-0.10032419534064829
1772018009618945500,2.976945556640625,-0.12831249165832995,-0.04015314669013023,-0.12691844348404555
1772018009638913500,2.99691357421875,0.0015326163947582245,-0.09147066147327422,-0.07568320015687495
1772018009658881500,3.016881591796875,0.005427285745739936,-0.12819675632417202,-0.028427418387308716
1772018009678848500,3.0368486328125,-0.037975218129158016,-0.09160802411735057,0.035734453465044495
1772018009698816500,3.05681640625,-0.06127835230529308,-0.09392419210523366,-0.04672032318599522
1772018009718784500,3.076784423828125,-0.07153671146929264,-0.05598842920362949,-0.00797576465215534
1772018009738752500,3.09675244140625,-0.09611293432116508,-0.03869797944575548,0.012948511563427745
1772018009758719500,3.116719482421875,0.04095803333222866,-0.04544774596691131,-0.0025934140266850587
1772018009778687500,3.1366875,0.02701017200052738,-0.02420680501759052,0.01191248304657638
1772018009798655500,3.156655517578125,0.008515899410843849,-0.04415595259070396,-0.05152670055441558
1772018009818622500,3.17662255859375,0.025319150173664092,-0.045537177816033364,-0.015156141142919658
1772018009838590700,3.1965908203125,0.018325930285453797,-0.039756548587977884,0.0018111045425757764
1772018009858558700,3.216558837890625,0.06640227119028567,-0.01980155579596758,-0.006008410101942718
1772018009878525400,3.236525390625,0.06018938802480697,-0.03204875068962574,0.006537329346872866
1772018009898493400,3.256493408203125,0.001115267765522003,-0.03176145818084478,0.00783690417073667
1772018009918461400,3.27646142578125,-0.026273089897632596,-0.025840543699264525,0.00520790737401694
1772018009938428700,3.2964287109375,-0.021967501658201216,0.0034799510702490806,-0.001061455219052732
1772018009958396400,3.316396484375,-0.016961656194925307,-0.030422318531572817,-0.013378865804709494
1772018009978364400,3.336364501953125,0.052830257433652876,0.022658406531810758,0.004506919497810304
1772018009998331600,3.35633154296875,0.047133507096767426,-0.026840368391573426,-0.013821823799237609
1772018010018299600,3.376299560546875,0.03239712573587894,-0.03397533483803272,-0.019340221894532442
1772018010038267600,3.396267578125,-0.008413608080148696,-0.022228198421001433,-0.025042890515550968
1772018010058234400,3.416234375,-0.046641339665651316,-0.01956190182119608,-0.029044746568053958
1772018010078202400,3.436202392578125,-0.014968436551094054,-0.06578764642328024,-0.0035700405064970253
1772018010098170600,3.456170654296875,-0.03228782014250755,-0.05664835441708564,-0.0640010918000713
1772018010118137600,3.4761376953125,0.019975451058149338,-0.058381461820006364,-0.034800168289616705
1772018010138105600,3.496105712890625,0.056875733432173725,-0.052714229838550085,0.03229373842664063
1772018010158073300,3.5160732421875,-0.026041034707427024,-0.07515402518361806,0.03639499973300844
1772018010178040600,3.53604052734375,-0.1611322267204523,-0.04738163663893938,0.016220774699747562
1772018010198008600,3.556008544921875,-0.09735913498997688,-0.015382278048992157,0.00888984728977084
1772018010217976600,3.5759765625,-0.03811959503591061,-0.002315291205048561,-0.0026551906839013097
1772018010237943600,3.595943603515625,0.030704350343346593,-0.02422112580388784,-0.019592589220404622
1772018010257911600,3.61591162109375,0.023639818784594535,0.019431261178851127,0.02181866777203977
1772018010277879600,3.635879638671875,0.023299627044796944,0.03151975837945938,-0.022045900656655428
1772018010297846500,3.655846435546875,-0.014607202023267745,-0.0007236380994319916,-0.012777465845458209
1772018010317814500,3.675814453125,0.036486440876126285,0.012093465636670589,-0.02573598734624684
1772018010337782500,3.695782470703125,0.008149988707900046,-0.006318097105622291,-0.006482055495679378
1772018010357749500,3.71574951171875,-0.010683306577801704,-0.001933306150138378,-0.017221695370599626
1772018010377717500,3.735717529296875,-0.008919219514727591,0.008164894016087054,-0.003018105712160468
1772018010397685500,3.755685546875,0.049961423999071115,-0.008053250335156917,0.005912000522762537
1772018010417652500,3.775652587890625,0.04609364265501499,-0.0316170812740922,0.001024520742148161
1772018010437620700,3.795620849609375,-0.06126490830183029,-0.03885258548557758,0.026737200278043747
1772018010457587500,3.81558740234375,-0.1654541815727949,-0.055519350387156004,-0.021325733155943452
1772018010477555200,3.83555517578125,-0.19858195967078207,-0.0391983301833272,-0.03162241503633559
1772018010497523200,3.855523193359375,-0.1395294667214155,-0.01817278555035591,-0.02862776326499879
1772018010517490400,3.875490478515625,0.08459259239733219,-0.007564005513489246,-0.012008819560520351
1772018010537458200,3.895458251953125,0.09309037162959576,-0.008906360033154486,-0.021350977195054292
1772018010557426200,3.91542626953125,0.04419862268865108,0.029031740956008432,-0.007817834144085645
1772018010577393400,3.935393310546875,-0.024468670824170112,0.03794043907672166,-0.0017706994669511914
1772018010597361400,3.955361328125,0.027198972570896148,0.030910978831350803,-0.033446780919283624
1772018010617329400,3.975329345703125,0.10620470474660396,-0.007096680262684822,0.007018975383974611
1772018010637296000,3.995296142578125,-0.015583938100934027,-0.030839374899864196,-0.05275759405624121
1772018010657264000,4.01526416015625,-0.09064707013070583,-0.06137450615614652,-0.02584463535249233
1772018010677232400,4.035232421875,-0.08520750942528248,-0.07683306431174278,-0.08751929349899291
1772018010697199400,4.055199462890625,-0.01883855598270893,-0.09308744902014732,-0.06375778456348925
1772018010717167400,4.07516748046875,-0.07493278364837169,-0.09900924028456211,-0.05366159369125962
1772018010737135400,4.09513525390625,-0.1098410154223442,-0.06251023218780756,-0.049055853461474175
1772018010757102300,4.115102294921875,-0.09383212990760803,-0.07594020712524652,-0.005312061868235469
1772018010777070300,4.1350703125,-0.05316635752022266,-0.07896218529492616,-0.009223024766892194
1772018010797038300,4.155038330078125,0.018293197059631346,-0.09522592235356568,-0.018200659937970338
1772018010817005300,4.17500537109375,0.044126141974329944,-0.04576192648261785,-0.04304269411917776
1772018010836973300,4.194973388671875,0.16255612204372882,-0.045076282306015486,-0.01893832656275481
1772018010856941300,4.21494140625,0.21150632317364215,-0.027358254785835742,-0.010779716156981884
1772018010876908300,4.234908203125,0.07482406257688999,-0.06662029785513877,-0.031588183973170814
1772018010896876300,4.254876220703125,-0.09299100290834904,-0.013067863626778125,0.04033926211306825
1772018010916844300,4.27484423828125,-0.11574819363951683,-0.03167728702872991,-0.018115977329201994
1772018010936811300,4.294811279296875,0.003866612300276756,-0.05766513024419546,-0.002315236406121403
1772018010956779300,4.314779296875,0.10872691670060157,-0.08779255748242139,-0.01044308634744957
1772018010976746200,4.334746337890625,0.006101824006438255,-0.07281739892959595,0.014143730963673442
1772018010996714200,4.35471435546875,-0.11309972495734691,-0.07388473590016365,-0.029695374230202284
1772018011016682500,4.3746826171875,-0.06193184777796268,-0.0032949498921632766,-0.04381433607880026
1772018011036649200,4.394649169921875,0.10297814391553402,-0.019564239908754825,-0.06512410448063165
1772018011056617200,4.4146171875,0.1669710158765316,-0.019001345328986643,-0.016062442332878707
1772018011076585200,4.434585205078125,0.06846738702654838,-0.035404198597371574,-0.00977265800628811
1772018011096552400,4.454552490234375,-0.05889934821426868,0.015469371810555457,-0.01591994685595855
1772018011116520400,4.4745205078125,0.008359832066297531,-0.009969605350494385,-0.02321476177293807
1772018011136488200,4.49448828125,0.04014730147123337,-0.03844488146752119,0.03626485228100791
1772018011156455200,4.514455078125,-0.03309796748161316,-0.06185469088852405,0.05145873161843046
1772018011176423400,4.53442333984375,-0.10327098938226699,-0.04620820894539356,0.024242278189770875
1772018011196390400,4.554390380859375,-0.09884089798033237,-0.04251870677769184,-0.02799688148293644
1772018011216358100,4.574358154296875,-0.0015384616136550901,-0.023725158980488777,0.00030228914851322767
1772018011236326100,4.594326171875,0.02367138296663761,-0.0022810966745018956,0.014317827155254781
1772018011256293400,4.61429345703125,0.01972176855802536,-0.009264087429642676,0.026921032412350176
1772018011276261400,4.634261474609375,-0.02257248181402683,-0.008962181873619557,0.04459127526804805
1772018011296229400,4.6542294921875,0.018332944548130035,-0.04709551317393779,0.014635660932771861
1772018011316196000,4.674196044921875,0.07957213388681411,-0.014158289211988449,0.04383092188742012
1772018011336164400,4.694164306640625,-0.016842413729429243,-0.037783202688395974,0.0036295156087726354
1772018011356132400,4.71413232421875,-0.036356092494726176,-0.048377369678020476,-0.001959865363501012
1772018011376099300,4.734099365234375,-0.028152327772974967,-0.04633534245640039,0.021593480714038014
1772018011396067300,4.7540673828125,-0.05806815808713436,-0.05974865851998329,0.009582250000722705
1772018011416034300,4.774034423828125,-0.07163198853731155,-0.06824234609901905,-0.07416307791750877
1772018011436002300,4.794002197265625,0.004612462231516838,-0.05937076511830091,-0.060139228740148244
1772018011455970300,4.81397021484375,0.11397241613864897,-0.07528641939163208,-0.009375000458210707
1772018011475938000,4.83393798828125,0.013698270484805106,-0.06863514480888844,-0.0460363229772076
1772018011495906000,4.853906005859375,-0.04559855261445045,-0.042831133727729315,-0.03616645167414099
1772018011515874000,4.8738740234375,-0.04578793770670891,-0.0373594243183732,-0.028079554797708985
1772018011535841300,4.89384130859375,-0.030360651472210884,-0.009914660292863845,0.0034772111238911747
1772018011555809300,4.913809326171875,0.013927403065562248,-0.021025836893916128,0.0010464037803933023
1772018011575777000,4.933777099609375,0.05511398445665836,-0.020150223103165624,0.00948149303998798
1772018011595744300,4.953744140625,0.006835983499884605,-0.001271042849123478,-0.03540949582699686
1772018011615712300,4.973712158203125,0.037231121763587,-0.025694120965898036,-0.015094364485703407
1772018011635679200,4.99367919921875,0.026216975796222685,-0.10572802714556455,-0.008696662805229426
1772018011655647200,5.013647216796875,0.005485737934708595,-0.07811784342527389,-0.007092880870401859
1772018011675615000,5.033614990234375,-0.04455225843191147,-0.06045359191894531,-0.017768077206984163
1772018011695582200,5.053582275390625,-0.10773556757569312,-0.06881926920413971,-0.04106668133847415
1772018011715550200,5.07355029296875,-0.040727147185802455,-0.050502983529865736,-0.009912760596722364
1772018011735518200,5.093518310546875,0.005505611678957939,-0.06612403877079487,-0.049292804022505875
1772018011755485200,5.113485107421875,0.02864800233542919,-0.08770663276463747,-0.0072882938446477055
1772018011775453200,5.133453125,-0.07387304546236992,-0.06147855105251074,0.02714309593150392
1772018011795420200,5.153420166015625,-0.03247603619098663,-0.029969314067065714,0.012745846864487976
1772018011815388200,5.17338818359375,0.06267652866542339,-0.021619126611948012,-0.027284367565717546
1772018011835356200,5.193356201171875,0.08536533033549785,-0.04961977095454931,-0.04213821956012398
1772018011855323100,5.2133232421875,0.10353110162317752,-0.02232376774996519,-0.04247293140720576
1772018011875291100,5.233291015625,0.09598550854921341,-0.021486147882044313,-0.03695263361576944
1772018011895259100,5.253259033203125,-0.04162906446158886,-0.013707622835040092,-0.036652499891724435
1772018011915226000,5.27322607421875,-0.0800824214965105,-0.010735621286928653,-0.015635777886025607
1772018011935194400,5.2931943359375,-0.04082885399460792,-0.06083908410519361,-0.0293599682633765
1772018011955160000,5.31316015625,0.07028525010347365,-0.06719342156797647,0.011760416023712604
1772018011975127300,5.333127197265625,0.06803600987195968,-0.05858721352517605,-0.03086133100334555
1772018011995095300,5.35309521484375,0.012190204009413718,-0.06161328334808349,-0.046837702487967904
1772018012015062000,5.37306201171875,-0.029540567260980605,-0.06951748060137034,-0.03791291174897924
1772018012035030000,5.393030029296875,-0.09785130242109298,-0.030692659905552862,-0.0353689263545908
1772018012054998300,5.412998291015625,-0.08170388521850108,-0.04995967043340206,-0.025877131116297095
1772018012074965200,5.43296533203125,-0.037950668209791184,-0.013617314203083514,-0.049722884269151835
1772018012094933200,5.452933349609375,0.1158405480980873,-0.06323036315590143,-0.035814587762858716
1772018012114900200,5.472900146484375,0.12638707655370235,-0.060652037100493904,-0.008485011082235724
1772018012134868200,5.4928681640625,-0.04446165753901005,-0.07999941938817501,-0.029183223456982522
1772018012154836200,5.512836181640625,-0.20592823078036307,-0.04547112684249878,-0.01562047071903944
1772018012174803200,5.53280322265625,-0.1491980432987213,-0.018494564850628375,-0.04323217054298147
1772018012194771000,5.55277099609375,-0.022579496076703072,-0.004437397925555706,-0.04630478292135522
1772018012214739200,5.5727392578125,0.06730009681284427,-0.002364683304727077,-0.002205035763606429
1772018012234706200,5.5927060546875,0.0550818357527256,-0.011226619674265383,-0.03587811798574403
1772018012254674200,5.612674072265625,0.0025087679505348204,0.011157646091282367,-0.046938167187757784
1772018012274641200,5.63264111328125,-0.00810147339105606,0.019073241521418094,-0.05109766148738563
1772018012294609200,5.652609130859375,0.044482115805149075,0.014058628229796886,-0.03446514591528103
1772018012314577200,5.6725771484375,0.1116144548356533,-0.037080899637937544,-0.0361523866161704
1772018012334544100,5.692544189453125,-0.011361936491727828,-0.022952713303267955,-0.07392249236097559
1772018012354512100,5.71251220703125,-0.0755552994608879,-0.017772095794975757,-0.04651279964884743
1772018012374480100,5.732480224609375,-0.15904139192104338,-0.008828034099936485,0.008232534158509225
1772018012394447000,5.752447021484375,-0.03602525310516357,-0.07572568759173154,0.0034021183273755013
1772018012414415000,5.7724150390625,-0.013747954845428467,-0.0842018395140767,-0.008142956178914754
1772018012434382000,5.792382080078125,-0.03655366089344025,-0.08295067040920256,-0.057229149979725474
1772018012454350300,5.812350341796875,-0.09755904147624969,-0.065096157027781,-0.025223051121737807
1772018012474317600,5.832317626953125,-0.05981178688406944,-0.018233868087828158,-0.04261909841224551
1772018012494284300,5.8522841796875,-0.06118073714971542,-0.006475333493947982,-0.03432999349460006
1772018012514252500,5.87225244140625,-0.008560907596349716,0.0314598448857665,-0.03740373838413506
1772018012534219500,5.892219482421875,0.14335691605508327,0.013918050715327262,-0.04388013132400811
1772018012554187500,5.9121875,0.09415420146882533,-0.016094225710630416,-0.03504970433758572
1772018012574155500,5.932155517578125,-0.04590484208464622,0.018581658612191677,-0.04331566584166139
1772018012594122500,5.95212255859375,-0.07027531323134899,-0.023079846814274788,-0.01620997931109741
1772018012614090500,5.972090576171875,0.004053074783086776,-0.07328150931000708,-0.015235398657899349
1772018012634057500,5.992057373046875,0.004342413118481636,-0.08143646645396947,-0.010298837304860352
1772018012654025500,6.012025390625,-0.06980126597881317,-0.07179886953681706,-0.055343555428832764
1772018012673993500,6.031993408203125,-0.05573357765972614,-0.01528144802302122,-0.045062454710062594
1772018012693960400,6.05196044921875,-0.050638884869217866,-0.02195288861095905,-0.03714980015568435
1772018012713928400,6.071928466796875,0.02184533658325672,0.0013897007927298544,-0.003836929548066109
1772018012733895400,6.0918955078125,0.03350011854171753,-0.022225568072497842,-0.027588136285264044
1772018012753863700,6.11186376953125,0.014191606959700584,-0.030417057834565636,-0.0034256088008172807
1772018012773831400,6.13183154296875,-0.08141396236121654,-0.05735650268644094,-0.042030064744222904
1772018012793798400,6.15179833984375,-0.07762859860360621,-0.03027969519048929,-0.008322477464284748
1772018012813766400,6.171766357421875,-0.03804711432158947,-0.06864595846384763,-0.028735461423173545
1772018012833733600,6.191733642578125,0.03825461959242821,-0.05013794960975647,-0.02962061022724956
1772018012853701400,6.211701416015625,-0.004558686217665672,-0.06372720676213503,-0.014740747008752077
1772018012873669400,6.23166943359375,-0.015056699356436729,-0.04719254380762577,0.003978146383352577
1772018012893636400,6.25163623046875,-0.01909340752661228,-0.062439797300100325,-0.005390205138362944
1772018012913604600,6.2716044921875,-0.006278349617123604,-0.018012626552581786,-0.019748473901860415
1772018012933571600,6.291571533203125,-0.012882862448692321,-0.03337093920409679,-0.07273368443520739
1772018012953539300,6.311539306640625,0.003933832317590713,-0.043189445646107195,-0.03927817222019657
1772018012973507300,6.33150732421875,-0.022097850039601324,-0.038385552495718,-0.03270115018375218
1772018012993474600,6.351474609375,-0.05649520968198776,-0.01715454841852188,-0.032842220888566226
1772018013013442600,6.371442626953125,0.03385959950387478,-0.024779051947593687,-0.013652787375263868
1772018013033409300,6.3914091796875,0.13044015133678913,-0.043353696297109126,0.0234657591256313
1772018013053377300,6.411377197265625,0.05908756426274776,-0.023917758943140504,0.0010854571491479873
1772018013073345500,6.431345458984375,0.0015466449201107025,-0.021860826413333416,-0.02883777102017775
1772018013093312500,6.4513125,-0.04963935243785381,-0.037943069425225254,0.012082725046947598
1772018013113280500,6.471280517578125,-0.1315782154560089,-0.05110387203246355,0.016440427066106347
1772018013133247500,6.49124755859375,-0.11798808152079582,-0.07656973720043897,-0.04259361691111699
1772018013153215500,6.511215576171875,-0.02661328163743019,-0.07277297526597976,-0.0774975561024621
1772018013173183500,6.53118359375,0.05962298631370067,-0.023403087419271468,-0.025436566008254884
1772018013193150500,6.551150390625,0.02879647089540958,-0.020399813950061796,-0.004665891185496002
1772018013213118500,6.571118408203125,-0.07037994264960289,-0.0369280471637845,-0.016750936053693294
1772018013233085400,6.59108544921875,-0.09457856436073779,-0.04970569567233324,-0.0026124475207179782
1772018013253053400,6.611053466796875,-0.05014437935054302,-0.04619388815909624,0.037079949789866805
1772018013273021400,6.631021484375,0.051472997605800624,-0.07991583275794982,-0.00712292894879356
1772018013292988400,6.650988525390625,0.06375263346433639,-0.05688391673862934,0.025406919788662344
1772018013312956700,6.670956787109375,-0.005880290210247039,-0.032551731775701045,-0.051454475568421185
1772018013332923400,6.69092333984375,-0.0009369885891675948,0.05446662646383047,0.015688768448587506
1772018013352891400,6.710891357421875,-0.0026239187628030775,0.011897358542680739,-0.033702216985076666
1772018013372859400,6.730859375,0.07780220160484314,0.008681319105625153,-0.017064513781201093
1772018013392826600,6.75082666015625,0.11927169159054755,0.015242577317357063,0.010129746081959455
1772018013412794400,6.77079443359375,0.058191492205858224,-0.003712590782344341,0.022089429271128027
1772018013432761300,6.79076123046875,0.010240238985419273,-0.012351239790022372,0.0050072154364548625
1772018013452729300,6.810729248046875,-0.09367840065062046,-0.0505418542355299,0.022093173864483832
1772018013472696600,6.830696533203125,-0.027436872979998587,-0.0539186371922493,0.020729447763226924
1772018013492665000,6.8506650390625,-0.10559972459077835,-0.09051701401025056,-0.026602942906506357
1772018013512633000,6.870633056640625,0.007370236507058143,-0.06052782619893551,-0.021809991275239735
1772018013532599800,6.890599853515625,-0.014570377144217491,-0.11834317856878042,-0.03061500982576981
1772018013552568000,6.910568115234375,-0.00828793587386608,-0.08406710721850395,-0.04600271296855062
1772018013572535000,6.93053515625,-0.03243219704926014,-0.07255845573246479,-0.07117461842494086
1772018013592503000,6.9505029296875,0.008374445113539694,-0.07600275096744298,-0.03848124968884513
1772018013612471000,6.970470947265625,-0.07951777335107325,-0.08871084137111902,-0.04623557187635451
1772018013632438000,6.99043798828125,-0.0033551556468009946,-0.04743628943562507,-0.02279938590507954
1772018013652406000,7.010406005859375,-0.02095510974526405,-0.027101065154373643,-0.046209304923936725
1772018013672373000,7.030373046875,0.013922726890444754,0.0036699206843972204,-0.048307208784949034
1772018013692341000,7.050341064453125,0.020824176841974257,0.014376023615896702,0.0024307342782616615
1772018013712309200,7.070309326171875,-0.015832944425940514,0.005864508119225502,0.016998371476121245
1772018013732276000,7.09027587890625,-0.08976853373050689,-0.009178747233748435,0.009604571430385112
1772018013752244000,7.110243896484375,-0.04843991352021694,-0.0319958514586091,-0.0033241759866476056
1772018013772211200,7.130211181640625,0.0983779566437006,-0.05564560711532831,-0.024029329558834432
1772018013792179200,7.15017919921875,0.06519932514131069,-0.05313742368668317,-0.01729671510187909
1772018013812146000,7.17014599609375,-0.015606734454631805,-0.035785014608502384,0.029008780205529182
1772018013832114000,7.190114013671875,0.016512158861756325,-0.021483517533540726,-0.013148217120300978
1772018013852082000,7.21008203125,0.011872808623313903,-0.040169221042096616,-0.018125475809909402
1772018013872049200,7.230049072265625,-0.08121580944061278,-0.048238253468275066,-0.022512367390934377
1772018013892017200,7.25001708984375,-0.12792086199223995,-0.03251286107003688,-0.03368376801293343
1772018013911983900,7.26998388671875,-0.027195465439558027,-0.05335691165626049,-0.008301946132909506
1772018013931951900,7.289951904296875,-0.030026304951310156,-0.08374123626500368,-0.040778986970894035
1772018013951919000,7.309919189453125,-0.0568681346476078,-0.025851941876113414,0.022632778900209812
1772018013971887000,7.32988720703125,0.030474633240699767,-0.000594166500866413,0.005215049500856548
1772018013991855000,7.349855224609375,0.025821838998794554,-0.00518792403191328,-0.000023307810351252554
1772018014011822000,7.369822021484375,0.08749941975474357,-0.006411036086082458,-0.001601553445123136
1772018014031790000,7.3897900390625,0.08417173663675785,-0.018076631699502466,0.02048139128629118
1772018014051757000,7.409757080078125,0.025412089154124257,0.01556377209573984,0.012926153601147234
1772018014071725000,7.42972509765625,-0.026075521498918532,-0.002303308506309986,-0.025645021127164363
1772018014091693000,7.449693115234375,-0.07588146267533302,-0.040649990296363826,0.00500767209418118
1772018014111660000,7.469659912109375,0.006042202773690223,-0.07230828036367892,0.004396846719458699
1772018014131628000,7.4896279296875,-0.015460019460320471,-0.058847910287976264,0.011811433824896812
1772018014151595000,7.509594970703125,0.011548983496427535,-0.05330021303296089,-0.0024570012306794524
1772018014171563300,7.529563232421875,-0.058683659636974334,-0.04007745110541582,-0.007414733235910535
1772018014191530000,7.549530029296875,-0.02979424976110458,-0.023267770601809023,0.0012102160399779676
1772018014211498000,7.569498046875,0.021851181802153587,-0.0166591661170125,0.037787513537332416
1772018014231466000,7.589466064453125,-0.05985094985067844,-0.04164163168221712,-0.02046780115235597
1772018014251433200,7.60943310546875,-0.025182956573367117,-0.0493935609832406,-0.005607501150853932
1772018014271401000,7.62940087890625,-0.033797640183568,-0.05524608640372753,-0.02926220697732642
1772018014291368000,7.649367919921875,-0.008346972584724426,-0.043024610473215576,-0.05384160816697404
1772018014311336000,7.6693359375,0.027262685456871986,-0.03232289145588874,-0.044993280197679994
1772018014331303200,7.68930322265625,0.057952422752976414,-0.044939211922883984,-0.04169929841989651
1772018014351271200,7.709271240234375,-0.030337855118513106,-0.050286418169736856,-0.019899353614635764
1772018014371239000,7.729239013671875,-0.05076747968494892,-0.023661738355457783,-0.034488764252886175
1772018014391206100,7.7492060546875,-0.03370470120310783,-0.034139877749979494,-0.03522011073473841
1772018014411174100,7.769174072265625,-0.13538228391408919,-0.04041121310442686,-0.06552738805189728
1772018014431141000,7.78914111328125,-0.035787352696061134,-0.03575198912173509,-0.04588668537344783
1772018014451108900,7.80910888671875,-0.008740940338373185,-0.055357730084657664,-0.10049794447235763
1772018014471076000,7.829076171875,0.040702597266435624,-0.04714022909849882,-0.06314931554263457
1772018014491044400,7.84904443359375,-0.022895722419023514,-0.026426819154620168,-0.08160139295840635
1772018014511011300,7.86901123046875,-0.02400046879053116,-0.008814590096473693,-0.08396167408265173
1772018014530979300,7.888979248046875,0.035090602603554726,0.02049070710390806,-0.054061132669169454
1772018014550947000,7.908947021484375,0.07408639595210552,0.0024678514182567596,-0.10245753584122284
1772018014570914300,7.928914306640625,0.10729834520220756,-0.033060265819728374,-0.04883368034446612
1772018014590882300,7.94888232421875,0.03939852893054485,-0.054201838047802445,0.008970876636728645
1772018014610849300,7.968849365234375,-0.10376257229149341,-0.01279576868712902,0.023473686703760176
1772018014630817500,7.988817626953125,-0.053988195297121996,-0.02256166815906763,0.0050558403511531645
1772018014650784300,8.0087841796875,-0.03140694565474987,-0.006342939285933971,-0.016514551748242227
1772018014670752300,8.028752197265625,0.038076340416073794,-0.003171615773439407,-0.01749046584200114
1772018014690720300,8.04872021484375,-0.0010322656571865082,-0.01714753415584564,-0.05058138252831995
1772018014710687500,8.0686875,-0.004697802427411079,0.021609774261713028,-0.011736852485034614
1772018014730655200,8.0886552734375,-0.056502223944664,-0.03223053699731827,-0.013497980406042187
1772018014750622200,8.108622314453125,0.00048281508088111874,-0.022963526958227155,0.02328240191536024
1772018014770590200,8.128590087890625,-0.02425824294388294,-0.024975159041583535,-0.030628015437815338
1772018014790557400,8.148557373046875,-0.03512625843882561,-0.03838701380044222,-0.04493937631966546
1772018014810525200,8.168525146484376,0.02367489009797573,-0.0290112826898694,-0.030180162072461096
1772018014830492200,8.1884921875,0.07433364871144295,-0.06357844594120979,0.010700148114748299
1772018014850460400,8.20846044921875,-0.040703181788325306,-0.06562777968645095,0.0026388788699172436
1772018014870428400,8.228428466796874,-0.08101181130111217,-0.01772358047813177,0.046818723792862144
1772018014890395400,8.2483955078125,-0.04900514618754387,-0.03159399265944957,0.01488766293246299
1772018014910363100,8.268363037109374,0.04290332218110561,-0.04452127877175808,0.027289226403925566
1772018014930330400,8.288330322265624,0.03363923475146294,-0.036625849346816536,-0.01626971014169976
1772018014950298400,8.30829833984375,0.02867664390802383,-0.010791443127393722,-0.03882105783615261
1772018014970265300,8.328265380859374,-0.0873112037062645,-0.01083908166140318,-0.025401458162255582
1772018014990233000,8.348233154296874,-0.013541034096479415,0.015389584572613238,-0.019618655243422836
1772018015010200300,8.368200439453124,0.05477554628252983,-0.00003068739920854568,0.06105466308463364
1772018015030168300,8.388168212890625,0.05985562602579593,-0.004486790025234222,-0.011102079979144036
1772018015050136300,8.40813623046875,0.06781096894443035,-0.024704233145713805,-0.0033146227070130407
1772018015070103300,8.428103271484375,-0.0150666362285614,-0.06794745480567216,0.02102590995915234
1772018015090071300,8.4480712890625,-0.05974632043242454,-0.08045446967929601,0.036467845773510636
1772018015110038300,8.468038330078125,-0.05195289007723331,-0.09441957440674305,-0.01605522714080289
1772018015130006300,8.48800634765625,-0.012420505633950233,-0.07549304787963629,-0.015955091234575957
1772018015149973500,8.507973388671875,-0.11073416486978531,-0.05200491252541542,-0.036054186938703055
1772018015169941200,8.527941162109375,0.026764088284969328,-0.001719371138513088,-0.01301200525369495
1772018015189908200,8.547908203125,0.09352934756875038,-0.025111937163770196,0.003075882047694176
1772018015209876200,8.567876220703125,-0.032681787896156306,0.01013268695771694,-0.022227522567566483
1772018015229844200,8.58784423828125,-0.06178513278365135,-0.028774259063601492,-0.031108510697446762
1772018015249811500,8.6078115234375,-0.01842763709425926,-0.02062543939948082,-0.04544577320553362
1772018015269779200,8.627779296875,0.06968436160087585,-0.039891280883550644,-0.05083398731620982
1772018015289746200,8.64774609375,0.04641045351922512,-0.034064474426209926,-0.021224629135336726
1772018015309714400,8.66771435546875,-0.08249591237902641,-0.06882686798870563,-0.05266427148329094
1772018015329681400,8.687681396484376,-0.05772738182544708,-0.007656359972059726,-0.011188753615599125
1772018015349649200,8.707649169921876,-0.03563537700474262,-0.06028758770227432,-0.025124869710579513
1772018015369616400,8.727616455078126,-0.1083294418156147,-0.043641573327779765,-0.02057759993607178
1772018015389584400,8.74758447265625,-0.024836335092782973,-0.019908523301780223,-0.0036011114981956776
1772018015409551400,8.76755126953125,-0.0071639002799987785,-0.0432765394076705,-0.0016236191464588045
1772018015429519000,8.78751904296875,-0.06230535726547241,-0.054852703171968456,0.00834510942120105
1772018015449487000,8.807487060546874,-0.049852118405699725,-0.04737871402949095,-0.07232320393817498
1772018015469454300,8.827454345703124,0.06946691945791245,-0.020798165617883203,-0.0478810192621313
1772018015489421600,8.847421630859374,0.10865443598628044,-0.014396481882035732,-0.07168720758957788
1772018015509388500,8.867388427734374,0.039567455756664274,0.007905658558011055,0.009153247466310858
1772018015529356500,8.8873564453125,-0.09056172993481158,0.008471475747227668,-0.054570415631867944
1772018015549323500,8.907323486328124,-0.009700725281238555,-0.003950491191446781,-0.015330821856390684
1772018015569291500,8.92729150390625,0.09254618175029754,-0.04470511090606451,0.001863528849557042
1772018015589258500,8.947258544921874,0.018878303471207617,-0.03935995048582554,-0.01449422490177676
1772018015609226500,8.9672265625,-0.04590834921598434,-0.038161680611968035,-0.03635605596210807
1772018015629193500,8.987193359375,-0.14370704466700554,-0.009836042098701,-0.039008671096432954
1772018015649161500,9.007161376953125,-0.07689619267582892,0.0028799393504858016,-0.04101334371604025
1772018015669129700,9.027129638671875,0.06711889502704144,-0.009523322887718677,-0.036631639766786246
1772018015689096400,9.047096435546875,0.12656886286139488,-0.02412204934358597,0.021915734938345848
1772018015709064400,9.067064453125,-0.109248310226202,-0.03270429198890924,-0.003813895732350647
1772018015729031700,9.08703173828125,-0.021364859589934348,-0.01118979479521513,-0.01157351514948532
1772018015748999700,9.106999755859375,0.05092471607327461,-0.04254851739406586,-0.007903210872597991
1772018015768966400,9.12696630859375,0.05433364773392677,-0.012554653407633305,-0.02437065380979329
1772018015788934400,9.146934326171875,0.08186930491328238,-0.02690554258227348,-0.00008870119675993918
1772018015808901600,9.166901611328125,-0.01533551629781723,-0.02077303117662668,0.024472360618598758
1772018015828869600,9.18686962890625,-0.05777998879551887,-0.0007505261063575744,0.03252235955074429
1772018015848836600,9.206836669921875,-0.0034931028127670287,-0.030500936725735662,0.03843881705291569
1772018015868804400,9.226804443359375,0.012670096480846405,-0.02699848156273365,0.03666289342157542
1772018015888771600,9.246771484375,0.0012409399718046187,-0.006617080052196979,0.025854389561526477
1772018015908739600,9.266739501953126,0.004403787916898727,-0.0065747022151947014,0.06918689694013447
1772018015928707600,9.28670751953125,-0.0034036709636449812,-0.040482817035913464,0.006952595616877079
1772018015948674600,9.306674560546876,-0.048799979004263874,-0.04562777870893478,-0.0016958075998350977
1772018015968642600,9.326642578125,-0.04702770863473415,-0.032109833227097984,-0.045559024321660396
1772018015988609500,9.346609619140626,0.030105215406417845,-0.07015782433152198,0.022666553305648266
1772018016008577500,9.36657763671875,-0.0372048182785511,-0.043244390703737735,0.00895593479592353
1772018016028544500,9.38654443359375,-0.021088380736112595,-0.0704056616127491,-0.03512929064612835
1772018016048512500,9.406512451171874,-0.0009101005822420119,-0.05381313099116087,0.01229370091650635
1772018016068479500,9.4264794921875,-0.05213876803815364,-0.08542349026352167,-0.02431391865387559
1772018016088447500,9.446447509765624,-0.064680269703269,-0.05348492195010185,0.014637085704877971
1772018016108414700,9.466414794921874,-0.10032792166769504,-0.03404343163818121,-0.04178454728424549
1772018016128382500,9.486382568359375,-0.020228549036383627,-0.020026596723496912,-0.07516600788235664
1772018016148349400,9.506349365234374,0.0892582461208105,-0.04517974268049001,-0.08025759540032595
1772018016168317400,9.5263173828125,0.02021978120803833,-0.01615852311849594,-0.018506474484130737
1772018016188284700,9.54628466796875,-0.06714286042451859,0.02908113305568695,-0.029280345422215758
1772018016208252400,9.56625244140625,0.0067693480044603346,-0.0006190086811780929,-0.06869407192189246
1772018016228219400,9.586219482421875,0.07280921562314033,-0.05743161374926567,-0.06890526698715985
1772018016248187600,9.606187744140625,-0.0007324059277772903,-0.051529403968155384,-0.08984137977100909
1772018016268155600,9.62615576171875,0.07952420309185981,-0.017693185339868068,-0.05051390678267926
1772018016288122600,9.64612255859375,-0.030706103909015653,-0.003397533483803272,-0.0032272184181958434
1772018016308090400,9.66609033203125,-0.04392682000994682,-0.03269990807473659,-0.04848831923920661
1772018016328057600,9.6860576171875,-0.0011789806514978407,-0.06920300782471894,0.009817446996085345
1772018016348026600,9.706026611328125,-0.17925415886640547,-0.04289338530898094,-0.06413443585615605
1772018016367993600,9.72599365234375,-0.14983809476792811,-0.054525955435633655,-0.09816880740504712
1772018016387961600,9.745961669921876,0.0672854837656021,-0.08972761719822883,-0.07755060146395117
1772018016407928600,9.765928466796876,0.13693828118443488,-0.07696896565109491,-0.048160585122182964
1772018016427896600,9.785896484375,0.059495560541748996,-0.06339432154595852,0.0015991788249462842
1772018016447863600,9.805863525390626,-0.037951252731680866,-0.009880758023262024,-0.019742957476526497
1772018016467831600,9.82583154296875,-0.03734685709774494,0.0019826982498168944,-0.010648490992747247
1772018016487799800,9.8457998046875,0.05491583153605461,-0.018694179075956344,-0.04737809297498315
1772018016507767600,9.865767578125,0.1121457852333784,-0.028047990615665912,-0.027244382615201172
1772018016527734800,9.88573486328125,0.07476034969091415,-0.04659750052392483,-0.019513423036970196
1772018016547702800,9.905702880859375,-0.13848258801698685,-0.059954994747042654,-0.04897760059349238
1772018016567669800,9.925669677734374,-0.18646949707269667,-0.07431757435947656,-0.02657190844742581
1772018016587638000,9.945637939453125,-0.04874094229340553,-0.1109413778796792,0.028011841590050605
1772018016607604700,9.965604736328125,0.03500935406088829,-0.0889922886610031,0.014146982366684824
1772018016627572700,9.98557275390625,-0.025443653336167334,-0.05459492901861667,0.020548867031931876
1772018016647540000,10.0055400390625,-0.09110708885788917,-0.05048164848089218,0.013910397131834179
1772018016667508000,10.025508056640625,-0.052854222831130025,-0.0300745280072093,0.02962282045064494
1772018016687474700,10.045474609375,0.02367956627309322,-0.052476037168502805,0.0103453981266357
1772018016707442700,10.065442626953125,0.05152502005398273,-0.0581380084529519,-0.02464965341426432
1772018016727410700,10.08541064453125,-0.015267711758613585,-0.055205169871449467,-0.017335384878143668
1772018016747378000,10.1053779296875,0.00870586902499199,-0.0364858563542366,-0.019957330879569052
1772018016767346000,10.125345947265625,0.07763093669116497,-0.03698533030897379,-0.03413434305833653
1772018016787312600,10.145312744140625,0.11504033763110637,-0.0419169414922595,-0.02259266608553007
1772018016807281000,10.165281005859375,-0.0699742844581604,-0.028180677084624767,-0.05708733035624027
1772018016827247900,10.185247802734375,-0.06843991449773311,-0.04214256694167852,0.031801625794451685
1772018016847215900,10.2052158203125,-0.05760054057538509,-0.04343932875394821,0.019402363877929745
1772018016867182800,10.225182861328125,-0.00045183542072772977,-0.05436725774258375,0.0041779250054620205
1772018016887150800,10.24515087890625,-0.011302899780869484,-0.046209670250117775,-0.05529951535770669
1772018016907117800,10.265117919921876,0.002010170778632164,-0.024117373168468473,-0.03523315287940204
1772018016927085800,10.2850859375,0.06853928321897983,-0.012763619983196257,-0.031078279955964534
1772018016947052800,10.305052734375,-0.010546528455615043,-0.03185761203169823,-0.04549206003267318
1772018016967020800,10.325020751953126,-0.0005658171892166138,-0.006608896745741367,-0.042851573727559295
1772018016986987800,10.34498779296875,-0.005347206246852874,-0.001875146222114563,-0.0048208625514991575
1772018017006955800,10.364955810546874,0.028507132560014723,-0.009017711453139782,-0.013434614579938352
1772018017026922800,10.3849228515625,0.025125088906288146,0.0008820435315370559,-0.0194310785157606
1772018017046890800,10.404890869140624,0.00717909784913063,-0.05372954436093569,-0.04867739380421117
1772018017066857700,10.424857666015624,-0.026374212184548378,-0.05091887085437774,0.009966262615937738
1772018017086825700,10.44482568359375,-0.09646773910820483,-0.08087064926475286,0.0015667926589958369
1772018017106792700,10.464792724609374,-0.05439852966368198,-0.07251081719845533,-0.008455584058351815
1772018017126760700,10.4847607421875,-0.018918635481595992,-0.06370061101615429,-0.06632020066371187
1772018017146727700,10.504727783203125,0.028820436292886734,0.021186288152635097,0.007642349713016301
1772018017166696000,10.524696044921875,0.005253098222613334,-0.006857610809803009,-0.024978940167557445
1772018017186663000,10.544662841796875,-0.053554480054974554,0.011137187825143337,-0.024840938202664253
1772018017206630700,10.564630615234375,-0.06117547645270824,0.0051703883752226825,-0.016711462559830397
1772018017226598000,10.584597900390625,0.058443421140313145,0.0172451493114233,-0.0058753217741847035
1772018017246566000,10.60456591796875,0.23310031534433365,0.0006432663396000862,-0.04166121316552162
1772018017266532900,10.624532958984375,0.15283318493068218,-0.0055544192567467685,-0.008194448904134333
1772018017286500600,10.64450048828125,-0.055066638183593745,0.02300181314200163,-0.044733715946041044
1772018017306467800,10.6644677734375,-0.31426527138054366,0.09744009127169848,0.08552589119207113
1772018017326435800,10.684435791015625,0.05048340204656124,-0.022376082459092138,0.17308898730017244
1772018017346402800,10.70440283203125,0.3565641979277134,-0.2210395829334855,0.0021254677213728428
1772018017366370600,10.72437060546875,0.1893698946893215,-0.09961334365755319,-0.027292057681828737
1772018017386337800,10.744337890625,-0.3520323997169733,-0.028833880296349524,-0.005509922527894377
