time,seconds_elapsed,z,y,x
1772017982467815400,0.0918154296875,0.08656826615333557,-0.15060701966285706,0.3485778570175171
1772017982487784400,0.111784423828125,0.1233672946691513,-0.18320995569229126,0.2265559732913971
1772017982507752400,0.13175244140625,0.11851474642753601,-0.1675891876220703,0.18031737208366394
1772017982527721500,0.151721435546875,0.10188499838113785,-0.1588176041841507,0.14630763232707977
1772017982547689500,0.171689453125,0.17433753609657288,-0.1411261409521103,0.10800448805093765
1772017982567658500,0.191658447265625,0.08003297448158264,-0.09853747487068176,0.10303536057472229
1772017982587626500,0.21162646484375,-0.036038387566804886,-0.11750481277704239,0.10817515850067139
1772017982607595500,0.231595458984375,-0.047265950590372086,-0.08737289905548096,0.05083814263343811
1772017982627563500,0.2515634765625,-0.046957943588495255,-0.053505972027778625,0.01980743557214737
1772017982647532500,0.271532470703125,-0.05586342513561249,-0.010679441504180431,0.01465262658894062
1772017982667500500,0.29150048828125,-0.03570803254842758,0.0004553496837615967,-0.026989849284291267
1772017982687469600,0.311469482421875,-0.03774462267756462,-0.010698370635509491,-0.006341977044939995
1772017982707437300,0.331437255859375,-0.021725717931985855,-0.010942061431705952,0.08985866606235504
1772017982727406300,0.35140625,-0.007163893897086382,0.03923545777797699,0.08566256612539291
1772017982747374300,0.371374267578125,0.00903838500380516,0.02696523256599903,-0.02552734687924385
1772017982767343400,0.39134326171875,-0.0020103822462260723,0.035411495715379715,-0.06971973925828934
1772017982787311400,0.411311279296875,-0.037825807929039,0.04324964061379433,-0.07400843501091003
1772017982807280400,0.4312802734375,-0.04174850136041641,0.01428935956209898,-0.11378689855337143
1772017982827248400,0.451248291015625,-0.01120002567768097,0.09257808327674866,-0.0794336125254631
1772017982847217400,0.471217529296875,-0.020788367837667465,0.11156263947486877,-0.02235943265259266
1772017982867185400,0.491185302734375,-0.027257775887846947,0.11750376969575882,0.02398272417485714
1772017982887154400,0.511154541015625,-0.051458120346069336,0.10041651874780655,-0.014421428553760052
1772017982907122400,0.531122314453125,-0.06225035339593887,0.10921604931354523,-0.08920479565858841
1772017982927091500,0.551091552734375,-0.04396628588438034,0.10901233553886414,-0.14567819237709045
1772017982947059500,0.5710595703125,-0.028944289311766624,0.0628473088145256,-0.14983385801315308
1772017982967028500,0.591028564453125,-0.016432810574769974,0.00548404548317194,-0.10416049510240555
1772017982986996500,0.61099658203125,-0.023847274482250214,-0.0034196064807474613,-0.024120047688484192
1772017983006965500,0.630965576171875,-0.03947257250547409,0.014160452410578728,0.038925498723983765
1772017983026933500,0.65093359375,-0.020262185484170914,0.023535197600722313,0.0303101297467947
1772017983046902500,0.670902587890625,-0.028889695182442665,0.005044728517532349,-0.013467484153807163
1772017983066870500,0.69087060546875,-0.04557190090417862,-0.024674076586961746,-0.06939282268285751
1772017983086839600,0.710839599609375,-0.03478704020380974,0.002044316381216049,-0.10863255709409714
1772017983106807600,0.7308076171875,-0.029580174013972282,0.03295532613992691,-0.08033424615859985
1772017983126776600,0.750776611328125,-0.01062711887061596,0.031952403485774994,-0.02996642328798771
1772017983146744600,0.77074462890625,0.006717706564813852,-0.009763753972947598,0.01117953471839428
1772017983166713600,0.790713623046875,0.00797270704060793,0.008257554844021797,0.023859195411205292
1772017983186681300,0.810681396484375,0.007568542845547199,0.006379703059792519,0.03083106316626072
1772017983206650400,0.830650390625,0.009818827733397484,0.011333259753882885,-0.003743831068277359
1772017983226618400,0.850618408203125,0.019604723900556564,0.002733333967626095,-0.03890245407819748
1772017983246587400,0.87058740234375,0.018923651427030563,0.00128090288490057,-0.04618511348962784
1772017983266555400,0.890555419921875,0.0032680542208254337,0.0036999667063355446,-0.02545875310897827
1772017983286524400,0.9105244140625,0.0018493691459298134,0.009772486984729767,-0.005895542446523905
1772017983306492400,0.930492431640625,0.007902794517576694,-0.00804101675748825,-0.014849314466118813
1772017983326461400,0.95046142578125,-0.004221418406814337,0.008965062908828259,-0.02558738738298416
1772017983346429400,0.970429443359375,-0.009438017383217812,0.006388988345861435,-0.02484862506389618
1772017983366398200,0.990398193359375,-0.00486011803150177,-0.0037855328992009163,-0.0038942976389080286
1772017983386366500,1.010366455078125,-0.00954628735780716,0.009858784265816212,0.017027534544467926
1772017983406335200,1.030335205078125,0.004780094604939222,-0.02888961136341095,0.028325136750936508
1772017983426303500,1.050303466796875,0.017250102013349533,-0.030757535248994827,0.024900682270526886
1772017983446272000,1.07027197265625,0.01571817882359028,-0.018242930993437767,-0.004191650077700615
1772017983466240000,1.090239990234375,0.012486893683671951,0.0004113242030143738,-0.038442790508270264
1772017983486209000,1.110208984375,0.012821939773857594,0.011463194154202938,-0.06730043143033981
1772017983506177000,1.130177001953125,0.018401753157377243,0.01621204800903797,-0.08044467121362686
1772017983526146000,1.15014599609375,-0.0003658984787762165,0.03893047571182251,-0.06084892526268959
1772017983546114000,1.170114013671875,-0.010053844191133976,0.03778664767742157,-0.023813700303435326
1772017983566082000,1.19008203125,-0.0419326014816761,0.03841395676136017,-0.0056478665210306644
1772017983586051000,1.210051025390625,0.0069812992587685585,0.056022029370069504,-0.00527731841430068
1772017983606019000,1.23001904296875,0.0394691601395607,0.06264494359493256,0.026955515146255493
1772017983625988000,1.249988037109375,0.01549512892961502,0.06082441657781601,0.022236045449972153
1772017983645955800,1.269955810546875,0.022542424499988556,0.05125684291124344,-0.0011633490212261677
1772017983665925000,1.289925048828125,0.02160435914993286,0.030914075672626495,0.02086341194808483
1772017983685892900,1.309892822265625,0.04203703999519348,0.006584454327821732,0.08454854041337967
1772017983705862000,1.32986181640625,0.05468382313847542,-0.009402330964803696,0.11708737909793854
1772017983725830000,1.349829833984375,0.03776833415031433,0.013520780019462109,0.06924038380384445
1772017983745799000,1.369798828125,0.01821756549179554,0.013404485769569874,0.040786925703287125
1772017983765767000,1.389766845703125,0.028034068644046783,0.04202887415885925,0.032041966915130615
1772017983785736000,1.40973583984375,0.02991338074207306,0.026936285197734833,0.03567810356616974
1772017983805704000,1.429703857421875,0.037182457745075226,0.008420637808740139,0.034621525555849075
1772017983825673000,1.4496728515625,0.041580893099308014,0.0075246552005410194,0.05970323830842972
1772017983845641000,1.469640869140625,0.0331176333129406,-0.013259186409413815,0.07558447122573853
1772017983865610000,1.48960986328125,0.04014613479375839,-0.025279317051172256,0.03573116287589073
1772017983885578000,1.509577880859375,0.025600627064704895,-0.013495056889951229,0.011876346543431282
1772017983905546000,1.5295458984375,0.016976099461317062,0.005052420310676098,0.03234636411070824
1772017983925515000,1.549514892578125,0.02358473278582096,0.00955023244023323,0.033485930413007736
1772017983945483000,1.56948291015625,0.019152427092194557,-0.005519202910363674,0.010146255604922771
1772017983965452000,1.5894521484375,0.013678915798664093,-0.04390694200992584,-0.006864541210234165
1772017983985420000,1.609419921875,0.016876941546797752,0.0001890193670988083,0.019183097407221794
1772017984005389000,1.62938916015625,0.017168784514069557,0.008681283332407475,0.03314443677663803
1772017984025357000,1.649357177734375,0.029588069766759872,-0.023287510499358177,0.00548539636656642
1772017984045326000,1.669326171875,0.059748582541942596,-0.04005115106701851,-0.017095403745770454
1772017984065294000,1.689294189453125,0.06525897979736328,-0.027965351939201355,0.006803128402680159
1772017984085263000,1.70926318359375,0.03727193549275398,-0.026385348290205002,-0.017650386318564415
1772017984105230800,1.72923095703125,-0.041068967431783676,-0.014857073314487934,-0.06821486353874207
1772017984125198800,1.74919873046875,-0.03153008595108986,-0.02711915597319603,-0.0981978103518486
1772017984145168000,1.76916796875,-0.0420815646648407,-0.004756084643304348,-0.08157332241535187
1772017984165136000,1.789135986328125,-0.06808075308799744,-0.01651972532272339,-0.051875755190849304
1772017984185105000,1.80910498046875,-0.045236144214868546,-0.0025692805647850037,-0.03189520537853241
1772017984205073000,1.829072998046875,-0.05170000344514847,-0.03158482536673546,-0.02073342353105545
1772017984225042000,1.8490419921875,-0.06448549777269363,-0.01762228086590767,0.024732820689678192
1772017984245010000,1.869010009765625,-0.03492594137787819,-0.010000200942158699,0.022641213610768318
1772017984264979000,1.88897900390625,-0.0450313463807106,-0.015925565734505653,0.000522656599059701
1772017984284947000,1.908947021484375,-0.035347674041986465,-0.024762149900197983,-0.024261949583888054
1772017984304916000,1.928916015625,-0.032961707562208176,-0.036934830248355865,-0.02914731204509735
1772017984324884000,1.948884033203125,-0.021334538236260414,-0.033749572932720184,-0.028134554624557495
1772017984344852000,1.96885205078125,-0.010003408417105675,-0.021689914166927338,-0.014126656576991081
1772017984364821000,1.988821044921875,-0.013499848544597626,0.012191710062325,0.0036209379322826862
1772017984384789000,2.0087890625,-0.01906880922615528,0.012614264152944088,0.010881491005420685
1772017984404758000,2.028758056640625,-0.019662657752633095,0.0038656117394566536,0.0081705991178751
1772017984424726000,2.04872607421875,-0.01722734607756138,0.005015782080590725,0.02518383413553238
1772017984444695800,2.06869580078125,-0.014817744493484497,0.010225442238152027,0.04379656910896301
1772017984464663800,2.088663818359375,-0.011444319039583206,0.027161017060279846,0.021398581564426422
1772017984484632800,2.1086328125,-0.02227284386754036,0.05768747255206108,0.0017696686554700136
1772017984504600600,2.1286005859375,-0.01472759060561657,0.04297616705298424,-0.0030716087203472853
1772017984524568600,2.148568603515625,-0.014250703155994415,0.04595630615949631,0.011272379197180271
1772017984544537600,2.16853759765625,-0.018080344423651695,0.03360056132078171,0.039684128016233444
1772017984564505600,2.188505615234375,0.006250928621739149,0.026003308594226837,0.0449499785900116
1772017984584474600,2.208474609375,0.01569414511322975,0.019869845360517502,0.028246304020285606
1772017984604442600,2.228442626953125,0.01443488709628582,0.027928084135055542,0.05013759061694145
1772017984624411600,2.24841162109375,0.009452581405639648,0.09903010725975037,0.07097039371728897
1772017984644379600,2.268379638671875,0.03198480233550072,0.12143875658512115,0.06887254118919373
1772017984664348700,2.2883486328125,0.060377366840839386,0.13104817271232605,0.07130548357963562
1772017984684316700,2.308316650390625,0.12471769005060196,0.12564264237880707,0.0612732358276844
1772017984704284700,2.32828466796875,0.07493032515048981,0.11598972231149673,0.055882904678583145
1772017984724253700,2.348253662109375,0.04964374005794525,0.05969613790512085,0.062247779220342636
1772017984744221700,2.3682216796875,0.054295457899570465,0.027628730982542038,0.042445216327905655
1772017984764190700,2.388190673828125,0.041127484291791916,-0.02231484465301037,-0.02154485322535038
1772017984784158700,2.40815869140625,0.024773050099611282,-0.029739372432231903,-0.0717119425535202
1772017984804127700,2.428127685546875,0.013555426150560379,-0.016976209357380867,-0.08378805220127106
1772017984824095700,2.448095703125,0.017789818346500397,-0.027748260647058487,-0.07431645691394806
1772017984844063500,2.4680634765625,0.023098481819033623,-0.05097141116857529,-0.04454493522644043
1772017984864032800,2.48803271484375,0.01847941055893898,-0.028950203210115433,-0.005894278176128864
1772017984884000500,2.50800048828125,0.020206771790981293,-0.006235736887902021,0.01615450531244278
1772017984903969500,2.527969482421875,0.02025199495255947,-0.009715528227388859,0.009097272530198097
1772017984923937500,2.5479375,0.014290775172412395,-0.017175842076539993,0.010567070916295052
1772017984943906600,2.567906494140625,0.007634621113538742,-0.027000725269317627,-0.013847887516021729
1772017984963874600,2.58787451171875,0.015311947092413902,-0.023939253762364388,-0.047066234052181244
1772017984983842600,2.607842529296875,0.014793163165450096,-0.04437049478292465,-0.06155649200081825
1772017985003811600,2.6278115234375,0.004482068587094545,-0.017290981486439705,-0.03787558525800705
1772017985023779600,2.647779541015625,0.007909279316663742,0.023700207471847534,0.000436573289334774
1772017985043748600,2.66774853515625,0.00435500405728817,0.025931309908628464,0.015639204531908035
1772017985063716600,2.687716552734375,0.0227288156747818,0.02116926945745945,0.01098567433655262
1772017985083685600,2.707685546875,0.032166775315999985,0.019366037100553513,0.027788974344730377
1772017985103653600,2.727653564453125,0.020237594842910767,0.0014789775013923645,0.05087345838546753
1772017985123621600,2.74762158203125,0.02618272416293621,-0.01253603957593441,0.027945449575781822
1772017985143590700,2.767590576171875,0.028140727430582047,-0.043194595724344254,0.019083794206380844
1772017985163558700,2.78755859375,0.016793645918369293,-0.07305720448493958,0.020353220403194427
1772017985183527700,2.807527587890625,0.019534870982170105,-0.05405252054333687,0.0018702917732298374
1772017985203495700,2.82749560546875,-0.017163971439003944,-0.09790056198835373,-0.027595331892371178
1772017985223464700,2.847464599609375,-0.06461358070373535,-0.08613917976617813,-0.03663558140397072
1772017985243432400,2.867432373046875,-0.05935340002179146,-0.03924822434782982,-0.03733107075095177
1772017985263400400,2.887400390625,-0.04513678327202797,-0.03442501649260521,-0.03835603967308998
1772017985283369500,2.907369384765625,-0.04507915675640106,-0.03726373612880707,-0.055815745145082474
1772017985303337500,2.92733740234375,-0.038837406784296036,-0.04059647023677826,-0.05986030772328377
1772017985323306500,2.947306396484375,-0.034612156450748444,-0.010560846887528896,-0.017731502652168274
1772017985343274500,2.9672744140625,-0.02695007249712944,0.00003965478390455246,0.01104370504617691
1772017985363242800,2.98724267578125,-0.00012596417218446732,-0.04662143066525459,0.018404824659228325
1772017985383211500,3.00721142578125,0.01583673804998398,-0.05484607443213463,0.025785861536860466
1772017985403179500,3.027179443359375,0.008205734193325043,-0.011323804035782814,0.023381318897008896
1772017985423148500,3.0471484375,-0.001826693769544363,-0.030971374362707138,0.0036891656927764416
1772017985443116500,3.067116455078125,-0.004604054149240255,-0.04487057402729988,-0.027623359113931656
1772017985463084800,3.087084716796875,-0.011122887954115868,-0.024212151765823364,-0.050824541598558426
1772017985483052800,3.107052734375,0.03032068908214569,-0.02834928035736084,-0.052923534065485
1772017985503020800,3.127020751953125,0.07847809046506882,-0.0677216425538063,-0.04808364808559418
1772017985522989800,3.14698974609375,0.06371644884347916,-0.03634179010987282,-0.05339040979743004
1772017985542957800,3.166957763671875,0.06000388413667679,0.011533108539879322,-0.05971318483352661
1772017985562926800,3.1869267578125,0.06803018599748611,-0.055364854633808136,-0.014746470376849174
1772017985582894800,3.206894775390625,0.029030807316303253,-0.04016843065619469,0.03559913486242294
1772017985602862800,3.22686279296875,-0.004143342841416597,-0.0366193950176239,0.031113430857658386
1772017985622831900,3.246831787109375,-0.0017665890045464039,-0.055954426527023315,-0.010657881386578083
1772017985642799900,3.2667998046875,0.003008594736456871,-0.08089950680732727,-0.04368499666452408
1772017985662769000,3.286768798828125,-0.007445211056619883,-0.10132881999015808,-0.03752695024013519
1772017985682736600,3.306736572265625,-0.010915977880358696,-0.0706382468342781,-0.02416940964758396
1772017985702704600,3.32670458984375,-0.017966145649552345,-0.04781468212604523,-0.01799575611948967
1772017985722673700,3.346673583984375,-0.028575409203767776,-0.056541431695222855,0.015032559633255005
1772017985742641700,3.3666416015625,-0.02090160921216011,-0.06241737678647041,0.037335485219955444
1772017985762610700,3.386610595703125,0.008970513939857483,-0.03760603815317154,0.02108709327876568
1772017985782578700,3.40657861328125,-0.003712721634656191,-0.04253197833895683,0.0060312170535326
1772017985802546700,3.426546630859375,-0.004888179246336222,-0.023098688572645187,0.01686936989426613
1772017985822515700,3.446515625,0.00017554359510540962,0.0019429195672273636,0.02336026355624199
1772017985842483700,3.466483642578125,-0.01944795995950699,0.009751574136316776,0.02353549934923649
1772017985862452700,3.48645263671875,-0.05240168422460556,0.010972891002893448,0.041329581290483475
1772017985882420700,3.506420654296875,-0.0445626825094223,0.027151230722665787,0.0659952163696289
1772017985902388700,3.526388671875,-0.02586786076426506,0.03604724630713463,0.06233833357691765
1772017985922357800,3.546357666015625,-0.014962118119001389,0.008831548504531384,0.0073048933409154415
1772017985942325800,3.56632568359375,-0.015356574207544327,0.010137896053493023,-0.03267525136470795
1772017985962294800,3.586294677734375,-0.016701173037290573,0.006753653287887573,-0.03252297639846802
1772017985982262800,3.6062626953125,-0.009750451892614365,-0.01408989168703556,-0.017208127304911613
1772017986002230500,3.62623046875,-0.0014152615331113338,0.0004646526649594307,0.0063781035132706165
1772017986022199800,3.64619970703125,-0.0009472258388996124,0.02492440491914749,0.02765559032559395
1772017986042167600,3.66616748046875,0.001945696771144867,-0.0050921933725476265,0.02234307862818241
1772017986062135800,3.6861357421875,0.00201159599237144,0.005160393193364143,0.007464691996574402
1772017986082104600,3.7061044921875,0.010813314467668533,0.0427745096385479,0.004720892757177353
1772017986102072800,3.72607275390625,0.020033039152622223,0.038008298724889755,-0.00931750237941742
1772017986122041600,3.74604150390625,0.021328598260879517,0.030583828687667847,-0.02782491222023964
1772017986142009900,3.766009765625,0.02416970767080784,0.014935733750462532,-0.017610765993595123
1772017986161977900,3.785977783203125,0.027481576427817345,-0.014186933636665344,0.01706840842962265
1772017986181947000,3.80594677734375,0.022499926388263702,0.014008690603077412,0.031266938894987106
1772017986201915000,3.825914794921875,0.012177841737866402,0.027516517788171768,-0.006256725639104843
1772017986221883600,3.845883544921875,0.0018603578209877014,0.0267571322619915,-0.043684836477041245
1772017986241852000,3.865851806640625,-0.01111530140042305,0.03283847123384476,-0.04173219949007034
1772017986261820000,3.88581982421875,-0.0043732840567827225,0.040163226425647736,-0.018800877034664154
1772017986281789000,3.905788818359375,0.0015378615353256464,0.030148837715387344,-0.023984219878911972
1772017986301757000,3.9257568359375,0.008166034705936909,-0.009029775857925415,-0.016711676493287086
1772017986321726000,3.945725830078125,0.004161412362009287,-0.031674206256866455,-0.010680094361305237
1772017986341693700,3.965693603515625,-0.006936197634786367,-0.038562897592782974,-0.014823848381638527
1772017986361661700,3.98566162109375,-0.017231754958629608,-0.002470147330313921,-0.02699938230216503
1772017986381630700,4.005630615234375,-0.02554166503250599,-0.016115492209792137,-0.06351596862077713
1772017986401598700,4.0255986328125,-0.022872650995850563,-0.015030354261398315,-0.08048593252897263
1772017986421566700,4.045566650390625,-0.014818066731095314,0.010034466162323952,-0.06633107364177704
1772017986441535700,4.06553564453125,-0.006128536071628332,-0.007630759850144386,-0.03504503518342972
1772017986461504300,4.085504150390625,0.005779162514954805,0.0012736758217215538,0.0031380890868604183
1772017986481473300,4.105473388671875,0.006959013640880585,0.012643616646528244,0.01095929741859436
1772017986501441300,4.125441162109375,-0.007552789989858866,0.018702946603298187,0.0018040935974568129
1772017986521409000,4.145408935546875,-0.004948102403432131,0.013921883888542652,-0.005798039026558399
1772017986541378000,4.1653779296875,0.0014741597697138786,0.0168440081179142,-0.0009661414078436792
1772017986561346000,4.185345947265625,-0.012276418507099152,0.03870398551225662,0.021548649296164513
1772017986581314000,4.20531396484375,-0.003743602894246578,0.01740679144859314,0.025597577914595604
1772017986601283000,4.225282958984375,-0.0031513157300651073,0.00476689450442791,0.009857229888439178
1772017986621251000,4.2452509765625,-0.0003712419420480728,-0.0047057028859853745,-0.006519080605357885
1772017986641219000,4.265218994140625,0.0013107156846672297,-0.004969464614987373,-0.02533026598393917
1772017986661188000,4.28518798828125,-0.008313152007758617,0.014513853006064892,-0.02944914624094963
1772017986681156000,4.305156005859375,0.0011964887380599976,-0.0136320311576128,0.018393389880657196
1772017986701125000,4.325125,0.01680031232535839,-0.016325339674949646,0.03906482830643654
1772017986721093000,4.345093017578125,0.021812066435813904,-0.014643660746514797,0.010426932945847511
1772017986741061000,4.36506103515625,0.013918433338403702,0.005140696652233601,-0.013536101207137108
1772017986761030100,4.385030029296875,0.014759507961571217,0.004506171680986881,0.0020754728466272354
1772017986780998100,4.404998046875,0.019059401005506516,0.00695574376732111,0.02137237973511219
1772017986800966100,4.424966064453125,0.011837873607873917,0.008325356990098953,-0.005640077870339155
1772017986820935000,4.444934814453125,0.00030859094113111496,0.008698574267327785,-0.0446002222597599
1772017986840903200,4.464903076171875,-0.005734363105148077,-0.02909780852496624,-0.045078884810209274
1772017986860872000,4.484871826171875,-0.0001635090447962284,-0.01340034045279026,-0.0012069467920809984
1772017986880840000,4.50483984375,0.009767340496182442,0.005927820689976215,0.0346812829375267
1772017986900808200,4.52480810546875,0.013989273458719254,0.025085004046559334,0.044572170823812485
1772017986920777000,4.54477685546875,0.014839742332696915,0.025059327483177185,0.01755090430378914
1772017986940745200,4.5647451171875,0.014233242720365524,0.0062040966004133224,-0.007819714955985546
1772017986960713200,4.584713134765625,0.009289568290114403,-0.0044835410080850124,-0.018304437398910522
1772017986980682200,4.60468212890625,0.006278746761381626,-0.0006904555484652519,0.006537065841257572
1772017987000650200,4.624650146484375,0.008182591758668423,0.004011515527963638,0.020771803334355354
1772017987020618200,4.6446181640625,0.0002500796690583229,-0.023131530731916428,-0.009625199250876904
1772017987040587300,4.664587158203125,-0.00826243031769991,-0.021491605788469315,-0.02368963323533535
1772017987060555300,4.68455517578125,-0.010671619325876236,-0.006193398963660002,-0.040742404758930206
1772017987080523000,4.70452294921875,-0.01769103668630123,-0.025442032143473625,-0.0473780632019043
1772017987100492300,4.7244921875,-0.01433936320245266,-0.036558978259563446,-0.028188694268465042
1772017987120460000,4.7444599609375,-0.010217113420367241,-0.016500312834978104,0.008753525093197823
1772017987140428000,4.764427978515625,0.006139340810477734,-0.020473692566156387,0.020613577216863632
1772017987160397000,4.78439697265625,0.017432529479265213,0.015381773002445698,0.0043159169144928455
1772017987180365000,4.804364990234375,-0.0018630241975188255,0.0022291159257292747,-0.025497406721115112
1772017987200334000,4.824333984375,0.0009543111082166433,-0.015071418136358261,-0.014737116172909737
1772017987220302000,4.844302001953125,-0.00888601690530777,-0.00318360049277544,0.0304136723279953
1772017987240270000,4.86427001953125,-0.0006282362155616283,-0.014187727123498917,0.04017035663127899
1772017987260239000,4.884239013671875,0.002012410433962941,-0.016901008784770966,0.004268443211913109
1772017987280207000,4.90420703125,-0.002143950667232275,0.015030178241431713,-0.01406701747328043
1772017987300175000,4.924175048828125,0.002266502473503351,0.0016700103878974915,-0.003946966025978327
1772017987320144100,4.94414404296875,0.0028821774758398533,0.02702213078737259,-0.015772856771945953
1772017987340112100,4.964112060546875,-0.012585452757775784,0.04009707272052765,-0.0309491865336895
1772017987360080100,4.984080078125,-0.007839223369956017,0.003377680666744709,-0.01870858483016491
1772017987380049200,5.004049072265625,-0.00898595992475748,-0.017577558755874634,0.0022469793912023306
1772017987400017000,5.024016845703125,-0.009251613169908524,-0.01881449669599533,0.043889615684747696
1772017987419985200,5.043985107421875,-0.0115404287353158,-0.000721195712685585,0.057955652475357056
1772017987439954000,5.063953857421875,-0.022464744746685028,0.015549656003713608,0.03406985104084015
1772017987459922000,5.083921875,-0.012611998245120049,0.023554110899567604,0.0004801314789801836
1772017987479890000,5.103889892578125,-0.009918125346302986,0.01535822357982397,-0.021609997376799583
1772017987499859000,5.12385888671875,-0.0038882261142134666,0.013591752387583256,-0.00899557676166296
1772017987519826700,5.14382666015625,-0.001176527701318264,0.010577269829809666,0.028686894103884697
1772017987539794700,5.163794677734375,0.0010271428618580103,0.020592140033841133,0.02874390408396721
1772017987559763700,5.183763671875,-0.004882732406258583,-0.004808090627193451,0.005674421787261963
1772017987579731700,5.203731689453125,-0.005620973650366068,-0.01986202597618103,-0.0020889174193143845
1772017987599699700,5.22369970703125,0.0017246818169951439,-0.0033973543904721737,0.0013059719931334257
1772017987619668700,5.243668701171875,0.00032592518255114555,0.012502564117312431,-0.0023538190871477127
1772017987639636700,5.26363671875,-0.00305041391402483,0.005395231768488884,-0.012650714255869389
1772017987659604700,5.283604736328125,-0.005376039072871208,-0.03257846087217331,-0.005298593081533909
1772017987679573800,5.30357373046875,0.0015836586244404316,-0.0032852906733751297,0.014811817556619644
1772017987699540700,5.323540771484375,-0.001927245408296585,0.0067923832684755325,0.010771986097097397
1772017987719508700,5.3435087890625,-0.003485637716948986,0.006796633824706078,-0.015126730315387249
1772017987739477800,5.363477783203125,-0.007434917148202658,0.005491049028933048,-0.026222825050354004
1772017987759445800,5.38344580078125,-0.008678112179040909,-0.017581205815076828,-0.02728319726884365
1772017987779413800,5.403413818359375,-0.006276458501815796,-0.012792196124792099,-0.01596800610423088
1772017987799382800,5.4233828125,-0.012854496017098427,-0.010501340962946415,0.008780574426054955
1772017987819350800,5.443350830078125,-0.003033746499568224,-0.003395125735551119,0.0029378985054790974
1772017987839318800,5.46331884765625,-0.003527538850903511,0.010775672271847725,-0.014284897595643997
1772017987859287800,5.483287841796875,0.0032171173952519894,0.021080024540424347,-0.009192208759486675
1772017987879255800,5.503255859375,-0.0034223017282783985,0.01177823543548584,0.010116448625922203
1772017987899223800,5.523223876953125,-0.002783831674605608,0.003228483721613884,0.016396116465330124
1772017987919192800,5.54319287109375,-0.0051957955583930016,0.005432772450149059,0.01850622147321701
1772017987939160800,5.563160888671875,0.0001454884186387062,0.013318500481545925,0.013161382637917995
1772017987959128800,5.58312890625,-0.0017191125079989433,0.015625951811671257,0.02450469695031643
1772017987979096600,5.6030966796875,-0.001664990559220314,0.00901008304208517,0.015504355542361736
1772017987999065600,5.623065673828125,-0.0083454679697752,0.014145943336188793,0.003347101155668497
1772017988019033600,5.64303369140625,0.000924781197682023,0.014495490118861198,0.008918828330934048
1772017988039001600,5.663001708984375,0.008344907313585281,0.014204634353518486,0.00811978429555893
1772017988058970600,5.682970703125,-0.002448023296892643,0.030091410502791405,-0.005621784366667271
1772017988078938600,5.702938720703125,0.010567080229520798,0.0023969728499650955,-0.0031148535199463367
1772017988098907000,5.722906982421875,0.005459152162075043,0.00775829516351223,0.01962290145456791
1772017988118875600,5.742875732421875,0.013205723837018013,0.039758313447237015,0.01804294064640999
1772017988138843600,5.76284375,0.016508661210536957,0.022228185087442398,-0.005818948149681091
1772017988158812000,5.78281201171875,0.00613435311242938,0.02733824960887432,-0.00523554440587759
1772017988178780700,5.80278076171875,0.010052619501948357,0.035081636160612106,0.012853004038333893
1772017988198749000,5.8227490234375,0.012217942625284195,0.014515426009893417,0.01395716704428196
1772017988218717000,5.842717041015625,0.011160501278936863,0.007874811999499798,-0.009425667114555836
1772017988238684700,5.8626845703125,0.011862896382808685,0.003397686406970024,-0.02751849591732025
1772017988258653700,5.88265380859375,0.013735238462686539,0.002303183078765869,0.0034360671415925026
1772017988278621700,5.90262158203125,0.012298183515667915,-0.0018003275617957115,0.05069177597761154
1772017988298589700,5.922589599609375,0.013354797847568989,-0.012946488335728645,0.05939114838838577
1772017988318558700,5.942558837890625,0.01611446775496006,0.008545554243028164,0.03742613270878792
1772017988338526700,5.962526611328125,0.009272146038711071,0.005763142369687557,-0.010815586894750595
1772017988358494700,5.98249462890625,0.009108906611800194,0.004969636909663677,-0.03611033782362938
1772017988378463700,6.002463623046875,0.00465032272040844,0.01008460484445095,-0.014427647925913334
1772017988398431700,6.022431640625,-0.005054826382547617,0.03742652386426926,0.014701928943395615
1772017988418399700,6.042399658203125,-0.005868733860552311,0.027704808861017227,0.007586103864014149
1772017988438368800,6.06236865234375,-0.0005843616090714931,0.0068407487124204636,-0.020593713968992233
1772017988458337800,6.082337890625,0.012103378772735596,0.0024662893265485764,-0.01234535500407219
1772017988478305800,6.102305908203125,0.023015471175312996,0.019033772870898247,0.010897196829319
1772017988498273800,6.122273681640625,0.016475245356559753,0.029454998672008514,0.03247235715389252
1772017988518242800,6.142242919921875,0.013343529775738716,0.026109734550118446,0.03328841179609299
1772017988538210800,6.1622109375,0.011596020311117172,0.02397729828953743,0.0026842430233955383
1772017988558178600,6.182178466796875,0.019246775656938553,0.012150874361395836,-0.02064536325633526
1772017988578147600,6.202147705078125,0.02331724390387535,0.0017495835199952126,-0.015789637342095375
1772017988598115600,6.222115478515625,0.015868136659264565,-0.0024180300533771515,-0.012306581251323223
1772017988618083800,6.242083740234375,0.011946793645620346,-0.0017461813986301422,0.00489537138491869
1772017988638051800,6.2620517578125,0.0126890167593956,0.007455838844180107,0.023487165570259094
1772017988658020600,6.2820205078125,0.016537368297576904,0.007110261358320713,0.014110737480223179
1772017988677988900,6.30198876953125,0.013340195640921593,0.022265935316681862,-0.020087305456399918
1772017988697956900,6.321956787109375,0.011489033699035645,0.017354000359773636,-0.03851877525448799
1772017988717926000,6.34192578125,0.014060535468161106,0.0022511063143610954,-0.016356874257326126
1772017988737894000,6.361893798828125,0.0067592887207865715,0.014264071360230446,0.01299123466014862
1772017988757862000,6.38186181640625,0.0046131000854074955,0.0286933071911335,0.011306600645184517
1772017988777831000,6.401830810546875,0.002230095909908414,0.007930916734039783,-0.006616429425776005
1772017988797799000,6.421798828125,-0.00001869630068540573,0.0007587382569909096,-0.0009681261726655066
1772017988817766700,6.4417666015625,0.007824422791600227,-0.005583342630416155,-0.0030693798325955868
1772017988837734700,6.461734619140625,0.0034570142161101103,0.0014208192005753517,0.015580220147967339
1772017988857703700,6.48170361328125,0.003432020079344511,-0.00929814949631691,0.02984614297747612
1772017988877671700,6.501671630859375,0.010774057358503342,-0.016466448083519936,0.03635469451546669
1772017988897639700,6.5216396484375,0.0028430260717868805,0.013008028268814087,0.03489810228347778
1772017988917607700,6.541607666015625,-0.00824495404958725,0.021555393934249878,0.010821246542036533
1772017988937576700,6.56157666015625,-0.013431292027235031,-0.004305036272853613,-0.006384845823049545
1772017988957544700,6.581544677734375,-0.01775497943162918,-0.02515769749879837,-0.012789340689778328
1772017988977513000,6.601512939453125,-0.013056227937340736,-0.021309901028871536,0.0028113017324358225
1772017988997481700,6.621481689453125,-0.011606981977820396,0.010061228647828102,0.022993143647909164
1772017989017449700,6.64144970703125,-0.013659250922501087,0.008924070745706558,0.021436356008052826
1772017989037417700,6.661417724609375,-0.017533011734485626,0.011751136742532253,0.0203096866607666
1772017989057385700,6.6813857421875,-0.012391463853418827,0.0018151132389903069,0.00551058491691947
1772017989077354800,6.701354736328125,0.0010266981553286314,0.009437830187380314,0.012714953161776066
1772017989097322800,6.72132275390625,0.005376880522817373,-0.004472875967621803,0.016489997506141663
1772017989117290800,6.741290771484375,0.010909300297498703,-0.012268349528312683,0.02967376634478569
1772017989137259800,6.761259765625,0.012275532819330692,-0.015298092737793922,0.03445328772068024
1772017989157227800,6.781227783203125,0.013495352119207382,-0.001203362364321947,0.02426055446267128
1772017989177195800,6.80119580078125,0.015029499307274818,0.00039607565850019455,0.01240270584821701
1772017989197163800,6.821163818359375,0.012845625169575214,-0.005708535201847553,0.0002231589751318097
1772017989217132800,6.8411328125,0.013205322436988354,0.009797787293791771,-0.0011677118018269539
1772017989237100800,6.861100830078125,0.017539402469992638,0.0082766804844141,0.00643885089084506
1772017989257068800,6.88106884765625,0.01607937179505825,0.008358875289559364,0.015090633183717728
1772017989277036500,6.90103662109375,0.015291068702936172,0.013838083483278751,-0.009138453751802444
1772017989297005600,6.921005615234375,0.012906482443213463,0.003156389109790325,-0.0205089058727026
1772017989316973600,6.9409736328125,0.01548108272254467,-0.009609781205654144,0.008427909575402737
1772017989336941800,6.96094189453125,0.017319470643997192,-0.011966431513428688,0.04545029252767563
1772017989356909800,6.980909912109375,0.01801171526312828,-0.0027870950289070606,0.023601436987519264
1772017989376878800,7.00087890625,0.0087145259603858,0.0018904060125350952,-0.020832015201449394
1772017989396846800,7.020846923828125,0.007642071228474379,0.016821950674057007,-0.027041709050536156
1772017989416814800,7.04081494140625,0.010063109919428825,0.02626393735408783,-0.005517410580068827
1772017989436783900,7.060783935546875,0.007263322360813618,0.009633313864469528,-0.0011614602990448475
1772017989456751000,7.080751220703125,0.005230803973972797,0.010109733790159225,-0.01760736294090748
1772017989476719000,7.100718994140625,0.00727477390319109,-0.006870562210679054,-0.019229410216212273
1772017989496686800,7.120686767578125,0.029968999326229095,-0.008039490319788456,-0.0038598733954131603
1772017989516656000,7.14065625,0.012693241238594055,-0.01610587164759636,0.019764060154557228
1772017989536623900,7.160623779296875,0.017659686505794525,0.008869013749063015,0.010100445710122585
1772017989556591900,7.180591796875,0.012027101591229439,0.018299002200365067,-0.01186450757086277
1772017989576560000,7.20056005859375,0.005788781214505434,0.0025216974318027496,-0.014432216063141823
1772017989596529000,7.22052880859375,0.007368960417807102,-0.002490414772182703,-0.00840817391872406
1772017989616497200,7.2404970703125,0.0035279300063848495,-0.0010488773696124554,-0.007344955578446388
1772017989636465200,7.260465087890625,0.0044450778514146805,0.0034312494099140167,0.0004414687864482403
1772017989656433200,7.28043310546875,0.005343626253306866,-0.0010542976669967175,-0.008947956375777721
1772017989676402200,7.300402099609375,0.001161264954134822,0.0021239817142486572,-0.03527958318591118
1772017989696370200,7.3203701171875,-0.0015879576094448566,-0.008773533627390862,-0.04779078811407089
1772017989716338200,7.340338134765625,0.0027483762241899967,0.011366277933120728,-0.03318542614579201
1772017989736306000,7.360305908203125,0.00667769368737936,0.027140667662024498,-0.025869736447930336
1772017989756275000,7.38027490234375,0.012150089256465435,0.046219222247600555,-0.00708231283351779
1772017989776243000,7.400242919921875,0.004963016137480736,0.03480997681617737,0.0002451087348163128
1772017989796211000,7.4202109375,0.0012900738511234522,0.012786665000021458,-0.007905162870883942
1772017989816179000,7.440178955078125,0.002815487328916788,0.009950417093932629,-0.020785441622138023
1772017989836148000,7.46014794921875,0.001809658482670784,0.008341960608959198,-0.015322986990213394
1772017989856116000,7.480115966796875,0.0011999309062957764,0.0032776538282632828,-0.015410824678838253
1772017989876084000,7.500083984375,-0.0018929331563413143,0.006445016711950302,-0.015484746545553207
1772017989896052200,7.52005224609375,-0.0028040469624102116,0.013109595514833927,-0.00869065523147583
1772017989916021000,7.54002099609375,0.005337680224329233,0.006438271142542362,0.0015000889543443918
1772017989935989200,7.5599892578125,0.0021794799249619246,0.009628862142562866,0.011410718783736229
1772017989955957000,7.57995703125,-0.005586734041571617,0.023780198767781258,0.008676020428538322
1772017989975925000,7.599925048828125,0.0017508887685835361,0.013551873154938221,0.008089196868240833
1772017989995893000,7.61989306640625,0.0014853272587060928,0.0000559268519282341,0.021522320806980133
1772017990015862000,7.639862060546875,0.011056860908865929,0.003946742042899132,0.019909396767616272
1772017990035830000,7.659830078125,0.015880556777119637,0.0043859295547008514,-0.001789041212759912
1772017990055798000,7.679798095703125,0.012657295912504196,0.0018856637179851532,-0.0316515676677227
1772017990075766000,7.69976611328125,-0.0067174737341701984,0.024733979254961014,-0.0448734387755394
1772017990095735000,7.719735107421875,-0.018797609955072403,0.015479659661650658,-0.020791856572031975
1772017990115703000,7.739703125,-0.0006598019972443581,0.0060018207877874374,0.003193587064743042
1772017990135671000,7.759671142578125,0.013394495472311974,0.0002319440245628357,0.0035738470032811165
1772017990155639000,7.77963916015625,0.018039805814623833,-0.020926576107740402,0.0016991603188216686
1772017990175608000,7.799608154296875,0.011842715553939342,-0.027922488749027252,-0.009103246033191681
1772017990195576000,7.819576171875,0.011168358847498894,-0.01355444174259901,-0.019519753754138947
1772017990215544000,7.8395439453125,0.02086884155869484,-0.009951397776603699,-0.031039966270327568
1772017990235512000,7.859511962890625,0.023728415369987488,0.0033528897911310196,-0.02682935632765293
1772017990255481000,7.879481201171875,0.03346492350101471,-0.002514326013624668,0.0014061997644603252
1772017990275449000,7.899448974609375,0.02757091075181961,0.010873346589505672,0.009626375511288643
1772017990295417000,7.9194169921875,0.027233192697167397,0.0031809601932764053,-0.012740769423544407
1772017990315385000,7.939385009765625,0.026552025228738785,-0.002253399696201086,-0.0072659654542803764
1772017990335353000,7.95935302734375,0.027550769969820976,-0.003900318406522274,-0.004479528404772282
1772017990355322000,7.979322021484375,0.031091827899217606,-0.0008706417866051197,-0.009895291179418564
1772017990375290000,7.9992900390625,0.03171328455209732,-0.00871784333139658,-0.008172569796442986
1772017990395257900,8.0192578125,0.028462549671530724,0.0030303364619612694,-0.009582133032381535
1772017990415225900,8.039225830078125,0.021058551967144012,0.0113233532756567,-0.026501115411520004
1772017990435195000,8.05919482421875,0.019086480140686035,-0.006524352356791496,-0.041072070598602295
1772017990455163600,8.07916357421875,0.01916348934173584,0.008432337082922459,-0.023009052500128746
1772017990475131400,8.09913134765625,0.007897569797933102,0.02171403169631958,-0.0036897859536111355
1772017990495099600,8.119099609375,0.0043807365000247955,0.004991443827748299,-0.01672207936644554
1772017990515067600,8.139067626953125,0.005305224098265171,-0.011152421124279499,-0.027176260948181152
1772017990535036700,8.15903662109375,0.011211032047867775,-0.012652840465307236,-0.02000284008681774
1772017990555004700,8.179004638671875,0.01086660847067833,0.0027390727773308754,-0.005349814426153898
1772017990574972700,8.19897265625,0.005767719820141792,0.008889376185834408,0.0005256514996290207
1772017990594940700,8.218940673828126,0.005085323005914688,0.010292510502040386,-0.0024576447904109955
1772017990614909700,8.23890966796875,0.0012777072843164206,0.01337636262178421,0.0002803271636366844
1772017990634877700,8.258877685546874,-0.0045170653611421585,0.006674251519143581,-0.0008898657979443669
1772017990654845700,8.278845703125,-0.0010477649047970772,0.00010236911475658417,0.0053848084062337875
1772017990674813700,8.298813720703125,-0.0041898819617927074,-0.008950984105467796,0.0019140958320349455
1772017990694781400,8.318781494140625,-0.007865801453590393,-0.02350851148366928,-0.004364977590739727
1772017990714750500,8.33875048828125,-0.007948177866637707,-0.016630586236715317,0.0012748099397867918
1772017990734718500,8.358718505859375,-0.00722518190741539,-0.008867180906236172,0.020638491958379745
1772017990754686700,8.378686767578126,-0.007784840185195208,-0.013337631709873676,0.030336542055010796
1772017990774654700,8.39865478515625,-0.008269311860203743,-0.007616473361849785,0.01049852930009365
1772017990794622700,8.418622802734374,-0.013565349392592907,-0.007141727022826672,-0.011937227100133896
1772017990814591700,8.438591796875,-0.01588103175163269,-0.0001758001744747162,-0.0069559789262712
1772017990834559700,8.458559814453125,-0.007468095049262047,-0.00727619044482708,0.009973770938813686
1772017990854527700,8.47852783203125,-0.016108911484479904,-0.007236149162054062,0.012525565922260284
1772017990874495700,8.498495849609375,-0.023876294493675232,-0.02001878246665001,0.023176584392786026
1772017990894463500,8.51846337890625,-0.020954107865691185,-0.036385588347911835,0.030523957684636116
1772017990914432500,8.5384326171875,-0.02059135213494301,-0.015380189754068851,0.01529396791011095
1772017990934400500,8.558400390625,-0.02064180187880993,-0.013098068535327911,-0.02286335453391075
1772017990954368500,8.578368408203126,-0.01851218193769455,-0.015004837885499,-0.032649993896484375
1772017990974336500,8.59833642578125,-0.012924646027386189,0.009246326982975006,-0.018119916319847107
1772017990994304800,8.6183046875,-0.015415680594742298,0.006287246011197567,-0.01781020127236843
1772017991014273500,8.6382734375,-0.016757018864154816,-0.020045205950737,-0.01872231252491474
1772017991034241800,8.65824169921875,-0.01599849760532379,-0.02962888404726982,-0.02077518031001091
1772017991054209800,8.678209716796875,-0.005870241206139326,-0.013523278757929802,-0.014856339432299137
1772017991074177800,8.698177734375,-0.0031761322170495987,-0.002492758445441723,-0.0007281088619492948
1772017991094145500,8.7181455078125,-0.0009392453357577324,-0.0017118346877396107,0.007615330629050732
1772017991114114600,8.738114501953126,0.00004807254299521446,0.002865297719836235,-0.0037691614124923944
1772017991134082600,8.75808251953125,-0.003574625588953495,0.003441339358687401,-0.010628932155668736
1772017991154050600,8.778050537109374,-0.0011066603474318981,0.0010379627346992493,-0.0049465131014585495
1772017991174018600,8.7980185546875,-0.0043655699118971825,0.013364403508603573,0.00391435669735074
1772017991193986600,8.817986572265625,-0.002084738574922085,-0.004751401022076607,-0.0005258808378130198
1772017991213955600,8.83795556640625,0.00629414152354002,-0.015407396480441093,0.004828798584640026
1772017991233923600,8.857923583984375,0.001630411483347416,0.0041410066187381744,0.00415898347273469
1772017991253891600,8.8778916015625,0.00037594931200146675,-0.015249411575496197,0.0030465279705822468
1772017991273859800,8.89785986328125,-0.00449296785518527,-0.007961474359035492,0.012495306320488453
1772017991293827600,8.91782763671875,0.0028710104525089264,0.009354761801660061,0.024229682981967926
1772017991313796600,8.937796630859374,-0.003414737991988659,-0.007919886149466038,-0.004597116727381945
1772017991333764600,8.9577646484375,-0.00022770510986447334,-0.013280579820275307,-0.03151652216911316
1772017991353732600,8.977732666015624,-0.0044508748687803745,0.004839399829506874,-0.019876183941960335
1772017991373700600,8.99770068359375,0.0027598580345511436,0.006577799096703529,0.0009799678809940815
1772017991393668600,9.017668701171875,-0.0013951468281447887,-0.008725553750991821,0.0064731622114777565
1772017991413637600,9.0376376953125,0.0018841694109141827,-0.012586953118443489,0.0075562503188848495
1772017991433605600,9.057605712890625,0.0014060901012271643,-0.0017064539715647697,0.0004316335543990135
1772017991453572900,9.07757275390625,0.00021862424910068512,0.0037234416231513023,-0.0016876510344445705
1772017991473541000,9.097541015625,0.0017328725662082434,0.004997648298740387,-0.015844477340579033
1772017991493509000,9.117509033203126,-0.0019581210799515247,0.01333965826779604,-0.02535770833492279
1772017991513477000,9.13747705078125,-0.0033799409866333008,0.002555299550294876,-0.008922147564589977
1772017991533446100,9.157446044921874,-0.00002042297273874283,-0.006393157411366701,0.008784785866737366
1772017991553414100,9.1774140625,0.001288644503802061,-0.009529756382107735,0.0055342502892017365
1772017991573382100,9.197382080078125,0.004910585470497608,-0.014542512595653534,0.002547110663726926
1772017991593350000,9.217349853515625,0.003860148601233959,-0.0038795764558017254,0.008001204580068588
1772017991613318000,9.23731787109375,-0.0053231436759233475,0.004074049182236195,0.006019339896738529
1772017991633286000,9.257285888671875,-0.007387732155621052,0.006181459873914719,0.0008287506643682718
1772017991653255000,9.2772548828125,-0.0038922508247196674,0.0015054410323500633,-0.0006503791082650423
1772017991673223000,9.297222900390626,-0.00016343453899025917,-0.0055326903238892555,-0.010799035429954529
1772017991693191200,9.317191162109374,-0.0037766098976135254,0.00011869985610246658,-0.015062184073030949
1772017991713159200,9.3371591796875,-0.003035100642591715,-0.008314115926623344,-0.008314881473779678
1772017991733127200,9.357127197265624,-0.00152500718832016,-0.00865237507969141,0.004676542244851589
1772017991753096200,9.37709619140625,-0.0026349080726504326,-0.012036909349262714,0.004867774434387684
1772017991773064200,9.397064208984375,-0.003932219464331865,-0.006844892632216215,-0.004148806445300579
1772017991793032000,9.417031982421875,-0.003966552671045065,-0.010122719220817089,-0.015841849148273468
1772017991813000000,9.437,-0.002977783791720867,-0.014430221170186996,-0.005039762705564499
1772017991832968000,9.456968017578125,-0.005859836470335722,-0.0026513333432376385,0.017795879393815994
1772017991852936000,9.47693603515625,-0.008806295692920685,0.011541416868567467,0.029299559071660042
1772017991872905000,9.496905029296874,-0.010914044454693794,-0.007766040973365307,0.0033655778970569372
1772017991892873000,9.516873046875,-0.012745991349220276,-0.008479921147227287,-0.01798432320356369
1772017991912841000,9.536841064453125,-0.01304260641336441,-0.003927014768123627,-0.001709856209345162
1772017991932809200,9.556809326171875,-0.00969509407877922,-0.0075299665331840515,0.015570873394608498
1772017991952777200,9.576777099609375,-0.010012419894337654,-0.014428012073040009,0.008516810834407806
1772017991972745000,9.596744873046875,-0.012422477826476097,-0.028793025761842728,-0.004193639848381281
1772017991992713000,9.616712890625,-0.013283336535096169,-0.0028662835247814655,0.007597992196679115
1772017992012682000,9.636681884765625,-0.009989539161324501,0.017248837277293205,0.020343881100416183
1772017992032650000,9.65664990234375,-0.015326328575611115,0.0008464688435196877,0.005105549469590187
1772017992052618000,9.676617919921876,-0.012585710734128952,-0.025166336447000504,-0.008036213926970959
1772017992072586000,9.6965859375,-0.005240213125944138,-0.031766440719366074,-0.007605518214404583
1772017992092554000,9.716553955078124,-0.00020321644842624664,-0.012650880962610245,0.021983249112963676
1772017992112522200,9.736522216796875,-0.0036993157118558884,-0.013054393231868744,0.019010987132787704
1772017992132491000,9.756490966796875,-0.010088271461427212,-0.018712805584073067,-0.01743963547050953
1772017992152459300,9.776459228515625,-0.012332595884799957,-0.013813616707921028,-0.02188684046268463
1772017992172427000,9.796427001953125,-0.006837788503617048,-0.007746747694909573,0.0050404672510921955
1772017992192395000,9.81639501953125,-0.0030978862196207047,0.00293637253344059,0.013409476727247238
1772017992212363000,9.836363037109376,0.000561256892979145,0.006072663702070713,0.001109538832679391
1772017992232331000,9.8563310546875,-0.003481711260974407,-0.005574675742536783,0.003132532350718975
1772017992252300000,9.876300048828124,-0.004334830213338137,-0.01981174200773239,0.010645294561982155
1772017992272268000,9.89626806640625,-0.002712393179535866,-0.019841454923152924,0.009981498122215271
1772017992292236000,9.916236083984375,-0.0019314461387693882,-0.001753191463649273,0.001583234639838338
1772017992312204000,9.9362041015625,0.002095375210046768,-0.0017020977102220058,-0.016631152480840683
1772017992332172000,9.956172119140625,0.004640833009034395,-0.00984166469424963,-0.016481027007102966
1772017992352140000,9.97614013671875,0.005365333054214716,0.0033554397523403168,-0.015441474504768848
1772017992372108000,9.99610791015625,0.0017095983494073153,0.005536834709346294,0.0019528577104210854
1772017992392077000,10.0160771484375,0.007798916194587946,0.006175726652145386,0.017868440598249435
1772017992412045000,10.036045166015626,0.007587594911456108,0.0037081176415085793,0.006483385805040598
1772017992432013000,10.056012939453124,0.004747213330119848,-0.0024081729352474213,-0.015449464321136475
1772017992451981000,10.07598095703125,0.012930560857057571,-0.019895821809768677,-0.024737607687711716
1772017992471949000,10.095948974609374,0.008787471801042557,-0.009976880624890327,-0.007138481363654137
1772017992491917000,10.1159169921875,0.007539091166108847,-0.002512499690055847,0.015240342356264591
1772017992511885000,10.135885009765625,0.012616988271474838,-0.009654179215431213,0.0157199464738369
1772017992531854000,10.15585400390625,0.01498768012970686,0.009488760493695736,0.014113184995949268
1772017992551822000,10.175822021484375,0.013552814722061157,-0.0006215395405888557,-0.02267761528491974
1772017992571790300,10.195790283203126,0.010424360632896423,-0.008467327803373337,-0.02608499303460121
1772017992591758000,10.215758056640626,0.011612161993980408,-0.014963735826313496,0.006582427769899368
1772017992611726000,10.23572607421875,0.023221265524625778,-0.0018228208646178246,0.024301892146468163
1772017992631694000,10.255694091796874,0.020865242928266525,0.008524855598807335,0.017610160633921623
1772017992651662000,10.275662109375,0.011065797880291939,0.005252399481832981,-0.012427626177668571
1772017992671630000,10.295630126953125,0.012722017243504524,-0.009779813699424267,-0.02680097334086895
1772017992691599000,10.31559912109375,0.016484038904309273,0.006940959021449089,-0.005516859702765942
1772017992711567000,10.335567138671875,0.01598944514989853,0.02228277176618576,0.0020582631696015596
1772017992731535000,10.35553515625,0.01430523581802845,0.009742913767695427,-0.01651240512728691
1772017992751503000,10.375503173828125,0.017623750492930412,-0.00524735264480114,-0.005555175244808197
1772017992771471000,10.39547119140625,0.01602354645729065,0.01732797548174858,0.0029905857518315315
1772017992791439000,10.415439208984376,0.010624431073665619,0.025665555149316788,-0.00789236556738615
1772017992811407000,10.435406982421876,0.011738551780581474,-0.0038227392360568047,-0.024890024214982986
1772017992831376100,10.455376220703124,0.01829541102051735,-0.006311269011348486,-0.024306807667016983
1772017992851344100,10.47534423828125,0.012053178623318672,0.02430642768740654,-0.016284914687275887
1772017992871312100,10.49531201171875,0.004349572118371725,0.055730756372213364,-0.02518549934029579
1772017992891280100,10.515280029296875,0.0028986113611608744,0.047775134444236755,-0.041229598224163055
1772017992911248100,10.535248046875,0.007972188293933868,0.051522720605134964,-0.03715864196419716
1772017992931216100,10.555216064453125,0.01502663642168045,0.0174236036837101,-0.06267305463552475
1772017992951184100,10.57518408203125,0.01979617215692997,-0.007661801762878895,-0.061069197952747345
1772017992971152100,10.595152099609376,0.0018977464642375708,0.0881197601556778,0.050518881529569626
1772017992991120100,10.6151201171875,-0.003296178299933672,0.07271908223628998,0.19054029881954193
1772017993011089200,10.635089111328124,0.028134942054748535,0.011023380793631077,0.155660480260849
1772017993031057200,10.65505712890625,0.01677834801375866,-0.0725918561220169,-0.05501765385270119
1772017993051025200,10.675025146484375,0.0019422245677560568,-0.09528627246618271,-0.3313998878002167
1772017993070993200,10.6949931640625,-0.04086428880691528,0.04453548789024353,-0.3062204420566559
