time,seconds_elapsed,z,y,x
1772018031313188000,0.07118798828125,0.07272679803669452,-0.10934124920666217,-0.06984017321709543
1772018031333155000,0.091155029296875,0.03371756068468094,-0.054397945141792296,-0.05197449912084266
1772018031353123000,0.111123046875,-0.14702245282530785,-0.06426876629292964,0.0026723427481018004
1772018031373090300,0.13109033203125,-0.11503624597787857,-0.008187690369784832,0.020498744279891252
1772018031393058300,0.151058349609375,0.0008779518783092498,-0.021864625805616378,0.0011888444583863019
1772018031413025000,0.17102490234375,0.16845862408578394,-0.008988485358655452,-0.01410584663869813
1772018031432992300,0.1909921875,0.2185194168061018,-0.05740677156895399,-0.028054566486924885
1772018031452960300,0.210960205078125,0.06123159055411815,0.012848667918145656,-0.004365227738488465
1772018031472927000,0.230927001953125,0.030572832918167113,0.021511282323300837,-0.04438672913927585
1772018031492895000,0.25089501953125,0.06186521228253841,-0.028502164123952387,0.028848402012046425
1772018031512862000,0.270862060546875,-0.0047989247143268585,-0.02597410695105791,-0.07213281419891863
1772018031532830000,0.290829833984375,0.026108839246630666,-0.06492050819993019,0.004279832743667066
1772018031552797000,0.310796875,-0.006938274830579757,-0.0883759103283286,0.04386714397827163
1772018031572765000,0.330764892578125,-0.03713292208611965,-0.11871230414211749,0.02575841837376356
1772018031592732000,0.35073193359375,-0.1010918917775154,-0.0783285635665059,-0.04690187203167006
1772018031612699100,0.37069921875,0.014119126245379447,-0.052092883069813245,-0.04355373064754531
1772018031632667000,0.3906669921875,0.04944003047347068,-0.039512510699033734,-0.04084346704185009
1772018031652633900,0.4106337890625,0.04163432515859604,-0.028096213671565055,-0.024810689194872972
1772018031672601900,0.430601806640625,-0.07884265056848526,-0.02466039400398731,-0.002911887125018984
1772018031692569000,0.450569091796875,-0.024154782569408416,-0.053070495930314064,-0.04632135046366602
1772018031712537000,0.470537109375,0.026708558705449102,-0.027426351585984228,0.022877492642588912
1772018031732503800,0.49050390625,0.13319675656855107,-0.024056875152885914,0.006475187363475561
1772018031752471800,0.510471923828125,-0.01314998895227909,-0.04577420144230127,0.002537354724202305
1772018031772439000,0.53043896484375,0.028260464322566986,-0.01710749440640211,0.017509535868652164
1772018031792405800,0.55040576171875,-0.04468494490087032,-0.04835574236810207,-0.003969908277969807
1772018031812373800,0.570373779296875,-0.011133388432860374,-0.07400748549699783,0.02553449169108644
1772018031832341000,0.590341064453125,-0.05296645103394985,-0.05421440526843071,-0.008461063951067625
1772018031852309000,0.61030908203125,-0.0631201807796955,-0.05289221675395965,0.009940251391846686
1772018031872275700,0.630275634765625,-0.056094227665662764,-0.04872749828994274,-0.0016765001111663878
1772018031892244000,0.650243896484375,-0.040056700578331945,-0.04919394675791263,-0.05283995684375986
1772018031912211000,0.6702109375,0.09944938526749611,-0.034433599999547,-0.022870313983131198
1772018031932179000,0.690178955078125,0.04552782546579837,-0.030470249326527116,-0.051296325864642854
1772018031952146200,0.710146240234375,0.049782560300827026,0.001134264726936817,-0.03598543255142867
1772018031972114000,0.730114013671875,-0.03553425471782684,0.008629881179332733,-0.027944274512864648
1772018031992081000,0.750080810546875,-0.058149406629800796,-0.005857493856549263,-0.009432192271854729
1772018032012048100,0.770048095703125,0.035303953093290326,0.003277706496417522,-0.047080206006951626
1772018032032016100,0.79001611328125,0.0722439829558134,-0.05346592498868703,-0.05567404775852337
1772018032051982800,0.80998291015625,0.0587982259273529,-0.04287438834756613,0.012259634250123053
1772018032071950800,0.829950927734375,0.010510288098454475,-0.053412733496725553,-0.0031481435663066803
1772018032091918000,0.84991796875,-0.066196519485116,0.00097118311971426,-0.017155845326464622
1772018032111886000,0.869885986328125,-0.17036182735860347,-0.008889993420243263,-0.05111967238979414
1772018032131852800,0.889852783203125,-0.00798515353500843,0.009499357490241526,-0.040782092243432995
1772018032151820800,0.90982080078125,0.1139975505799055,-0.03469897293746471,-0.01885956223811954
1772018032171788000,0.9297880859375,0.04516425285041332,-0.01132218900322914,-0.019033037375193088
1772018032191755000,0.949755126953125,-0.0883650966733694,-0.01394640002697706,-0.03553069278756156
1772018032211722800,0.96972265625,-0.04577274013757705,-0.015765724408626555,-0.0035993396662175655
1772018032231690000,0.98968994140625,0.03442658573687076,-0.01966594671756029,-0.045398408666159955
1772018032251658000,1.009657958984375,0.2009644708931446,-0.03598667466044426,-0.06683121892577037
1772018032271625000,1.029625,0.15196049374938012,-0.02611088507324457,-0.027863354763761162
1772018032291593000,1.049593017578125,-0.08032090642750263,-0.02245353160947561,-0.03358796122195199
1772018032311560000,1.069559814453125,-0.172334004214406,-0.006978022319078445,0.007437511323299259
1772018032331528000,1.08952783203125,-0.12977554994821547,-0.04214227468073368,-0.01990572855649516
1772018032351495000,1.109494873046875,0.08715046018660068,-0.0600248451128602,-0.024097188896965233
1772018032371463200,1.129463134765625,0.10943944888412951,-0.06400777726918458,-0.005212930609006434
1772018032391430000,1.149429931640625,0.011644260564446448,-0.046132221099734305,0.018330204601772128
1772018032411396900,1.16939697265625,-0.06774725605845451,-0.02197305461615324,0.0028418175634928045
1772018032431365000,1.189365234375,-0.0360240840613842,-0.007950666743516922,0.034650457620620724
1772018032451331800,1.209331787109375,0.07884732674360274,-0.0287108384385705,-0.010954579533543438
1772018032471299800,1.2292998046875,0.11630641204416751,-0.024418109680712223,0.02723092034542933
1772018032491267600,1.249267578125,-0.09027297612130641,-0.01802168664187193,-0.005506287532392889
1772018032511235800,1.26923583984375,-0.08963117108643054,-0.03180617410540581,-0.03122483055349439
1772018032531202800,1.289202880859375,0.052151042997837065,-0.0887903363481164,-0.025601857838872817
1772018032551170800,1.3091708984375,0.07971884888112545,-0.11735358300954103,0.00334938349314034
1772018032571137800,1.3291376953125,0.011913725155591965,-0.06620470279157162,-0.01753152850475162
1772018032591105800,1.349105712890625,-0.19588614471554755,-0.069322250290215,-0.012074961865600198
1772018032611072800,1.36907275390625,-0.07620587232410907,-0.06330693552345038,-0.03398519864492118
1772018032631040800,1.389040771484375,0.02395370703935623,-0.03947510129809379,-0.009074702337384223
1772018032651007700,1.4090078125,0.054228433793783185,-0.03319149098396301,0.008609989168774337
1772018032670974700,1.428974609375,0.013556231665611266,-0.04300590577274561,0.0009782887139357626
1772018032690942700,1.448942626953125,0.020940496698021886,-0.02482815178632736,-0.0587023643374443
1772018032710910000,1.468909912109375,0.046837154498696326,-0.04636369176805019,-0.038378885292913764
1772018032730877700,1.488877685546875,-0.005200491252541542,-0.017375205431878565,-0.010578932887874542
1772018032750844700,1.5088447265625,0.048018473237752914,-0.047798693007230754,-0.010248440558183938
1772018032770812700,1.528812744140625,0.07358019999563693,-0.031144787587225435,-0.02023463171729818
1772018032790780000,1.54877978515625,0.11634966666400431,-0.057601709619164464,0.013339026984665542
1772018032810747600,1.56874755859375,-0.022127076134085655,-0.05547901837676763,0.001781586187146604
1772018032830714600,1.588714599609375,-0.051260231637954706,-0.030566110916435716,0.01047306136060506
1772018032850682600,1.6086826171875,-0.02218202119171619,-0.05504997930973768,-0.00001768178716301918
1772018032870649900,1.62864990234375,0.043155835637450214,-0.021271043826639652,-0.0005691051248461008
1772018032890617900,1.648617919921875,0.04222761487662792,-0.050715749497711654,-0.01747035463573411
1772018032910584600,1.66858447265625,0.07119710425138473,-0.04235971682369709,-0.0232932703692466
1772018032930551800,1.6885517578125,0.0376841262280941,-0.04636719889938831,-0.0284414834452793
1772018032950519800,1.708519775390625,-0.02900397616624832,-0.02336070958226919,-0.012813030349183827
1772018032970486500,1.728486572265625,-0.07588263171911239,-0.03211392488032579,-0.05190574473356828
1772018032990454800,1.748454833984375,0.011446107643842697,-0.062111295998096464,-0.017711926572956144
1772018033010421800,1.768421875,0.07838029375374317,-0.09199965378344059,-0.05954340000515803
1772018033030389800,1.7883896484375,0.027461422899365425,-0.06914572467952966,-0.0400779990946874
1772018033050356700,1.808356689453125,-0.03582768470644951,-0.0868967776864767,-0.03801279192687943
1772018033070324700,1.82832470703125,-0.17690613443553446,-0.0855222744628787,-0.03377924601035193
1772018033090291700,1.848291748046875,-0.11466682814359665,-0.060702890504896634,-0.09797991550313308
1772018033110259700,1.868259765625,0.08502630763947963,-0.056525604820251464,-0.07043258615229278
1772018033130227000,1.88822705078125,0.043134208327531814,-0.04714461301267147,-0.0753003565854393
1772018033150194700,1.908194580078125,-0.017637948021292687,-0.02137567324489355,-0.060906906910706306
1772018033170161700,1.92816162109375,0.03137479695081711,-0.024563071109354493,-0.01116252319579944
1772018033190129000,1.94812890625,0.04852817632555961,-0.02723988910317421,-0.035708807567134494
1772018033210097000,1.968096923828125,0.07405600081384181,-0.03445259696096182,-0.021260065774898976
1772018033230063600,1.988063720703125,0.06331365752518177,-0.020611118613183498,-0.03493186837788671
1772018033250031600,2.008031494140625,-0.045159576675295826,-0.026541677705943584,-0.05428617359669879
1772018033269998800,2.027998779296875,-0.006409867042303085,-0.01204728840738535,-0.038060266064107416
1772018033289966800,2.047966796875,0.03758066585361957,-0.044834582504630086,-0.04501607655137777
1772018033309933600,2.06793359375,0.04314297615587711,-0.055690323039889335,0.005498907943535596
1772018033329901600,2.087901611328125,-0.050182957795262335,-0.06031389118731022,-0.030807354060094803
1772018033349868800,2.107868896484375,-0.1405278301090002,-0.02824322092682123,0.0035709720882587132
1772018033369836800,2.1278369140625,-0.07599310635626316,-0.021850012758374213,-0.018007219725102185
1772018033389803500,2.147803466796875,0.12416764693856239,-0.04563508523255586,-0.06029208121430128
1772018033409771800,2.167771728515625,0.1351730250775814,-0.052473699080944056,-0.009239500977657735
1772018033429738800,2.18773876953125,-0.05449614481925964,-0.025390169583261013,-0.03405179760772735
1772018033449706800,2.207706787109375,-0.10977905610203742,-0.024902386066317558,-0.041183640515338626
1772018033469673700,2.227673828125,-0.006669394761323929,-0.002333703644573688,0.004747724250052124
1772018033489642200,2.247642333984375,0.11427461395561694,-0.023238544507324693,-0.008298238072171806
1772018033509609200,2.267609130859375,0.11054068812429904,-0.016832476857304574,-0.03530868406733498
1772018033529576200,2.287576171875,0.05437865591943264,-0.03248071236610412,-0.005134970001969486
1772018033549544200,2.307544189453125,-0.06941898866295815,-0.013295827163755892,0.012680416945461183
1772018033569511200,2.32751123046875,-0.12301380072832106,-0.030789398278295993,-0.013658139403816312
1772018033589479200,2.347479248046875,-0.017638532543182373,-0.04823065468370914,-0.014108933644928037
1772018033609446400,2.3674462890625,0.025318565651774406,-0.04456833278387785,-0.016793149493914097
1772018033629414100,2.3874140625,0.0026624972075223923,-0.019368717336654663,-0.038919860301818696
1772018033649381000,2.407381103515625,-0.03221241681873798,-0.03197247058302164,-0.01265783978747204
1772018033669349000,2.42734912109375,-0.027767712369561194,-0.045752574132382866,0.017076880072429777
1772018033689316400,2.44731640625,-0.007870002722740172,-0.024879005190730094,0.02639266115669161
1772018033709284400,2.467284423828125,0.01079495025873184,-0.04347264650166034,0.01491581131471321
1772018033729251000,2.4872509765625,-0.0063385553717613214,-0.02303483862876892,0.000455671345628798
1772018033749219000,2.507218994140625,0.003028407910466194,-0.06017711306512356,-0.016445724295731632
1772018033769186300,2.527186279296875,-0.0020271219134330746,-0.016892390350997447,0.016198581134248526
1772018033789154300,2.547154296875,-0.013926234021782875,0.01506926657706499,-0.002016637052036822
1772018033809121000,2.56712109375,0.05577332514822483,0.015367080479860304,0.03937125733112916
1772018033829089300,2.58708935546875,0.04935995097458362,-0.012585925328731536,-0.03970279084043577
1772018033849056300,2.60705615234375,0.04358545922636985,-0.02231412313878536,-0.02897569991983473
1772018033869024300,2.627024169921875,0.0016419219881296156,-0.02624386380314827,-0.014524693105276673
1772018033888991200,2.6469912109375,-0.11341595129966735,-0.03752455175220966,-0.01158303189650178
1772018033908959200,2.666959228515625,-0.047694648110866544,-0.03650426879376173,-0.02715113310748711
1772018033928926200,2.68692626953125,0.15786650292277335,-0.0201817872852087,-0.034625670239236205
1772018033948893200,2.70689306640625,-0.03603752806484699,0.0012508768439292908,-0.02424960297970101
1772018033968861200,2.726861083984375,0.003968903630971909,0.005037994167208671,-0.0374171275886707
1772018033988828200,2.746828125,0.0065665189087390895,0.004028817124664783,-0.03043103156099096
1772018034008796200,2.766796142578125,-0.008145312532782554,-0.005788812534511089,-0.10303878806158899
1772018034028763400,2.786763427734375,0.09141571641564368,-0.047215340161323546,-0.0417022758282721
1772018034048731100,2.806731201171875,0.0002811550289392471,-0.08157821301221847,0.009031173722911626
1772018034068698000,2.826697998046875,-0.0636696313560009,-0.07439034733474253,0.03236727858688682
1772018034088666000,2.846666015625,-0.11263619909882545,-0.04133621899485588,0.0012946429204195736
1772018034108633300,2.86663330078125,0.012890461233258247,-0.029461949066817757,-0.022906408209819346
1772018034128601000,2.88660107421875,0.10429039555788039,-0.06811842745840549,-0.0112432602818124
1772018034148568000,2.906568115234375,0.04879413378536701,-0.030607611970603466,0.021055574445053935
1772018034168536000,2.9265361328125,-0.023696517407894132,-0.02165273662060499,0.00787038631523028
1772018034188503300,2.94650341796875,-0.028279753544926643,-0.023968904608488082,-0.05613041322389617
1772018034208471300,2.96647119140625,0.031933015355467796,-0.036733401374518866,-0.07883790132813155
1772018034228438000,2.98643798828125,0.02799626042842865,-0.01938625299334526,-0.03851089590843767
1772018034248406300,3.00640625,0.0729588532269001,0.0017637948021292686,-0.010020330890733748
1772018034268373200,3.026373291015625,0.055173021167516705,-0.03881926773786545,-0.03174463491020724
1772018034288341200,3.04634130859375,0.04974398185610771,-0.013146481820940971,0.020733959541562944
1772018034308308200,3.06630810546875,-0.02518587918281555,-0.02714958047121763,-0.01299585783649236
1772018034328276200,3.086276123046875,0.012075637719035148,-0.026925708587467668,0.014070647461153565
1772018034348243200,3.1062431640625,-0.03013151889145374,-0.05667787277251482,-0.04288812461197376
1772018034368211200,3.126211181640625,0.028847908821702,-0.04894435591101646,-0.08024935729494317
1772018034388178200,3.14617822265625,0.07797989625930786,-0.036060908940434455,-0.062052770743891594
1772018034408146200,3.166146240234375,0.057847208812832826,-0.02440992637425661,-0.04682529966412112
1772018034428113200,3.186113037109375,0.02876432219147682,-0.025696459053456782,-0.022189181584864853
1772018034448081200,3.2060810546875,0.05351122543513775,-0.043830373898148534,-0.018966548010241238
1772018034468048100,3.226048095703125,0.00563712910413742,-0.07836217357516288,-0.008103610549215226
1772018034488016100,3.24601611328125,-0.10160393295288085,-0.06460077472627163,-0.050198374560102815
1772018034507982800,3.26598291015625,-0.024922844332456586,-0.1057411788880825,-0.05130186055628583
1772018034527950800,3.285950927734375,0.01695464193224907,-0.08132540729492903,0.022576080276910215
1772018034547917600,3.30591748046875,-0.03582067044377327,-0.07223550738841295,0.03135092288488522
1772018034567885600,3.325885498046875,-0.02367313653230667,-0.019428338569402695,-0.017806491254922
1772018034587852800,3.345852783203125,0.012912673065066337,0.030961832235753533,-0.0786181576302275
1772018034607820800,3.36582080078125,0.09656827687323093,-0.018229191912710666,-0.035224458116292955
1772018034627787500,3.38578759765625,-0.03795768247246742,-0.0039461072772741315,-0.025604743915703145
1772018034647755500,3.405755615234375,-0.07951952691674231,-0.007069499994814396,-0.027261552945710716
1772018034667722800,3.42572265625,0.04415186093747615,-0.051835985699296,-0.03599511369522661
1772018034687690800,3.445690673828125,0.10540274071395396,-0.0864005186021328,-0.020155355936009436
1772018034707657500,3.465657470703125,-0.005050853648781776,-0.08705167598724364,-0.05014341123616323
1772018034727624700,3.485624755859375,-0.10421265414655208,-0.06067278762757778,-0.017258739445358513
1772018034747592700,3.5055927734375,-0.02110240926146507,-0.09811112240105867,-0.021078407331369817
1772018034767559700,3.5255595703125,0.07966215025782585,-0.07159545591920614,0.00297788329962641
1772018034787527700,3.545527587890625,0.06891922244727611,-0.08478285427242517,-0.016165172054991125
1772018034807494700,3.56549462890625,-0.004529460123181343,-0.03636047640889883,-0.015472422284167259
1772018034827462700,3.585462646484375,-0.045998365586996076,0.01857756695896387,-0.03386663203286007
1772018034847429600,3.6054296875,0.024923428854346275,0.05735182651132345,0.00323158406605944
1772018034867398000,3.62539794921875,0.11237842494547366,0.041133389899134634,-0.0456758556343615
1772018034887364600,3.645364501953125,0.08316460542082786,0.0157680624961853,-0.020477043904736637
1772018034907332600,3.66533251953125,0.02492401337623596,0.003385258524119854,-0.06826749880658463
1772018034927299800,3.6852998046875,-0.04995674782395362,0.013001228131353855,-0.08177324239397421
1772018034947267800,3.705267822265625,0.0600748217344284,-0.05165449165254831,-0.018172840349283067
1772018034967234600,3.725234619140625,0.05580722741782665,-0.04606149395108223,0.0047561632848344745
1772018034987202600,3.74520263671875,-0.04922609546184539,-0.04922112702578306,-0.066311926025711
1772018035007169800,3.765169677734375,0.02264262444078922,-0.08291852170526981,0.0017456563572399318
1772018035027137800,3.7851376953125,-0.0020487492233514783,-0.08609159878343343,0.0037502741779200733
1772018035047104500,3.8051044921875,-0.04727496139407158,-0.08842354886233807,0.0253627518533729
1772018035067072500,3.825072509765625,-0.10972294200062752,-0.03980360260009765,-0.02453468526508659
1772018035087039700,3.845039794921875,-0.08692951091229915,-0.02866319990456104,-0.058868295488879084
1772018035107007700,3.8650078125,0.0691284812837839,0.001142155772447586,-0.07376885443553328
1772018035126974500,3.884974365234375,0.11013152280151843,-0.010204290889203547,-0.044821467294730244
1772018035146942700,3.904942626953125,-0.04193009323477745,-0.0032461423143744467,-0.038408823773451145
1772018035166909700,3.92490966796875,-0.08561492118239403,-0.0004398527219891548,-0.034634912991616876
1772018035186877700,3.944877685546875,0.015943419063091276,-0.0265802561506629,-0.05860060272971168
1772018035206845000,3.964844970703125,0.14517185652256012,-0.03871200797110796,-0.01037254186188802
1772018035226812700,3.984812744140625,0.009803016611933708,-0.053177171175181864,-0.036019681880902495
1772018035246779600,4.004779541015625,0.014569792622327804,-0.034489129579067225,-0.04776513779750093
1772018035266747600,4.02474755859375,-0.06033551849722862,-0.05443535454273223,-0.018944263113196937
1772018035286715000,4.04471484375,-0.16330781719386578,-0.053876843877136704,-0.018812197698745876
1772018035306682600,4.0646826171875,-0.163333536157012,0.006575286737084388,0.024905801866110414
1772018035326649600,4.084649658203125,-0.11828209603130817,-0.06186345871686935,-0.032313082447927445
1772018035346617600,4.10461767578125,0.016616788280010224,-0.08911357695311307,-0.026686036346387117
1772018035366584800,4.124584716796875,0.14276888703405857,-0.0383767846673727,-0.021969638816360382
1772018035386552800,4.144552734375,0.03386018402576446,-0.03860474820435047,-0.017169727721344678
1772018035406519600,4.16451953125,-0.1688876631528139,0.00043079263269901275,-0.15427061558896674
1772018035426487800,4.18448779296875,0.020656419059634206,0.06154051037281751,0.12413314188076183
1772018035446454800,4.204454833984375,0.17914193066358566,-0.031028175470232962,-0.06060385057721287
1772018035466422800,4.2244228515625,0.21131752260327338,0.022216507983207703,-0.0335242300696671
1772018035486389800,4.2443896484375,0.0756207659125328,-0.01625789183974266,-0.09671132033942267
1772018035506357500,4.264357421875,-0.05897416701614856,-0.036384734067320824,-0.035144323818478734
1772018035526324200,4.28432421875,-0.0895411547154188,-0.042589433926343914,0.01628335507456213
1772018035546292200,4.304292236328125,-0.09288520444631576,-0.08086042013168335,-0.002659264070820063
1772018035566259500,4.324259521484375,-0.0048643911659717555,-0.05613952811211347,-0.051296727723442015
1772018035586227500,4.3442275390625,0.13798457536697387,-0.028724866963922974,-0.04670370084475726
1772018035606194200,4.364194091796875,0.06941431248784065,0.0009808277308940886,0.012118490480072795
1772018035626162200,4.384162109375,0.025904256585240364,0.017381050650775432,0.012678042325284331
1772018035646129400,4.40412939453125,-0.04004851727187633,-0.033714638075232506,-0.010231087564583867
1772018035666097400,4.424097412109375,0.01949205145537853,-0.044827568241953844,-0.0019468780177645385
1772018035686064000,4.444064208984375,0.057170332464575764,-0.042589726187288755,-0.028163451955188063
1772018035706032400,4.464032470703125,0.011360767447948455,-0.03683832305371761,-0.0256945593573153
1772018035725999400,4.483999267578125,-0.05269990905225277,-0.06040595338493585,-0.005342548338044434
1772018035745967400,4.50396728515625,0.05257306780219078,-0.03660919047296047,0.04847956967717036
1772018035765934300,4.523934326171875,0.2271586503356695,-0.09707418056875466,-0.058890215059742325
1772018035785902300,4.54390234375,-0.0930447789222002,-0.031366613644361496,0.018245065335277467
1772018035805869300,4.563869384765625,-0.20390461599826812,-0.015660802729427815,-0.004796696224622428
1772018035825837300,4.58383740234375,-0.07141863804757595,-0.017598492793738842,-0.035210119063686575
1772018035845804300,4.60380419921875,-0.05299684617221355,-0.041731940314173696,-0.022251908090151845
1772018035865772300,4.623772216796875,0.06803834795951842,-0.06023702655881643,-0.034107546382956204
1772018035885739300,4.6437392578125,-0.02713701325058937,-0.0870844092130661,-0.031307576933503146
1772018035905707300,4.663707275390625,-0.022789339435100555,-0.03945551981478929,-0.027778233763575553
1772018035925675500,4.683675537109375,0.010531330886483193,-0.06691665045320987,0.006240173031203449
1772018035945642200,4.703642333984375,0.04029050933420658,-0.05045797534435987,-0.01643900229400024
1772018035965610200,4.7236103515625,0.07204524551331996,-0.05001315418630838,-0.0379075962530449
1772018035985577500,4.743577392578125,0.012628595426678657,-0.06176672034412622,-0.026583434488438067
1772018036005545500,4.76354541015625,-0.1317833826392889,-0.08983779957443475,-0.05609643788905814
1772018036025512200,4.78351220703125,-0.1708528257459402,-0.056748599921166896,-0.01956617613751441
1772018036045480200,4.803480224609375,-0.05083703778982162,-0.03228869692534208,-0.06750383922401815
1772018036065447400,4.823447509765625,-0.015583353579044341,-0.02010170778632164,-0.05982795256758108
1772018036085415400,4.84341552734375,0.07987140909433364,-0.0176569449827075,-0.054236690165475006
1772018036105382100,4.863382080078125,0.10141162525117396,-0.010502104791998862,-0.0029572241040877996
1772018036125350100,4.88335009765625,-0.03181143480241298,-0.019876959119737147,-0.034071616553049536
1772018036145317400,4.9033173828125,0.008071078252792357,-0.0020107553005218504,0.04806923531061038
1772018036165285400,4.923285400390625,-0.03910217633247375,0.018202303905785082,0.02269250973081216
1772018036185252400,4.94325244140625,0.10355331345498561,-0.036950258995592594,-0.01156885724067688
1772018036205220000,4.96322021484375,0.02909808419048786,-0.05602028564661741,-0.025664894871413706
1772018036225187300,4.983187255859375,0.048054129073023796,-0.045993689411878584,-0.047196324933599675
1772018036245155300,5.0031552734375,-0.023073417073488235,0.0014347089782357214,0.02706276070429012
1772018036265122300,5.023122314453125,-0.047699908807873725,-0.04338642952293157,-0.0034527160034514962
1772018036285090300,5.04309033203125,-0.07516133170723914,-0.05670213043093681,-0.038905064591486
1772018036305057300,5.063057373046875,-0.07983049256205559,-0.049912031899392605,-0.018320103332865982
1772018036325025300,5.083025390625,0.007465513575077056,-0.039541444532573224,-0.0007852686261758208
1772018036344992500,5.102992431640625,0.056709729215502734,-0.055175651516020295,0.015633476331084965
1772018036364960500,5.12296044921875,0.10100421349406241,-0.04360767105817794,-0.006322554085031152
1772018036384927200,5.14292724609375,-0.0093850834608078,-0.009775836344063281,-0.015458832150232046
1772018036404895200,5.162895263671875,-0.11835866839885711,0.03312134835720062,0.08067899915017188
1772018036424862500,5.182862548828125,0.0512169770181179,0.02165098305493593,-0.000004329115245491266
1772018036444830500,5.20283056640625,0.12120529000163077,0.004754501050710678,-0.01798024038663134
1772018036464797200,5.222797119140625,0.1409983702301979,-0.031070261046290397,-0.0020711619845591484
1772018036484765200,5.24276513671875,-0.0625496874153614,-0.043783319886028765,0.02065967046264559
1772018036504732200,5.262732177734375,-0.10319558605849742,-0.022351824800670144,0.014114523135498165
1772018036524700200,5.2827001953125,0.023626374781131745,-0.04879150343686342,-0.025079313535802065
1772018036544667100,5.302667236328125,0.045907764694094653,-0.03290361395329237,0.008761690865457058
1772018036564632000,5.322632080078125,0.011762918508052824,-0.05614128167778253,0.0015951054380275308
1772018036584599300,5.342599365234375,-0.08995850334465504,-0.03779547764807939,0.017790380370337516
1772018036604567300,5.3625673828125,-0.12108312492668628,-0.0865504484668374,-0.03589108706517145
1772018036624534000,5.382533935546875,-0.095728903439641,-0.01776274344474077,-0.02621790737798437
1772018036644502300,5.402502197265625,0.14088964915871618,-0.05205868853926658,-0.009866656432673334
1772018036664469200,5.42246923828125,0.12054887191951275,-0.03065758859217167,-0.018154245246667415
1772018036684437200,5.442437255859375,0.09622340895831584,0.00483019663542509,-0.04320747449314222
1772018036704404200,5.462404296875,-0.018375614646077156,0.039110067377984524,-0.011843272001575677
1772018036724372200,5.482372314453125,-0.044975452280044556,0.059978960144519804,-0.05749072352536022
1772018036744339200,5.502339111328125,0.09853285494446754,0.03675561320632696,0.0010331059074029326
1772018036764307200,5.52230712890625,0.1255313365072012,-0.023469430653750897,0.007464581993315369
1772018036784274400,5.5422744140625,-0.04907996498942375,-0.041376551005244254,-0.016145042582415045
1772018036804242200,5.5622421875,-0.09231354203820229,-0.03240209417194128,0.027222937968373297
1772018036824209200,5.582209228515625,-0.015606734454631805,-0.059468964795768256,0.04820643355790526
1772018036844177200,5.60217724609375,0.001689268261194229,-0.06938011795729399,0.012344371657818555
1772018036864145200,5.622145263671875,0.01996317609846592,-0.06428571742773055,-0.022780315878428516
1772018036884112100,5.642112060546875,-0.012646131083369254,-0.04134147969186306,-0.02312341196136549
1772018036904080100,5.662080078125,0.025021044009923932,-0.044641105759143825,-0.021473087471071628
1772018036924047000,5.682047119140625,0.04422200356423855,-0.04130728516131639,-0.03970447134086862
1772018036944015400,5.702015380859375,0.014161796343326568,-0.03930412864536047,-0.0002963525980710983
1772018036963984100,5.721984130859375,-0.002214168918132782,-0.08211626541167497,0.020652619667351244
1772018036983951400,5.741951416015625,-0.011889175236225128,-0.10694470945894717,-0.016699169333837926
1772018037003919000,5.761919189453125,0.005842296287417411,-0.07011632327735423,-0.043185171329788864
1772018037023887000,5.78188720703125,-0.018021394380927085,-0.02790039883852005,-0.03664778718398884
1772018037043854300,5.801854248046875,-0.03126724492311477,0.017166823378205298,-0.026090408540796486
1772018037063822300,5.821822265625,0.05359130493402481,-0.002657528771460056,-0.01697897265590727
1772018037083789300,5.841789306640625,0.05394377163350582,-0.023384967240691185,0.021846249898709355
1772018037103757000,5.861757080078125,-0.06755670192241668,-0.03847819921523332,-0.030273119319230317
1772018037123724300,5.881724365234375,-0.046993221843242644,-0.040485447384417055,0.0225402052459307
1772018037143692300,5.9016923828125,0.03706628659069538,-0.06273030467927455,-0.06247198253665119
1772018037163659300,5.9216591796875,0.07116963172256946,-0.07977613202631473,-0.09757767311148345
1772018037183627000,5.941626953125,0.07794833207726479,0.030968846498429774,-0.02354346400434151
1772018037203594200,5.96159423828125,0.00715162532031536,-0.050795828996598714,-0.0434703084141016
1772018037223562200,5.981562255859375,-0.10354571467041969,-0.0224649297863245,-0.013961360134091227
1772018037243529200,6.001529296875,-0.07237433133721351,0.016641045938432214,-0.0316650486016646
1772018037263497500,6.02149755859375,0.027709260180592537,-0.05646423002183437,-0.03446852518245578
1772018037283464200,6.041464111328125,0.06860942584574223,-0.04140986875295639,-0.02279430787116289
1772018037303432200,6.06143212890625,0.020578093126416206,-0.05813742393106222,-0.027958704897016285
1772018037323399400,6.0813994140625,-0.050637715825438495,-0.0707169195190072,-0.028479532167036085
1772018037343367400,6.101367431640625,-0.08351005785763263,-0.04339315152466297,-0.0807285008477047
1772018037363334100,6.121334228515625,-0.040924715584516526,-0.03433218545168638,-0.05032609259299933
1772018037383302100,6.14130224609375,0.04795709843933582,-0.06693886228501797,-0.04126508998740464
1772018037403269400,6.161269287109375,0.1284668054372072,-0.008612345522642135,-0.09205529296081513
1772018037423237400,6.1812373046875,0.09836626620590687,-0.01893967826962471,0.02465317881191149
1772018037443204000,6.2012041015625,-0.04891922146975994,-0.025718963146209715,0.018183380009606478
1772018037463172000,6.221172119140625,-0.06968553064465523,-0.0149316116720438,0.036785076762828973
1772018037483139300,6.241139404296875,-0.036166707402467725,-0.013427344588935375,-0.028182722911238668
1772018037503107300,6.261107421875,-0.019074118304252624,-0.013919804280996323,-0.06334693874027579
1772018037523074300,6.28107421875,0.02405307576060295,0.0011716741278767586,-0.06542093200273812
1772018037543042300,6.301042236328125,-0.015163666862249374,-0.0051554830670356745,-0.03787846149010583
1772018037563009300,6.32100927734375,-0.0014145429730415343,-0.04358955087959766,-0.033022838152479375
1772018037582977300,6.340977294921875,0.10792553718984127,-0.0430409770861268,-0.03856808772208169
1772018037602944300,6.3609443359375,-0.007906827601790428,-0.030692952166497707,-0.03869741319017485
1772018037622912500,6.38091259765625,-0.033789456877112385,-0.0006651859104633331,-0.023237959985435007
1772018037642879200,6.400879150390625,0.0026081366717815397,-0.022431027516722678,-0.025632691368553787
1772018037662847200,6.42084716796875,0.0293447524279356,-0.04328647627979517,-0.045300921374745666
1772018037682814500,6.440814453125,0.06766133134067058,-0.018283552448451517,-0.037470921868830914
1772018037702782500,6.460782470703125,-0.09161153124868869,-0.06303279475718736,-0.08457730349665507
1772018037722749200,6.480749267578125,-0.02463642860651016,-0.03262041309773922,0.003913081790506839
1772018037742717200,6.50071728515625,0.010264204382896422,-0.04057575601637363,-0.010753924128599464
1772018037762684400,6.520684326171875,0.04247077598273754,-0.0030702012255787847,0.007558525620773434
1772018037782652400,6.54065234375,0.02920037552118301,-0.026844752305746077,-0.019816716832481325
1772018037802619100,6.560619140625,-0.021052140378952026,-0.012113047119975089,0.007273625998478382
1772018037822587100,6.580587158203125,-0.13129179973006247,0.016925708098709583,-0.03851029312023893
1772018037842554400,6.600554443359375,0.020053192469477652,-0.04595861809849739,0.0020465207336470485
1772018037862522400,6.6205224609375,0.17087153044641018,-0.0519838697373867,-0.06933989554475993
1772018037882489000,6.640489013671875,0.138506553414464,-0.011877777059376239,-0.05562246370175853
1772018037902457300,6.660457275390625,-0.10743453880250453,-0.059790744096040724,-0.02412442396376282
1772018037922424300,6.68042431640625,-0.2010691003113985,-0.01607785909771919,0.03782948951553553
1772018037942392300,6.700392333984375,-0.09976093543469905,-0.04849778118729591,-0.02105785773368552
1772018037962359600,6.720359619140625,0.1062292546659708,-0.05933160215169191,-0.05301043630614877
1772018037982327300,6.740327392578125,0.12933715853095054,-0.06782996590584515,-0.07295874362904578
1772018038002294300,6.760294189453125,0.046486441364884376,-0.0219768540084362,-0.03647929874928668
1772018038022262300,6.78026220703125,-0.1198579670459032,-0.005729191301763057,-0.0073090626380406315
1772018038042230300,6.800230224609375,-0.17999708618819713,0.013139175297319889,0.012608539019338786
1772018038062197200,6.820197265625,0.025713702449202538,-0.029219957004487512,-0.02444563700845465
1772018038082165200,6.840165283203125,0.178878311291337,-0.03280453749299049,-0.023617698284331707
1772018038102132200,6.86013232421875,0.1435994926393032,-0.0351221667855978,-0.01538379415264353
1772018038122100500,6.8801005859375,-0.017987492111325262,-0.0019479191973805427,-0.02983076411290094
1772018038142067500,6.9000673828125,-0.09967968689203262,-0.00020838205367326734,-0.02296396534964442
1772018038162035200,6.92003515625,-0.026159108129143713,-0.013854630090296268,-0.046668994857557114
1772018038182002400,6.94000244140625,0.11934241873919964,-0.04074000666737556,-0.020155008876137435
1772018038201970400,6.959970458984375,0.032788170880079265,-0.08174918566495179,-0.06685816173162311
1772018038221937400,6.9799375,-0.09733750768005847,-0.0002858312040567398,-0.00505870816167444
1772018038241905200,6.9999052734375,-0.11156301690936088,-0.01873626465201378,-0.0008905190989375114
1772018038261872400,7.019872314453125,0.05896130753457546,-0.05717763898819685,-0.025469755891803652
1772018038281840400,7.03984033203125,0.08418576516211032,-0.06641308484524489,-0.08053727085823192
1772018038301807400,7.059807373046875,0.10829261693656445,-0.00006955810487270355,-0.013113419801555573
1772018038321775400,7.079775390625,-0.028095629149675366,-0.03868687352985144,-0.008675546951964498
1772018038341742300,7.099742431640625,-0.13338380357325078,0.020185586677491665,-0.006327321591693908
1772018038361710300,7.11971044921875,-0.041053894922137256,-0.022043489503860474,-0.07937736023338511
1772018038381677300,7.13967724609375,0.09494505958557128,-0.0763964264601469,0.014948179214354604
1772018038401645300,7.159645263671875,-0.05613339063227176,-0.05837123268693685,-0.010484276874363421
1772018038421612300,7.1796123046875,-0.14395371290445327,-0.04705225855410099,-0.035696021150797605
1772018038441580300,7.199580322265625,-0.05140519306659698,-0.047396249686181544,-0.062259855889622115
1772018038461547300,7.21954736328125,0.1140372980684042,-0.030547113955020903,-0.05298997804000973
1772018038481515500,7.239515625,0.029791911673545834,-0.007309446230530738,0.02199871878037229
1772018038501482000,7.25948193359375,-0.10489537571370601,0.007310615274310111,-0.017206899660266936
1772018038521450000,7.279449951171875,-0.055621933978796,0.0031967502146959302,0.015267602160759269
1772018038541417200,7.299417236328125,0.04959375973045826,-0.016124328587949276,0.0043077984628267585
1772018038561385200,7.31938525390625,0.10322890380620955,-0.05615004950612783,-0.018072576578892767
1772018038581352000,7.33935205078125,0.011050386324524878,-0.05224456650018692,-0.03302866510506719
1772018038601320000,7.35931982421875,-0.08226561075448989,-0.014698095177114009,-0.0031149902153760193
1772018038621287200,7.379287109375,-0.08131225555241108,0.021283903308212757,0.007897091659065335
1772018038641255200,7.399255126953125,0.0619353549093008,-0.05028291103839874,-0.009554065085854381
1772018038661222000,7.419221923828125,0.0933101518601179,-0.06378185955882072,0.003767974231392145
1772018038681190000,7.43918994140625,0.016937690797448158,-0.01559825888723135,-0.031714221505634486
1772018038701157000,7.4591572265625,-0.19952362443506716,-0.00013619360029697419,0.011540215668082237
1772018038721125000,7.479125,-0.17606559195816515,0.001371288353204727,0.01985746896797791
1772018038741091800,7.499091796875,0.03566401857733726,-0.02692074015140533,-0.0024455665212124583
1772018038761060000,7.51906005859375,0.13464812442064283,-0.031031390340626238,-0.06074333211313933
1772018038781027000,7.539027099609375,0.1619470502346754,-0.011376841799914836,0.007874697164166718
1772018038800995000,7.5589951171875,-0.05292787258923053,-0.026468904730677603,-0.0018866722631268203
1772018038820962000,7.578962158203125,-0.1314566349029541,0.04030979855656624,-0.0194182555668056
1772018038840930000,7.598929931640625,-0.05376081628203392,-0.04176905745416879,-0.015912402870319784
1772018038860897000,7.61889697265625,0.08097089476883411,-0.09096271195113659,0.002644687556196004
1772018038880865000,7.638864990234375,0.017611060014367103,-0.09077654172927141,0.04780252893213183
1772018038900832300,7.658832275390625,-0.22799159402847288,-0.050565527372062206,-0.011968122223950921
1772018038920800000,7.678800048828125,-0.062088499644398686,0.030155484288930893,0.025568996748887
1772018038940767000,7.69876708984375,0.1122287873417139,-0.02479892569184303,-0.012041918112523853
1772018038960735000,7.71873486328125,0.1506412278443575,0.0111126379057765,0.03556119752367958
1772018038980702200,7.7387021484375,-0.08375263444185256,0.009964636914432048,0.005109853827022016
1772018039000670000,7.758669921875,-0.16057225475013256,0.031628771711885925,0.005223652932420372
1772018039020637000,7.778636962890625,0.1071440314233303,0.030417934617400166,0.039960564993787556
1772018039040605200,7.798605224609375,0.25459201618433,-0.03553454697877168,0.008449830171000212
1772018039060572200,7.818572265625,0.009979542222619056,-0.020147008232772348,-0.027399463579058647
1772018039080540200,7.8385400390625,-0.08912555965185165,0.011579086373746394,-0.054841341527737675
1772018039100507100,7.858507080078125,-0.05462123250365257,-0.02490969258993864,-0.037586474539898336
1772018039120475100,7.87847509765625,0.05581307263672351,-0.0488730442404747,-0.07229448930034414
1772018039140442000,7.898442138671875,0.05880874732136726,-0.02834872712790966,0.0008623341840691864
1772018039160410000,7.91841015625,-0.1575070219606161,-0.07430646844357251,-0.03272107872692868
1772018039180377000,7.938377197265625,-0.1447965934693813,-0.022791385261714456,-0.014531360308080912
1772018039200345000,7.958344970703125,-0.03431260396838188,-0.08646773861944675,-0.036099816178716715
1772018039220312000,7.97831201171875,0.09695406132042407,-0.07066109767854213,-0.03720271765301004
1772018039240280000,7.998280029296875,0.08718786958754061,-0.0621817308858037,-0.07614747493406757
1772018039260247000,8.0182470703125,-0.07833060939311981,0.0008773673564195632,-0.0812091605041176
1772018039280215000,8.038215087890626,-0.02313946804702282,-0.0349979558840394,-0.015943254666309803
1772018039300182000,8.05818212890625,0.0409603714197874,-0.011098609380424023,-0.09748310842951759
1772018039320150000,8.07814990234375,0.09803016611933707,-0.04486819251328707,-0.09887706527225673
1772018039340117000,8.098116943359376,0.00434007503092289,-0.0983233038470149,-0.044870147008355704
1772018039360085000,8.1180849609375,-0.1549976694881916,-0.05904314059913158,-0.02631672810995951
1772018039380052000,8.138052001953126,-0.06633095951974391,-0.07225421208888291,-0.03909636764619499
1772018039400020200,8.158020263671874,0.02428571547269821,-0.08575842130631207,-0.045926085802074516
1772018039419987000,8.177987060546876,0.006785714617371558,-0.08050123143047094,-0.08740841700304298
1772018039439955000,8.197954833984374,-0.06018880350291728,-0.04023351844996214,-0.02136467692684382
1772018039459922200,8.217922119140624,-0.013967735075950621,-0.0453416552439332,-0.01238835693001747
1772018039479890200,8.23789013671875,0.10394260503351688,-0.016936229492723942,-0.015451416028756647
1772018039499857000,8.25785693359375,0.15621581310629845,-0.016475626243650912,0.004847257368080318
1772018039519825000,8.277824951171874,0.10895312667191027,-0.03575695755779743,-0.045357583465427155
1772018039539792100,8.297792236328124,-0.005195815077424049,0.0006958733096718788,-0.03753406849922612
1772018039559760100,8.317760009765625,-0.018248773396015164,-0.010725099892914295,-0.0050931036216206845
1772018039579727000,8.33772705078125,-0.025168343526124952,-0.01796148088723421,-0.008440404755529016
1772018039599694800,8.35769482421875,0.06634440352320671,-0.03809884450882673,-0.030034269062057136
1772018039619662000,8.377662109375,0.08122282370328902,-0.04909136316627264,-0.027525227116886524
1772018039639630000,8.397630126953125,-0.023062895679473876,-0.02390577624440193,-0.018894195160083473
1772018039659597000,8.41759716796875,0.005113982012867928,-0.05450783525705337,-0.05424227965604513
1772018039679565000,8.43756494140625,0.09960253000259399,-0.05500029494911432,-0.028838556471467016
1772018039699532000,8.457531982421875,0.12703180419802665,-0.05528846424072981,-0.01714746109060943
1772018039719500000,8.4775,-0.11273322973251342,-0.034867022980749604,-0.037023178101330996
1772018039739467300,8.49746728515625,-0.16046294915676115,-0.0014317863687872887,-0.0010564502503722906
1772018039759435300,8.517435302734375,0.008859013760089874,-0.04033551751971245,0.02103865984287113
1772018039779402000,8.537402099609375,0.09491700253486633,-0.07477408595532178,-0.027492786152008918
1772018039799370000,8.557369873046875,-0.007640285620093345,-0.0883037218749523,-0.03217403930341825
1772018039819337200,8.577337158203125,-0.14480536129772661,-0.03237491390407085,0.03211045428160578
1772018039839305200,8.59730517578125,-0.07616027961671352,-0.07383972771465779,-0.004623440283257514
1772018039859272000,8.61727197265625,-0.03350011854171753,-0.04317307903319597,-0.018891254284325986
1772018039879240000,8.637239990234375,-0.041191842088103295,-0.03547784835547209,-0.057536681558936834
1772018039899207200,8.657207275390626,0.04262275167405605,-0.012620412120223044,-0.06902913082884624
1772018039919175200,8.677175048828126,0.05520867700278759,0.026430034025013444,-0.069346507948637
1772018039939142000,8.697141845703126,-0.013964227944612502,0.0013452771291136742,-0.029291323473956434
1772018039959110100,8.717110107421876,-0.03078033818900585,-0.004757423660159111,-0.02257489296682179
1772018039979077000,8.7370771484375,0.05333937599956989,-0.002056055746972561,-0.0034553098193369804
1772018039999045000,8.757045166015626,0.11125088222026824,-0.04542611865699291,-0.010314802058972417
1772018040019012000,8.77701220703125,0.07592237920761108,-0.04978869778066873,-0.03694096144428476
1772018040038980000,8.79697998046875,-0.10580430725216865,-0.031699498860538,-0.033459713466092944
1772018040058947000,8.816947021484374,-0.2534247259706259,-0.027790216462314127,-0.051304984095133836
1772018040078914000,8.8369140625,-0.07493336817026137,-0.03281768923550844,-0.02320489796604961
1772018040098882000,8.856882080078124,0.06645312459468841,-0.04710311195850372,-0.037438992360606785
1772018040118850000,8.87685009765625,-0.011918985852599144,-0.04217325434088707,-0.03350402753185481
1772018040138817000,8.896817138671874,-0.053196168136596673,-0.038516485399007795,-0.016704320432990787
1772018040158784300,8.9167841796875,-0.05419803865551948,-0.0019616554617881772,-0.013883052467182277
1772018040178752300,8.936752197265625,0.0026467151165008545,-0.01706687013506889,-0.0076778046188876025
1772018040198719000,8.956718994140624,0.01557166314125061,-0.00018149404674768448,-0.019688176815677434
1772018040218687000,8.97668701171875,0.014966098463535308,0.01948416040986776,-0.025516919501777736
1772018040238654200,8.996654296875,0.06817395703792571,0.021514789454638958,-0.0051417833352461455
1772018040258622200,9.016622314453125,-0.031048633736371994,0.020203414595127103,-0.06364245108813046
1772018040278589000,9.0365888671875,-0.04755494737923145,0.0044917584612965585,-0.0867914541484788
1772018040298557000,9.056556884765625,0.0028431144714355467,0.0026996143475174904,-0.012831570652872323
1772018040318524200,9.076524169921875,0.05899462528228759,-0.034762101301550864,0.006234473942779004
1772018040338492200,9.0964921875,0.005029810860753059,-0.054850657345354555,-0.042152649944275616
1772018040358459000,9.116458984375,-0.0463502477645874,-0.04271832100301981,-0.04441725214170292
1772018040378427100,9.13642724609375,-0.016387071177363394,-0.0022439795345067974,-0.07891471115769819
1772018040398394000,9.15639404296875,-0.03113280488848686,-0.014659516732394694,-0.038693558998964726
1772018040418362000,9.176362060546875,0.021622049221396444,0.005774199487268925,0.016228355218004434
1772018040438329000,9.1963291015625,-0.01044248355925083,-0.03617839784026146,-0.017372648148611187
1772018040458297000,9.216297119140625,-0.009529460367560387,-0.06329349151998757,-0.04663596937078982
1772018040478264000,9.23626416015625,0.09592822540402411,-0.03534983806163072,-0.052001259263604875
1772018040498231800,9.256231689453125,0.03876724528968334,-0.059413435216248034,-0.07289212639993056
1772018040518199000,9.276198974609375,0.0038163434177637097,-0.023764906468987462,-0.023979060676321384
1772018040538167000,9.2961669921875,-0.07425415373444556,-0.029139585244655607,-0.031968817321211096
1772018040558132000,9.316132080078125,-0.007457914790511131,-0.019685820461809635,-0.04025088970987126
1772018040578100000,9.336099853515625,0.14923779078722,-0.03247954332232475,-0.04730447974950075
1772018040598067000,9.35606689453125,0.06831482681334018,-0.06817512608170509,-0.060556723499856885
1772018040618035200,9.37603515625,-0.1967564978092909,-0.018463585190474988,-0.01684630445325747
1772018040638002000,9.396001953125,-0.14878946249783037,-0.038723113887012,-0.02550236125346273
1772018040657970000,9.415969970703125,0.012204232534766197,-0.07864829704016446,-0.04848630994521081
1772018040677937200,9.435937255859375,0.001474164205789566,-0.07763619738817215,-0.067878773483634
1772018040697905200,9.4559052734375,0.01983107415139675,-0.031169629767537115,-0.06298424290772527
1772018040717871900,9.475871826171876,0.050509705531597136,-0.05597527746111154,0.006632241088710725
1772018040737839900,9.49583984375,0.059466918969154355,-0.00729629448801279,-0.05949545094389468
1772018040757807000,9.51580712890625,-0.05481354020535945,-0.0549292755395174,-0.0855469522464089
1772018040777774000,9.535774169921876,-0.03467851467132568,-0.05992284604310989,-0.009535871842037885
1772018040797741800,9.555741943359376,0.019933365482091903,-0.09406097022742033,0.0336322570214048
1772018040817709000,9.575708984375,0.04409165518283844,-0.08197773372381925,0.00787740057790652
1772018040837677000,9.595677001953124,-0.0768412476181984,-0.0652946022093296,-0.03569055952439085
1772018040857644000,9.61564404296875,-0.11338263355195521,-0.005071311914920807,-0.03499240292608738
1772018040877611800,9.63561181640625,0.07948679369091988,-0.02195376539379358,-0.0230249200229533
1772018040897579000,9.6555791015625,0.15328209774196147,-0.01915828945636749,0.029111637791804968
1772018040917547000,9.675547119140624,0.043453941801190374,-0.03298924641013145,0.0073788947375491255
1772018040937514000,9.695513916015624,-0.04265431585609913,-0.02683978386968374,0.031447770855482664
1772018040957482000,9.71548193359375,-0.044425417181849475,-0.05075345115959644,-0.01531958807632327
1772018040977449000,9.735448974609374,0.03037818712890148,-0.024234862068295476,-0.034397268310841174
1772018040997417000,9.7554169921875,0.12373802334964275,-0.06877718362808227,-0.038026582990214226
1772018041017384000,9.775384033203125,0.08840601320564746,-0.049125557696819304,-0.0022123422872275113
1772018041037352200,9.795352294921875,-0.14069091171622275,-0.06528028142303229,-0.025660620555095374
1772018041057319000,9.81531884765625,-0.16163433102369307,-0.06358984411805868,-0.01918494000127539
1772018041077287000,9.835286865234375,0.037517537489533424,-0.0797773010700941,-0.03852382845524698
1772018041097254100,9.855254150390625,0.1287812782138586,-0.07551292162388562,-0.012119440328143537
1772018041117222100,9.87522216796875,-0.05616612385809421,-0.06690320644974708,-0.012310889513324945
1772018041137188900,9.89518896484375,-0.10569617070257663,-0.03552753271609545,-0.028365404268074778
1772018041157156000,9.915156005859375,0.014432429978251456,-0.022106033346056937,-0.04488391980538144
1772018041177124000,9.9351240234375,0.17251871313154696,-0.04813274726718664,-0.036409448383469135
1772018041197091000,9.955091064453125,-0.0019388591080904006,-0.07859276746064424,-0.05124165480164811
1772018041217058800,9.975058837890625,-0.12969254783988,-0.009001929362118244,-0.040016514698415995
1772018041237026000,9.995026123046875,-0.10876140349209308,-0.06416647496223449,-0.05921245101774111
1772018041256994000,10.014994140625,0.06759820297658443,-0.055876201000809665,-0.002729059637710452
1772018041276961000,10.0349609375,0.07579846056699753,-0.11130758084356784,-0.025359792711306364
1772018041296928800,10.0549287109375,-0.053704702180624,-0.057042322170734405,-0.02077429155195132
1772018041316896000,10.07489599609375,-0.11240882008373737,-0.019163842414319513,-0.04509336130497977
1772018041336864000,10.094864013671875,0.0021188918501138685,0.004156535157561302,-0.016302845226321368
1772018041356831000,10.1148310546875,0.09550795416533947,-0.021358429849147795,-0.01169125977763906
1772018041376799000,10.134799072265626,0.06136193893551826,0.014658347688615321,-0.011466291915345936
1772018041396766000,10.154765869140626,-0.01575461849272251,-0.020777122829854486,-0.050930195965990424
1772018041416734000,10.17473388671875,-0.03313070070743561,0.0029857378125190733,-0.04843498161677271
1772018041436701200,10.194701171875,0.012108370944857597,-0.0008586626559495925,-0.028042364592477678
1772018041456668000,10.21466796875,0.020574585995078085,-0.028038638265430925,-0.04919823934054002
1772018041476636000,10.234635986328126,0.05047989491522312,-0.009426876775920391,-0.020429514968581496
1772018041496603100,10.25460302734375,0.03460661847889423,-0.010600012208521366,-0.04232521176589653
1772018041516571000,10.27457080078125,0.00445464132130146,-0.03374590999633074,-0.01714508647043258
1772018041536537600,10.29453759765625,-0.0438274512887001,-0.041297640550136565,0.01326981593966484
1772018041556505600,10.314505615234374,-0.1401660110592842,-0.021205577374994754,0.0180083339699544
1772018041576472800,10.334472900390624,-0.07669102549254894,-0.045613750183582304,-0.0071451225142925975
1772018041596440800,10.35444091796875,-0.011820786175131798,-0.04114508033692837,-0.007761957504693418
1772018041616407600,10.374407470703124,0.08029811007380486,-0.030235856048762798,0.01948238857788965
1772018041636375600,10.39437548828125,-0.03723813602626323,-0.007409983995556831,-0.015688951111678034
1772018041656342800,10.4143427734375,-0.04679974509775638,0.00949701940268278,-0.008759845968242735
1772018041676310800,10.434310791015625,0.022432781082391738,-0.005182663334906101,-0.024541662995144722
1772018041696277500,10.454277587890624,0.09102467127144336,0.014428630585968494,-0.04710183331687003
1772018041716244700,10.47424462890625,0.03038812400102615,-0.005232932217419147,-0.015564904606901108
1772018041736212700,10.494212646484375,-0.05689034647941589,0.0002329319730401039,0.03384432886950672
1772018041756179700,10.5141796875,-0.059036126336455344,-0.04066811047494411,0.04680087760891765
1772018041776147700,10.534147705078125,-0.09857669408619403,-0.041381227180361746,0.007783420417830348
1772018041796114700,10.55411474609375,-0.03920154505372047,0.020280863745510577,0.014825246954429893
1772018041816082700,10.574082763671875,-0.01045125138759613,-0.024290391647815702,-0.021579105128813534
1772018041836050000,10.5940498046875,-0.037436288946866986,-0.01015928270369768,-0.003477941776253283
1772018041856017700,10.614017578125,-0.017559037566184998,0.014565116447210312,-0.016242347210738806
1772018041875984600,10.633984619140625,0.07661269955933094,-0.040299861684441565,-0.0056386817404069
1772018041895952600,10.65395263671875,0.13124912963211535,-0.06868102977722883,-0.041999066817760465
1772018041915920000,10.673919921875,0.15051672468185423,-0.018761691354215144,0.022219284462183714
1772018041935887600,10.6938876953125,-0.03145253836214542,-0.10417436796277761,-0.05071289995349943
1772018041955854600,10.7138544921875,-0.22597616255283354,0.04579816683977842,0.10690989387389271
1772018041975821800,10.73382177734375,0.0182820911437273,-0.06142243695110082,-0.06950633815284818
1772018041995789800,10.753789794921875,0.0719955611526966,-0.0022205986589193343,0.07245408204253763
1772018042015756500,10.773756591796875,0.08378770575523375,-0.03197130153924226,-0.0660439592719078
1772018042035724500,10.793724609375,-0.04454992034435272,-0.04463087662607431,-0.024308694489486513
1772018042055691800,10.81369189453125,-0.03566986379623413,0.0022726211071014404,-0.036459845130145545
1772018042075659800,10.83365966796875,-0.6844710411697625,0.043790334148705,-0.18355043128822
1772018042095626500,10.85362646484375,-0.2516033557623625,0.11348375583887099,0.2718852789537981
1772018042115594800,10.8735947265625,0.24819676218926906,-0.17413140902519225,-0.015997670000977814
1772018042135561700,10.893561767578126,0.9494330601990222,-0.2206330479592085,-0.11994020196925848
1772018042155529700,10.91352978515625,0.30327450628876684,-0.05997428396940231,-0.17431662939898668
