time,seconds_elapsed,z,y,x
1772018068826113500,0.064113525390625,0.1710615000605583,-0.06033756432384252,-0.03268480183715001
1772018068846080300,0.084080322265625,0.25171733753085135,-0.05577946262806654,-0.033691512927971776
1772018068866047500,0.104047607421875,0.1576163275539875,-0.02019844615906477,-0.06778201684458181
1772018068886014500,0.124014404296875,0.040786183896660805,0.006234218214452266,-0.04139799565207213
1772018068905982500,0.143982421875,-0.08562427353262901,-0.017515198424458502,-0.0642971704035066
1772018068925949400,0.163949462890625,-0.040681554478406906,-0.03772270467281341,0.005639467191696166
1772018068945916400,0.18391650390625,-0.20487842946648596,-0.02217208431959152,0.031706969780940564
1772018068965883400,0.20388330078125,-0.123774848228693,-0.20624474938362836,-0.2532110466873273
1772018068985850400,0.223850341796875,0.4642594334930181,-0.07737491610348224,-0.09575542612038553
1772018069005817300,0.2438173828125,0.1527799934387207,-0.013937924459576607,0.09540803745482117
1772018069025784600,0.26378466796875,-0.25708032586872576,0.056769058187305925,0.0728114258465357
1772018069045751300,0.283751220703125,-0.21178923176825046,0.08984802870750427,0.029561354320682583
1772018069065718500,0.303718505859375,0.1226116496682167,-0.0584323152244091,0.005027198778558522
1772018069085685500,0.323685546875,0.1775584608644247,-0.07863017686158418,0.003488170909322798
1772018069105652200,0.34365234375,0.01391337454020977,-0.11822861227840184,-0.08213610262330621
1772018069125619500,0.363619384765625,-0.21389292604923246,-0.08585457515716552,-0.04964307876490056
1772018069145586400,0.38358642578125,0.08633855928182602,-0.006788052704930305,-0.07143308669803664
1772018069165553400,0.403553466796875,-0.1247071606427431,-0.07358253808319568,-0.13332849318943918
1772018069185520400,0.423520263671875,0.20591244868934153,-0.00163519998639822,-0.005180325247347355
1772018069205487600,0.443487548828125,0.16522914064526556,-0.05337707766145468,0.02231757547119632
1772018069225454300,0.463454345703125,0.05462240154743194,-0.027086159846186637,-0.053088068119622765
1772018069245421300,0.48342138671875,0.14554010531306266,-0.02516249830722809,0.07728966723913326
1772018069265388500,0.503388427734375,0.10988134743273258,-0.021723171508312225,-0.012442936661466956
1772018069285355300,0.523355224609375,-0.012899813583493232,-0.024723522368073462,0.07803476825170219
1772018069305322500,0.543322509765625,0.03420388289690018,0.0031488194197416305,-0.03870835470929742
1772018069325289500,0.56328955078125,-0.051310500520467754,-0.037538288016617294,-0.026628844532743095
1772018069345256400,0.58325634765625,0.07605389663279057,-0.06464315256327391,-0.02887819436211139
1772018069365223400,0.603223388671875,-0.024580899026989934,0.09341565806120633,0.0686504154432565
1772018069385190400,0.6231904296875,-0.2242126600116491,0.028706454524397847,-0.030978491109609603
1772018069405157400,0.643157470703125,-0.15507307281196117,-0.16041297253519296,-0.05775551194138825
1772018069425124400,0.663124267578125,-0.27853052565455433,-0.05560118345171213,-0.04025752038005739
1772018069445091600,0.683091552734375,-0.09421323817968368,0.04125117105990648,-0.03152746676187962
1772018069465058300,0.703058349609375,0.1525531989455223,0.2161918506413698,-0.004978537331242114
1772018069485025300,0.723025390625,-0.141861709061265,0.2386342763349414,0.12121654204800725
1772018069504992500,0.742992431640625,-0.21306524305343627,-0.30471798309534787,-0.374307140693441
1772018069524959200,0.762959228515625,0.15943535967469213,-0.4012368678689003,-0.23566886892439795
1772018069544927200,0.78292724609375,0.06446750373542308,-0.43578240381032224,-0.8232386566732078
1772018069564894200,0.802894287109375,-0.03766366796195507,-0.5878466501951217,-0.6353546896927058
1772018069584861000,0.82286083984375,-0.32128596379756924,-0.6901610695049166,-0.4469761441282928
1772018069604828200,0.842828125,-0.44450084005594254,-0.365871247716248,-0.23202103220764547
1772018069624795100,0.862795166015625,-0.339345352101326,-0.24397125344872472,-0.05063680250998586
1772018069644762000,0.88276220703125,0.01868950290083885,-0.10484306100457906,0.16327884682770819
1772018069664729000,0.90272900390625,0.13468027312457562,0.006498422108590603,0.3928895299579948
1772018069684696300,0.9226962890625,-0.011566519153118134,0.22580139050781725,0.3586165638802573
1772018069704663000,0.9426630859375,0.08988719167411327,0.34368542713224887,0.24768435568772254
1772018069724630000,0.962630126953125,0.2122539266705513,0.29706776060312984,0.20754070747829972
1772018069744597200,0.98259716796875,0.36635669314563274,0.3995879316180944,0.1464957620700821
1772018069764564000,1.00256396484375,0.4357172296196222,0.407067473718524,0.22901213271524756
1772018069784531200,1.02253125,0.35175007564425465,0.36200960385203357,0.2307662463735789
1772018069804498200,1.042498291015625,-0.04457914643883705,0.2187543946057558,0.13021437975689767
1772018069824465200,1.062465087890625,-0.22581541903316973,0.12699556384086608,0.047989649002067744
1772018069844432100,1.08243212890625,-0.14879180058538913,0.032713352078199386,0.10091602375395596
1772018069864399000,1.102399169921875,-0.18435645044147966,-0.09039455667436122,-0.02338259262051433
1772018069884366000,1.122365966796875,-0.04155249209403991,-0.1875228055179119,-0.09754406310282647
1772018069904333000,1.1423330078125,0.03833060743808746,-0.21163550251126287,-0.09087748135309666
1772018069924300300,1.16230029296875,-0.023045944544672965,-0.2407487842708826,-0.1919857032109052
1772018069944267000,1.18226708984375,-0.06523147384524346,-0.2768243062585592,-0.24910346523802726
1772018069964234200,1.202234130859375,0.025828853261470792,-0.18555004414021967,-0.14731559055298565
1772018069984201200,1.222201171875,0.20416823537051676,-0.04201104951649904,-0.08153221844602376
1772018070004168000,1.24216796875,0.14163608361184596,-0.1154179387718439,-0.07190700608640908
1772018070024135200,1.26213525390625,0.018261048355698584,-0.09969020828604698,-0.12199048556257039
1772018070044102100,1.28210205078125,0.11092647257149219,-0.002741407662630081,0.02378386689778417
1772018070064069000,1.302069091796875,0.056121700194478034,0.058120180535316465,0.1369012005770579
1772018070084036000,1.3220361328125,-0.0545674564898014,0.061439680346846576,0.16196714317463337
1772018070104003000,1.342003173828125,-0.3266302474349737,0.039490883389115335,0.08786310196798294
1772018070123970000,1.361969970703125,-0.2913590275675058,0.04930120652467012,0.05032200093977153
1772018070143937000,1.38193701171875,-0.0461760602414608,-0.01227729777097702,0.08951686052437871
1772018070163904300,1.401904296875,0.051474751171469685,-0.038411563719809055,0.041309878977201876
1772018070183871000,1.42187109375,0.1748264055520296,0.03673866207152605,0.008475750063546
1772018070203838200,1.441838134765625,0.3481242863625288,-0.04381751441657543,-0.02046612065192312
1772018070223805200,1.46180517578125,0.21716040341258047,-0.06635317135155201,-0.03127356506604701
1772018070243772000,1.48177197265625,-0.05024608615934849,0.009577391162514687,-0.10350702662784605
1772018070263739100,1.5017392578125,-0.0238940858066082,-0.03375526234656572,-0.056122175118513404
1772018070283706000,1.5217060546875,0.002034136176109314,-0.033275662136077876,-0.03945866161994636
1772018070303673000,1.541673095703125,-0.09040507806837558,-0.0344470440030098,-0.09647997753527014
1772018070323640000,1.56164013671875,-0.14822715243995188,-0.0022241057902574538,-0.09667276016101241
1772018070343607300,1.581607177734375,-0.08108779914677143,-0.02746200742125511,-0.10422602508477866
1772018070363574000,1.601573974609375,-0.0453612367272377,-0.014298574465513228,-0.04400269825775176
1772018070383541000,1.621541015625,0.12788286806941032,0.09375526527911424,0.014074629516527055
1772018070403508200,1.64150830078125,0.22751930034160614,0.09486293426007032,0.04671688911989331
1772018070423475000,1.661474853515625,0.2749561742991209,0.029048107568919658,0.02051580501254648
1772018070443442200,1.681442138671875,0.06513619677722454,0.0005301613539457321,0.10827080696355551
1772018070463409200,1.7014091796875,-0.12153145321607589,0.009527706801891326,0.09045969433244318
1772018070483376000,1.721376220703125,-0.10672083757519721,-0.1544002881169319,0.14893172051273285
1772018070503343000,1.741343017578125,-0.11918167521953582,-0.16969313431680202,0.14967895868346096
1772018070523310000,1.76131005859375,-0.15307050081789492,-0.14663842194378376,0.14966087503749875
1772018070543276800,1.78127685546875,-0.23553017283976077,-0.14989625469595194,0.1706718796884641
1772018070563243800,1.801243896484375,-0.3245253841102123,-0.11728139455616474,0.029820918572321532
1772018070583211000,1.8212109375,-0.14620646026730535,-0.045291970883309836,-0.018929047277756034
1772018070603177700,1.841177734375,0.08647124575078487,-0.05323708466887474,-0.03250847715586424
1772018070623145000,1.86114501953125,0.015476970595121382,-0.041136312508583066,-0.07486165464092046
1772018070643112000,1.88111181640625,-0.01215747078359127,-0.012600246115028857,-0.11609824918620287
1772018070663079000,1.901078857421875,0.05471183339655399,-0.021807927182316778,-0.10959383572824298
1772018070683046000,1.9210458984375,-0.05502396808564663,-0.10405337193161249,-0.1589794326007366
1772018070703012900,1.941012939453125,-0.22392390619814395,-0.09800795428752898,-0.2162006184697151
1772018070722979800,1.960979736328125,-0.1389724173605442,-0.1332517016261816,-0.1473325782204047
1772018070742946800,1.98094677734375,0.07017535998821259,-0.16838731241524219,-0.08501856272444129
1772018070762914000,2.0009140625,0.07178805588185787,-0.19099252745509146,-0.10812314212117344
1772018070782880800,2.020880859375,0.11774608945846557,-0.10683832647502421,-0.09770345491562038
1772018070802847700,2.04084765625,0.2600099495798349,-0.12179916424155235,-0.1692989108348265
1772018070822815000,2.06081494140625,0.3216717482447624,-0.1182505318492651,-0.16770718466397375
1772018070842781700,2.08078173828125,0.15401158106029034,-0.021309622271358967,-0.12089735656362026
1772018070862749000,2.1007490234375,-0.29719138698279857,0.02282791787981987,-0.1371428273132071
1772018070882716000,2.1207158203125,-0.3886678936749697,0.10524579658657311,-0.0014257950194180012
1772018070902683000,2.140682861328125,-0.11523322985470294,0.11461129856407641,0.12295856340974569
1772018070922649900,2.16064990234375,-0.01750000085532665,0.15493132625371217,0.1852700216224417
1772018070942616800,2.180616943359375,0.23425416155457496,0.19346067113429308,0.12476557629909366
1772018070962583800,2.200583740234375,0.5216881246328353,0.08379325871318578,0.10806129239872098
1772018070982550800,2.22055078125,0.5113111075252295,0.031174890464544296,0.16718538927957416
1772018071002518000,2.24051806640625,0.2580675833404064,0.14517770174145697,0.23727650505043565
1772018071022484700,2.260484619140625,-0.05664192467629909,0.21257833631932735,0.2848848631173372
1772018071042452000,2.280451904296875,-0.3028437136560678,0.21241700827777385,0.3183569246083498
1772018071062419000,2.3004189453125,-0.49919163066446776,0.1499737038463354,0.2394574658187106
1772018071082385700,2.3203857421875,-0.4466717543542385,0.07317951024025678,0.22737744418550282
1772018071102353000,2.340352783203125,-0.3080599869996309,-0.0960772784858942,0.135346518480964
1772018071122320000,2.36031982421875,-0.25460487566590306,-0.2541737907722592,-0.06633176323734223
1772018071142286800,2.380286865234375,-0.17335925560891627,-0.3357721697896719,-0.13041863362472503
1772018071162253800,2.40025390625,-0.03512041321992874,-0.2714268311291933,-0.1045698700863868
1772018071182221000,2.420220947265625,0.035781507477164264,-0.14836889899820088,-0.0723985524630174
1772018071202187800,2.440187744140625,0.13728256457746027,-0.09039543345719575,-0.06664232702385633
1772018071222154800,2.46015478515625,0.1536561917513609,-0.1224266484901309,-0.18998112192284314
1772018071242122000,2.4801220703125,0.017834931898117065,-0.2058843916386366,-0.17084128143861887
1772018071262088700,2.500088623046875,-0.036869887235760686,-0.0957937853693962,-0.18218458629511294
1772018071282056000,2.520055908203125,-0.11882628591060637,0.021937983302772045,-0.07261679832357913
1772018071302023000,2.54002294921875,0.022922610425949095,0.16728548865318296,0.01864716159645468
1772018071321990000,2.559989990234375,-0.0066501055389642716,0.2606713360980153,0.12606456660106777
1772018071341956900,2.579956787109375,-0.13594517849385737,0.27769144448190924,0.029285240793041883
1772018071361923800,2.599923828125,0.04412848006188869,0.11639029093533754,-0.067363773166202
1772018071381890800,2.619890869140625,0.3428296870857477,0.005967968493700027,-0.034762028236314656
1772018071401857800,2.63985791015625,0.4201818068355322,-0.07640607107132673,-0.07421031459271907
1772018071421825000,2.659824951171875,0.19401976632177828,-0.19323036950975656,-0.10401585293281823
1772018071441791700,2.679791748046875,-0.07924772423803805,-0.1079264139726758,-0.05521017484012991
1772018071461759000,2.699759033203125,-0.14136252736747265,-0.03683598496615886,0.01629077119603753
1772018071481726000,2.719725830078125,-0.23019933320581912,-0.018891747474670408,0.018177498258091507
1772018071501692700,2.739692626953125,-0.3151484839558601,0.020978490620851515,-0.04554302303493023
1772018071521660000,2.759659912109375,-0.158100311678648,-0.0614715367898345,-0.10784929361585527
1772018071541627000,2.779626953125,-0.046373628640174865,-0.1663911701619625,-0.14644377615451812
1772018071561593900,2.79959375,0.1484568695425987,-0.15349866310209034,-0.09823208189960568
1772018071581560800,2.819560791015625,0.2100701528906822,-0.12998247069716454,0.021276267991028726
1772018071601527800,2.83952783203125,0.02310673482120037,-0.017987492111325262,0.14338508270364253
1772018071621494800,2.859494873046875,-0.14337152910232542,0.01826514000892639,0.12342344097513705
1772018071641461800,2.879461669921875,-0.11844576216042041,0.04179886807054281,0.10053184674195945
1772018071661429000,2.899428955078125,-0.1940232734531164,-0.029288346065580843,0.04963288616444915
1772018071681395700,2.919395751953125,-0.13262450963854788,-0.07967179486900568,-0.1380589192448184
1772018071701363000,2.939363037109375,0.16057283927202223,-0.08050795343220234,-0.1301828521074727
1772018071721330000,2.959329833984375,0.19429624517560004,-0.09232669378072023,-0.12537176203131675
1772018071741297000,2.979296875,0.09540566283464431,-0.08197188850492239,-0.14663232099656015
1772018071761263900,2.999263916015625,0.032660160586237906,-0.007073007126152515,-0.06806015793252736
1772018071781230800,3.01923095703125,-0.04018120374083519,0.025321196000277994,-0.018238909589126703
1772018071801197800,3.03919775390625,-0.3241623960167169,-0.026246494151651856,-0.052257243318669495
1772018071821164800,3.059164794921875,-0.3865817350506782,0.021143618054687976,-0.02084909208752215
1772018071841132000,3.079132080078125,-0.06924713922739029,0.07782178308814763,0.019907317725382744
1772018071861098800,3.0990986328125,0.26062311304211616,0.02224836442619562,0.09765990803483873
1772018071881065700,3.119065673828125,0.2259258936703205,-0.018970657929778097,-0.03661773910559714
1772018071901033000,3.139032958984375,0.24912556747198103,-0.057465223757922644,-0.11473857820555568
1772018071920999700,3.158999755859375,0.3694721948176622,-0.03134644763916731,-0.03319039500541985
1772018071940967000,3.178966796875,0.18899463163614272,-0.003368307389318943,-0.005058817759528756
1772018071960934000,3.198933837890625,-0.11640227363407611,0.017612229058146477,-0.06546678043846041
1772018071980900900,3.21890087890625,-0.2797486692726612,-0.0032236382216215133,-0.000026157354563474654
1772018072000867800,3.238867919921875,-0.325544205763936,-0.014904723665118217,-0.011329897385649382
1772018072020834800,3.258834716796875,-0.14504910692572592,-0.02532616443634033,0.05403795272298157
1772018072040801800,3.2788017578125,-0.0021866963893175124,-0.050881461453437804,0.04719970420077443
1772018072060768800,3.298768798828125,0.0013759645283222197,-0.21708412330597637,-0.0030103242645040155
1772018072080734700,3.318734619140625,-0.13726561344265936,-0.2575254392877221,-0.1368952822929248
1772018072100702700,3.33870263671875,-0.04536942003369331,-0.20536650524437428,-0.10864683720171452
1772018072120670000,3.358669921875,-0.160086517059803,-0.11749795991629361,-0.057269445457495745
1772018072140635600,3.3786357421875,-0.2656955940008163,-0.01978928083628416,-0.09533789482805877
1772018072160603000,3.398602783203125,-0.10068331097662449,0.10609656819701194,-0.0354732087129727
1772018072180569900,3.41856982421875,0.17826982400417327,0.03590688742250204,-0.029603366831503806
1772018072200536800,3.438536865234375,0.3252729876071214,-0.06918342634141444,-0.04583996015489101
1772018072220503800,3.45850390625,0.3663186992228031,-0.08907675207406282,-0.00539787698816508
1772018072240470800,3.478470703125,0.2628460497885942,-0.11182196010649204,0.07406250361986458
1772018072260437800,3.498437744140625,-0.21851298706531525,-0.10869827512800694,0.1448963275168091
1772018072280404700,3.51840478515625,-0.3789426184743643,0.03577390869259834,0.14068334946427494
1772018072300372000,3.5383720703125,-0.20574995160400866,0.009522446104884147,0.13075835044048725
1772018072320338700,3.558338623046875,-0.10687164422273636,0.0046121699705719945,0.15072284171320496
1772018072340306000,3.578305908203125,0.005339607462286949,-0.0004506663769483566,0.13053268845845012
1772018072360273000,3.59827294921875,0.021889760246872902,-0.05634995599240064,0.0023539427150040862
1772018072380240000,3.618239990234375,0.10932488259375095,-0.04757452886253595,-0.05971139524951577
1772018072400206800,3.638206787109375,0.1583487334817648,-0.1436386556059122,-0.07043163630422204
1772018072420173800,3.658173828125,0.06564940699636936,-0.178106157875061,-0.11190887120496482
1772018072440141000,3.67814111328125,0.017252748095989225,-0.12083937929868697,-0.18652674368526787
1772018072460107800,3.698107666015625,-0.07013502797782421,-0.08908493538051843,-0.16047222844175993
1772018072480075000,3.718074951171875,0.014289222115278243,-0.005412964959442615,-0.08146244114544242
1772018072500042000,3.7380419921875,0.20121581530570984,0.032467268362641334,-0.010947473939321934
1772018072520008700,3.7580087890625,0.10841069035828113,0.010236439593136309,0.06295483415015042
1772018072539976200,3.77797607421875,-0.020670447584986686,0.12131050394177437,0.09882478709574788
1772018072559943200,3.797943115234375,0.16801380292773246,0.13160013502687215,0.06685699268784373
1772018072579910100,3.81791015625,0.22215514295995234,0.036629064217209815,0.0273478429896757
1772018072599877000,3.837877197265625,0.16593699665367603,0.030055823306739327,0.02926814352776855
1772018072619844000,3.857843994140625,0.02835340330302715,0.06002338380813598,0.05242489150315523
1772018072639811000,3.87781103515625,-0.09398293655514717,0.01365063195079565,-0.0053559375425800675
1772018072659778000,3.897778076171875,-0.09835399124622345,-0.16515286053866146,-0.05828969188332557
1772018072679745300,3.917745361328125,0.019787235009670258,-0.2398535889968276,-0.1288061934594065
1772018072699712000,3.9377119140625,-0.06140694712102413,-0.24741174929141996,-0.133146487686038
1772018072719679200,3.95767919921875,-0.0787450354129076,-0.18872487478405237,-0.18869710999429226
1772018072739646200,3.977646240234375,0.07654255693256855,-0.12127046419233083,-0.10023805142715572
1772018072759613000,3.997613037109375,0.05882686749994755,-0.07133768176585435,-0.10993351601138711
1772018072779580200,4.017580078125,0.08981003478467464,0.03520224628448486,-0.04971906661055982
1772018072799547100,4.037547119140625,0.1611632063806057,0.0980795582190156,0.010758600303716956
1772018072819514000,4.05751416015625,0.13165478782355786,0.04336684803962707,-0.017627426627278328
1772018072839481000,4.077481201171875,0.07525836234092712,-0.002029460000991821,-0.06727196669690311
1772018072859448300,4.0974482421875,0.11697218247652053,0.006346738678216934,0.0186412433123216
1772018072879415000,4.1174150390625,-0.01070610293149948,-0.04886895258724689,0.08640968828927725
1772018072899382000,4.137382080078125,-0.2531435709416866,-0.07289017190486193,0.03217193867787719
1772018072919349200,4.157349365234375,-0.1777197889059782,-0.022117431522905826,0.003770020058006048
1772018072939315200,4.177315185546875,-0.03334755832850933,-0.10054273346215487,0.0003942600145936012
1772018072959282200,4.1972822265625,0.06879413476288318,-0.06864391263723373,-0.05758322411440313
1772018072979249000,4.217248779296875,0.17061843246817587,-0.062435413385927674,-0.010415412889234721
1772018072999216000,4.237216064453125,0.14283786061704157,-0.08190876014083623,-0.05963014670684933
1772018073019183000,4.25718310546875,0.10370353558063507,-0.08482903150171041,0.008229520217515527
1772018073039150000,4.277150146484375,-0.23631577025949954,-0.14410188920348882,-0.11851784101594239
1772018073059117000,4.297116943359375,-0.2501204237282276,-0.07278291213810444,-0.05791746103744953
1772018073079084000,4.317083984375,-0.11013269184529781,-0.019697510899603365,0.03133855659365654
1772018073099051000,4.337051025390625,-0.017453239104151724,-0.05481324794441461,0.004262954674102365
1772018073119018000,4.35701806640625,0.009416647642850875,-0.0470320925489068,-0.001682071335427463
1772018073138985200,4.376985107421875,-0.022454992914199827,-0.10227554860413074,-0.036530718409270045
1772018073158952000,4.396951904296875,0.042647886115312575,-0.11463204909116029,-0.04834536710456013
1772018073178919200,4.416919189453125,-0.08839023111462592,-0.1329553490281105,-0.015089907506294548
1772018073198886100,4.43688623046875,-0.12348960154652595,-0.05510726245492696,-0.014871223254315554
1772018073218853000,4.45685302734375,-0.04610007239580154,0.004501403072476387,-0.026402269235253333
1772018073238820000,4.476820068359375,0.052713937577605244,-0.04862111530601978,-0.014593575356714426
1772018073258787000,4.496787109375,-0.021469489008188247,0.069322250290215,0.017673384660854934
1772018073278754000,4.516754150390625,0.019715338817238807,0.11003156955838203,0.043364948343485595
1772018073298721000,4.536720947265625,0.18521511309742927,-0.03555295941829681,-0.03750573745388537
1772018073318688300,4.556688232421875,0.021793314135074616,-0.07515753231495619,-0.08084902195483445
1772018073338655000,4.576655029296875,-0.15813304490447044,-0.05739625017493963,-0.05754818933364004
1772018073358622000,4.5966220703125,-0.1330243226110935,-0.08350684298723936,0.023345950404554606
1772018073378589200,4.616589111328125,-0.13630699754357337,-0.1302387835457921,-0.037615773699618875
1772018073398556000,4.636555908203125,-0.14782441685795783,-0.14703297421932218,-0.06953370108380913
1772018073418523100,4.656523193359375,0.0957943698912859,-0.1343298522517085,-0.05965451396312564
1772018073438490000,4.676489990234375,0.12331190689206123,-0.13473375687748193,-0.044903117696195836
1772018073458457000,4.69645703125,-0.035711949372291565,-0.03512684296071529,-0.07482687558848411
1772018073478424000,4.716424072265625,0.03591711655557155,0.033220132556557654,0.021665194243378937
1772018073498391000,4.73639111328125,0.03255553116798401,0.015205460177361964,0.09000325580183416
1772018073518357000,4.75635693359375,-0.12511807953119278,-0.0005751695394515991,0.04019450161382556
1772018073538324000,4.776323974609375,-0.18560089754462242,0.044811201629042625,0.018273031054437158
1772018073558291000,4.796291015625,-0.0048334115058183665,0.05057546424418687,0.08620758984591811
1772018073578258000,4.8162578125,0.16504852338135242,0.030013153208792206,0.045954033254925156
1772018073598225000,4.836224853515625,0.0915372969686985,-0.000552080924808979,-0.008485997462924569
1772018073618192000,4.85619189453125,0.04954699797928333,-0.05348579873293638,0.011247516331821679
1772018073638159000,4.8761591796875,-0.08512801444828509,-0.03990764749646187,-0.01488901463933289
1772018073658125800,4.896125732421875,-0.19867372960746288,-0.0476093079149723,0.00008532192958518863
1772018073678093000,4.916093017578125,-0.08421089960336685,-0.035979368136823175,0.0330047545065172
1772018073698060000,4.93606005859375,-0.0995890859991312,-0.06233282979428768,0.01955490582482889
1772018073718026800,4.95602685546875,-0.014395020577311514,-0.05185848979204893,-0.01470079859085381
1772018073737994000,4.975993896484375,-0.01079495025873184,-0.025143501345813273,0.048491607174836096
1772018073757961000,4.9959609375,0.07675999907553195,0.039433892504870886,-0.014641286955960094
1772018073777928000,5.015927978515625,0.2645680512756109,0.012129413732886314,-0.04717040504105389
1772018073797895000,5.03589501953125,0.15729484051465986,0.027373744615912434,-0.04277443510442972
1772018073817862100,5.055862060546875,0.015467033722996711,0.02358428920507431,-0.05055005580829456
1772018073837828900,5.075828857421875,0.036167291924357414,0.03156359752118587,-0.03366964815603569
1772018073857795800,5.0957958984375,0.11160744057297706,-0.05453852265626192,-0.053023752445448186
1772018073877763000,5.11576318359375,0.033138884013891215,-0.17890081538408995,-0.10215997766675428
1772018073897729800,5.135729736328125,-0.06518705018162727,-0.17434388273209334,-0.05484377094684168
1772018073917697000,5.155697021484375,0.015628946286439894,-0.1703741023182869,0.0062362092421390115
1772018073937664000,5.1756640625,0.011106500425934791,-0.2365235677912831,-0.007004526733513921
1772018073957631000,5.195630859375,-0.101833065533638,-0.1244309740498662,0.0754678221068345
1772018073977597000,5.215596923828125,-0.3808785549730062,-0.05519377169460058,-0.035831630229204894
1772018073997564200,5.235564208984375,-0.3003179945707321,-0.012436872246861456,-0.10770117211574688
1772018074017531000,5.25553076171875,-0.22183716305196283,0.03144932349175215,-0.07645531704053282
1772018074037498000,5.275498046875,-0.06913081937134266,0.09600041385740041,-0.07719130316488444
1772018074057465000,5.295465087890625,0.33895021530389785,0.11743044763803481,-0.021096308314241467
1772018074077430000,5.315429931640625,0.4292746293514967,0.034792204178869725,-0.03395352486502379
1772018074097396700,5.335396728515625,0.26998656919300557,-0.005327917024493217,-0.11100096257980913
1772018074117364000,5.355364013671875,0.11879705981612204,-0.005598842920362949,-0.06804233001489192
1772018074137331000,5.3753310546875,0.009205050718784332,-0.010944880123436451,-0.021593371116183698
1772018074157298200,5.395298095703125,-0.04441431126594543,-0.03607464520484209,0.05604008632563054
1772018074177265000,5.415264892578125,-0.14075111747086047,-0.10931991415768862,0.009292948197945952
1772018074197232000,5.435232177734375,-0.18216157074570655,-0.11146569401472806,0.0671463310232386
1772018074217199000,5.45519921875,-0.12706219933629034,-0.02523380997776985,0.11339509117472917
1772018074237165800,5.475165771484375,-0.13327215989232064,-0.0769581519961357,0.03074530340824276
1772018074257133000,5.495133056640625,-0.1413642809331417,-0.12676789256483315,-0.0674467752745375
1772018074277100000,5.51510009765625,-0.07949146986603736,-0.03275280730575323,-0.11539320618938655
1772018074297067000,5.53506689453125,0.14375263737440108,-0.02709726576209068,-0.06438161555025726
1772018074317034000,5.555033935546875,0.14904022238850592,-0.03666647361814976,-0.045376142035424706
1772018074337001000,5.5750009765625,-0.09927285965681075,0.05202361722588539,-0.11853172341082245
1772018074356968000,5.594968017578125,-0.03971475527286529,0.055123044545948505,-0.12002663814369588
1772018074376935000,5.614934814453125,0.010026888495683669,0.03835691092312336,-0.02997947013489902
1772018074396902100,5.634902099609375,0.09558861818611622,0.04820581250339746,-0.022808847853168845
1772018074416868900,5.654868896484375,0.03405307624936103,-0.036648061178624625,-0.11569478295184671
1772018074436835000,5.6748349609375,0.060139703664183614,-0.10164572626799344,-0.0798907348493114
1772018074456801800,5.6948017578125,-0.0044458734929561615,-0.1367547413110733,-0.03203176302220672
1772018074476769000,5.71476904296875,-0.09511690902113915,-0.10349427674412727,-0.07162179593686013
1772018074496736000,5.734736083984375,-0.13782032471597194,-0.12628157035261392,-0.049179845167323946
1772018074516703000,5.754702880859375,-0.04665829080045223,-0.05000497087985277,-0.026076032955572006
1772018074536670500,5.77467041015625,0.10573533366918564,0.0836746007695794,0.0498438255013898
1772018074556637400,5.794637451171875,0.13884674515426157,0.07476444134414195,0.07851864277850835
1772018074576604400,5.8146044921875,0.09888239903450012,0.09226473446041344,0.047369873135909436
1772018074596571400,5.8345712890625,0.14321429271399974,0.0843307265907526,0.017932437455840406
1772018074616538600,5.85453857421875,0.20503274324536322,0.019162673370540142,0.013342406251840293
1772018074636505300,5.87450537109375,0.207343942797184,0.02296732635051012,0.04161565699074417
1772018074656472300,5.894472412109375,-0.06436521240472794,-0.011640753433108329,-0.04855261664707213
1772018074676439600,5.914439453125,-0.21402795060575008,-0.0028337621212005614,-0.057546874159388244
1772018074696406300,5.93440625,-0.10360124424993991,0.030813655936717987,0.08740896499231457
1772018074716373500,5.95437353515625,-0.03929273046851158,-0.003692424777150154,0.07660517384000122
1772018074736340500,5.974340576171875,-0.032280221357941626,-0.09804536368846893,-0.00825390574010089
1772018074756307500,5.994307373046875,-0.016585808619856833,-0.09808131178468465,-0.03177630869010463
1772018074776274400,6.0142744140625,0.02352583701610565,-0.06783522660285234,0.04987865935275331
1772018074796240600,6.03424072265625,-0.013583704194426536,0.028555355615913866,0.12262863733563571
1772018074816207400,6.054207275390625,-0.2717734526097774,0.034360242502391336,-0.04200326806884259
1772018074836174600,6.074174560546875,-0.21007307550013063,0.0053422378107905386,-0.02009288515904918
1772018074856141600,6.0941416015625,-0.04668927046060562,0.004106850796937942,-0.10445070068612694
1772018074876108300,6.1141083984375,0.15863690277338027,-0.014734335534274577,-0.054937805905845016
1772018074896075500,6.134075439453125,0.24654957950413225,-0.052718321491777895,-0.09576198372533544
1772018074916042500,6.15404248046875,0.1303758539289236,-0.07550210796892642,-0.12337803093083202
1772018074936009500,6.174009521484375,-0.044699557948112485,-0.04192833966910839,-0.12135425175195559
1772018074955976400,6.1939765625,-0.09836042098700999,-0.04462561592906713,-0.1012714861281216
1772018074975943700,6.213943603515625,-0.14825520949065685,-0.050880876931548115,-0.05099803703781217
1772018074995910400,6.233910400390625,-0.08518062141835689,-0.04621873033940792,-0.028985253199469298
1772018075015877400,6.25387744140625,0.07561141356229782,-0.10346943456381559,-0.039431024694349615
1772018075035844600,6.2738447265625,-0.009559270983934403,-0.12676730804294348,-0.04106885502925142
1772018075055811300,6.293811279296875,-0.059631754142045974,-0.06440291406661272,-0.041884080402273684
1772018075075778600,6.313778564453125,0.13696867632269857,-0.04122691340148449,-0.022781594520062207
1772018075095745500,6.33374560546875,0.13836334555149077,-0.08258008353114128,-0.05013402235331014
1772018075115712500,6.35371240234375,-0.01398001003563404,-0.025991642607748507,-0.10773660875530913
1772018075135678500,6.373678466796875,0.01040156702697277,-0.003394318613409996,-0.06800519460858777
1772018075155645400,6.3936455078125,0.051342649224400516,-0.004897708913683891,-0.03769972565602511
1772018075175612400,6.4136123046875,0.023913959550857542,-0.025980536691844462,-0.07058458010992034
1772018075195579600,6.43357958984375,-0.09949965415000915,-0.06991174061596393,-0.14787450307738034
1772018075215546400,6.45354638671875,0.04159107053875923,0.025199030925333498,-0.0410629915440455
1772018075235513300,6.473513427734375,0.08886018671393393,0.13678952036350964,0.15209500684924424
1772018075255480600,6.49348046875,-0.10132979218661785,0.05894757127016782,0.09542803906323388
1772018075275447300,6.513447265625,-0.22809271631538866,-0.05832943937182426,-0.011095851167757064
1772018075295414500,6.53341455078125,-0.13310732471942902,-0.06941226666122674,0.048663493143022055
1772018075315381500,6.553381591796875,0.004921089789271354,-0.042865328258275985,0.0601757065593265
1772018075335348500,6.573348388671875,-0.019915245303511617,-0.10713029515892267,0.024619240009691564
1772018075355315500,6.5933154296875,-0.03667231883704662,-0.1296703360080719,-0.0675960475521162
1772018075375282400,6.613282470703125,-0.01151391218304634,-0.15384674588739872,-0.06733412694660947
1772018075395249400,6.63324951171875,-0.10004442855119705,-0.11616408096402883,-0.13589279071949423
1772018075415216400,6.65321630859375,-0.019127309796214104,-0.09575374561995267,-0.12297176995119079
1772018075435182600,6.6731826171875,0.053256958413124084,-0.14134645301550625,-0.11542436851263045
1772018075455149300,6.6931494140625,0.02393675590455532,-0.12930208721756933,-0.17767700921017676
1772018075475116500,6.713116455078125,0.04422667973935604,-0.08565408414900302,-0.19421556288851424
1772018075495083500,6.73308349609375,0.04640753090977669,-0.06016162323504686,-0.08110727103222161
1772018075515050500,6.753050537109375,-0.0249701906055212,-0.05225362658947706,-0.07449185321414843
1772018075535017500,6.773017578125,-0.1308294429153204,-0.10243044690489768,-0.03255081846024841
1772018075554983400,6.7929833984375,-0.15261691183149814,0.027809505684673785,0.04560657152412459
1772018075574950400,6.812950439453125,0.02011398274600506,0.057848962378501886,0.09009062355803325
1772018075594917600,6.832917724609375,0.16783493922948836,0.04225596418827772,-0.0017603424697183072
1772018075614884400,6.85288427734375,0.16853168932199478,0.004592588487267494,-0.05424622517880052
1772018075634851300,6.872851318359375,0.08302665825486183,0.019166472762823104,-0.05400938421562314
1772018075654818600,6.892818603515625,-0.004205050474405289,-0.009044599460065365,-0.08118071986092254
1772018075674785300,6.912785400390625,0.10637070896327495,-0.04400982211828232,-0.10454270808482542
1772018075694752500,6.93275244140625,0.12200959212183951,-0.06530863073468209,0.013584891504514961
1772018075714718500,6.952718505859375,-0.07629413512945175,-0.025570786847174166,0.03667029127674177
1772018075734685400,6.972685546875,-0.11627777047157287,-0.035866847673058505,0.04121058332119137
1772018075754652400,6.99265234375,-0.07238660629689693,-0.04912088152170181,0.07249337287331
1772018075774619600,7.01261962890625,-0.07110416527092456,0.018582243134081362,0.06454774763109163
1772018075794586400,7.03258642578125,0.030307459980249404,0.04731207853406667,0.06616722032539546
1772018075814553600,7.0525537109375,0.16369710877239704,0.018930325919389722,0.026342118279542772
1772018075834520600,7.0725205078125,0.07844751377105712,-0.04879559509009122,-0.07608617320088669
1772018075854487300,7.0924873046875,0.0732248106867075,-0.05281710569113492,-0.1186198035530746
1772018075874454500,7.11245458984375,0.19779460868537424,-0.07455167537629603,-0.05810839876597747
1772018075894421500,7.13242138671875,0.1325368313550949,-0.08627923031002283,-0.037411519831791515
1772018075914388500,7.152388427734375,-0.0677694678902626,-0.08896627743691206,-0.03424900068026036
1772018075934355500,7.17235546875,-0.20281798980534074,-0.05913724862337112,0.022582546550314872
1772018075954322700,7.19232275390625,-0.19886253017783165,-0.04457417800277471,0.08702961028590799
1772018075974289400,7.212289306640625,-0.13933891258537767,-0.07790683102309703,0.05484146939190104
1772018075994255600,7.232255615234375,-0.03353577437698841,-0.044082302832603455,0.11342784266686066
1772018076014222300,7.252222412109375,0.03958323784768581,-0.008273907348513602,0.10305541040282695
1772018076034189600,7.272189453125,0.08786708402335643,-0.03744534903615713,0.09946198902074246
1772018076054156500,7.292156494140625,-0.027942484414577484,-0.04874181907624006,0.002170220178551972
1772018076074123300,7.312123291015625,-0.061033437633514404,-0.020953648440539836,0.025343809690885243
1772018076094090500,7.332090576171875,-0.07796703677773476,-0.02930646624416113,0.02948624325785786
1772018076114057500,7.352057373046875,-0.07271160046756267,0.024801263779401776,0.07999571132743731
1772018076134024400,7.3720244140625,-0.03853285201191902,0.055955111455917354,0.06480237997928634
1772018076153991400,7.391991455078125,0.06474456711113452,-0.03796878838837146,0.007238920011278242
1772018076173958700,7.411958740234375,0.14063947378993033,-0.06739800422936677,-0.022580866049882024
1772018076193925400,7.43192529296875,0.054608957543969154,-0.01899403880536556,0.02110617212112993
1772018076213892400,7.451892333984375,-0.04298515524566173,0.021323066274821757,0.04316319695999846
1772018076233859600,7.471859619140625,-0.0351829570621252,-0.05237783749103546,-0.02403924816465005
1772018076253825500,7.491825439453125,-0.09500175820887088,-0.03116056967824697,-0.036280579573102295
1772018076273792500,7.51179248046875,-0.010810147827863693,0.08962328004091978,0.02353588348608464
1772018076293759500,7.531759521484375,0.05178805490434169,0.062169455926120276,0.038153643435984846
1772018076313726500,7.5517265625,-0.0583715249478817,0.0027101357415318487,-0.02156051002619788
1772018076333693400,7.571693359375,-0.08374912731051444,-0.054876376308500764,-0.050855157968401905
1772018076353660700,7.59166064453125,0.01119885488450527,-0.10565729999691248,-0.07551911390265449
1772018076373627400,7.61162744140625,0.03041442748606205,-0.12817191414386034,-0.06946777797443791
1772018076393594600,7.6315947265625,-0.10208207185864449,-0.08409984044432639,-0.07022805828982964
1772018076413561600,7.6515615234375,-0.07056757417619228,-0.00918722280114889,-0.07208636297499761
1772018076433528300,7.6715283203125,-0.011487024176120757,-0.0429781409829855,-0.015818660172261297
1772018076453495600,7.69149560546875,0.006413374173641204,-0.018944938966631887,-0.055327608941029754
1772018076473462500,7.711462646484375,-0.05509001905918121,0.03370236311554908,-0.02824755004206672
1772018076493429500,7.731429443359375,-0.0016886837393045423,0.021361060197651386,-0.03889052460948005
1772018076513395500,7.7513955078125,0.05024140998423099,-0.05983575228154659,-0.0670866184589453
1772018076533362400,7.771362548828125,0.08007248462438583,-0.046781917180120945,-0.0965127107610926
1772018076553330200,7.791330078125,0.10011807830929756,-0.02972819878757,-0.09403702309625223
1772018076573297200,7.811297119140625,-0.08790916959941386,-0.01224894845932722,-0.08107904958473518
1772018076593264000,7.83126416015625,-0.10868132399320601,0.05049567700624465,-0.022464363530743867
1772018076613231000,7.851231201171875,-0.06516659191548824,0.07473579977154732,0.07801593568706884
1772018076633198300,7.8711982421875,-0.09008008389770984,0.029450550889968872,-0.021279099268931893
1772018076653165000,7.8911650390625,-0.24090426709353924,-0.029748657053709028,-0.05315903273029252
1772018076673132300,7.91113232421875,-0.16564356666505337,-0.004482698372006416,-0.016495828781463204
1772018076693099300,7.931099365234375,0.0918856720149517,-0.09132949943691492,-0.009833101222943515
1772018076713066000,7.95106591796875,0.07418225754201412,-0.19349311209917067,-0.12682212523641065
1772018076733033200,7.971033203125,0.019604279658198356,-0.10619067622125149,-0.20072448812481014
1772018076752999400,7.99099951171875,0.09069792353510855,-0.05592354727387428,-0.15357390202907845
1772018076772966100,8.010966064453125,0.16028583902418614,-0.014104805459082126,-0.042966194816865026
1772018076792933000,8.03093310546875,0.08246610176265239,0.017362053689360616,-0.06168265878986567
1772018076812900400,8.050900390625,0.035173020190000535,-0.020253098955750466,-0.09593810747722163
1772018076832867000,8.0708671875,0.06222644681036472,-0.054721185746788976,0.0023974347968585786
1772018076852834300,8.090834228515625,0.025453590208292007,-0.028189737173914906,0.04212736937254667
1772018076872801300,8.11080126953125,-0.1150304007589817,0.025416180807352064,0.04719177662264555
1772018076892768300,8.130768310546875,-0.18877075975239277,0.039191315920650956,0.07618607164509594
1772018076912735200,8.1507353515625,-0.1471498785972595,0.05164660060703754,0.09968332188753411
1772018076932702200,8.1707021484375,-0.01025602107644081,0.05921645133942365,0.06466728235753252
1772018076952669200,8.190669189453125,0.06875906344950199,-0.040624855855107306,0.015242650382593273
1772018076972636200,8.21063623046875,0.0035147301226854323,-0.05844575922787189,-0.05907136204661801
1772018076992602000,8.23060205078125,0.0554828177690506,-0.02331540913581848,0.002058941823802888
1772018077012569000,8.250569091796875,0.0029997663378715515,-0.015111644414067267,0.006730641695577651
1772018077032536300,8.270536376953125,-0.06116027888357639,0.038673721787333484,0.005143792629241943
1772018077052503000,8.2905029296875,0.04579086031615734,0.021984745053946972,0.002386365413572639
1772018077072470300,8.31047021484375,0.03073766809105873,-0.06245324130356311,-0.03727189216539264
1772018077092437200,8.330437255859374,-0.05171674323379993,-0.04625906234979629,-0.02994991524685174
1772018077112404200,8.350404296875,-0.05317512534856796,-0.015856325301527977,0.012219265707116574
1772018077132371200,8.37037109375,0.030394553741812703,-0.061892392550408834,-0.026749566569272427
1772018077152338200,8.390338134765624,0.08426350657343865,-0.07256108608096838,-0.019929127698391676
1772018077172305200,8.41030517578125,-0.02661854233443737,-0.044697219860553736,0.0008682159355841577
1772018077192272100,8.430272216796874,-0.10959376266300677,-0.0919707199499011,0.004722936868667602
1772018077212238300,8.45023828125,-0.13246142803132532,-0.08122633083462714,-0.017939305588044224
1772018077232205000,8.470205078125,-0.005162497329711913,-0.056175183947384355,-0.0025010595681145787
1772018077252172300,8.49017236328125,0.005724222865700721,-0.018132453539967536,0.021028595106583087
1772018077272139300,8.51013916015625,0.016352584385871886,-0.02566255678385496,0.01888906232723966
1772018077292106200,8.530106201171876,0.08164367946386336,-0.06580196720957755,0.011771759401634335
1772018077312073200,8.5500732421875,0.01742693561911583,-0.0732370856463909,0.035102914095856246
1772018077332040200,8.570040283203125,-0.08548165019154548,-0.07983429195433854,-0.01965493213320151
1772018077352007200,8.590007080078125,-0.21574293783009052,-0.09780074127763509,0.00015199395762756466
1772018077371974100,8.60997412109375,-0.1962888802975416,-0.09339958370923995,-0.014638400879129767
1772018077391941400,8.62994140625,-0.11453063454329966,-0.07410919230580329,-0.04926299340613186
1772018077411908000,8.649908203125,0.04022679644823074,-0.05850158106833696,-0.08499602209907024
1772018077431874300,8.669874267578125,0.11693068142235279,-0.09700462246388196,-0.06766270131384954
1772018077451841000,8.689841064453125,0.1029395654708147,-0.09601239655613898,-0.1257778586141765
1772018077471808300,8.709808349609375,0.08225450483858585,-0.09938011942356824,-0.1584005915331654
1772018077491775200,8.729775146484375,0.11322773525118827,-0.055225628137588495,-0.09455903767636045
1772018077511742200,8.7497421875,-0.023845570489764212,0.01826484774798155,-0.05340787465851753
1772018077531709200,8.769709228515625,-0.0724053109973669,0.03308160086870193,-0.019129556552227586
1772018077551676000,8.789676025390625,-0.02953822917342186,0.03995674733519554,0.02176945833545178
1772018077571643000,8.809642822265625,-0.02882277438044548,0.02109977891296148,-0.016027571948897094
1772018077591609900,8.82960986328125,-0.016768763971328735,0.015483108074963092,0.005114493469521403
1772018077611576800,8.849576904296875,-0.016775193712115288,0.05661708249598741,0.028210250238981095
1772018077631543800,8.869543701171875,0.053667292779684066,0.015105799195170402,-0.05854326478559523
1772018077651509800,8.889509765625,0.13795301118493078,-0.04231149376779794,-0.0630836481615901
1772018077671476700,8.909476806640624,0.05872399164736271,-0.05197217929959297,-0.03959140288783237
1772018077691444000,8.92944384765625,-0.11691782194077968,-0.07199234628230333,-0.06300764204962178
1772018077711410700,8.94941064453125,-0.17985796997845171,-0.06048486384004354,-0.08984170856457203
1772018077731378000,8.9693779296875,-0.03518237254023552,-0.012189619487524032,-0.08130478463200852
1772018077751345000,8.989344970703126,0.07534019540548324,-0.005343991376459598,-0.06870331467427312
1772018077771311900,9.009311767578126,0.12440437830388545,-0.04346533997803926,-0.10607388144116849
1772018077791278800,9.02927880859375,0.05873334399759769,-0.09066723613590001,-0.13840360449664293
1772018077811245800,9.049245849609376,0.019247136783599853,-0.08261544710546731,-0.1027180682072416
1772018077831212800,9.069212890625,-0.030543022301793097,-0.09317600408643484,-0.08143924293294548
1772018077851179000,9.089178955078125,-0.003759644794464111,-0.06159457864761352,-0.05806141781909391
1772018077871146000,9.10914599609375,-0.05979892740249634,-0.01033317796587944,0.01663492672489956
1772018077891112700,9.12911279296875,-0.04511398396790027,0.044160921026766296,0.06896419410016387
1772018077911080000,9.149079833984375,0.07455927416086197,-0.014942425327003002,0.06337041094740853
1772018077931047000,9.169046875,0.012917933762073517,0.0001835398733615875,0.04639763057027012
1772018077951014000,9.189013916015625,0.03550736671090126,0.018549509908258915,0.058212863787449894
1772018077970980900,9.20898095703125,0.12880875074267387,-0.014948855067789554,0.031982169993128626
1772018077990947800,9.22894775390625,0.06556231323480606,-0.024169103355705737,-0.0031566921989433466
1772018078010914800,9.248914794921875,0.030835867768526076,-0.024922844332456586,-0.004828278672974556
1772018078030881800,9.2688818359375,-0.022041735938191413,-0.007972586314380168,0.011755374522414057
1772018078050847700,9.28884765625,-0.08787643637359142,-0.03909457754790783,-0.018605550944432614
1772018078070814700,9.308814697265625,-0.06785246999859809,-0.048478491964936254,-0.04557029463434591
1772018078090782000,9.328781982421875,0.0030389293044805524,-0.07475012055784463,-0.1088860345187597
1772018078110748700,9.348748779296875,0.12371464247405528,-0.040298108118772505,-0.03687825320530683
1772018078130716000,9.3687158203125,0.15908815367221832,-0.04344751206040382,-0.05795488870469853
1772018078150683000,9.388682861328125,0.1281838968425989,-0.08988310002088547,-0.09419049662491306
1772018078170649900,9.40864990234375,0.013167524608969687,-0.05215951856523752,-0.020966252193786204
1772018078190616800,9.428616943359375,-0.15572832185029983,-0.03247662071287632,0.017520422588847576
1772018078210583800,9.448583740234374,-0.14270049797296525,-0.04039601553529501,0.05243510236991569
1772018078230549800,9.4685498046875,-0.10768062251806258,-0.014616262112557888,0.04149014918124303
1772018078250517000,9.48851708984375,0.014893617749214171,-0.03693038525134325,0.060976483281888066
1772018078270483700,9.508483642578126,0.052342766177654265,-0.067531859742105,0.00619616949269548
1772018078290450700,9.52845068359375,0.02779869202971458,-0.05960954231023788,0.009564148088451475
1772018078310418000,9.54841796875,0.014744564667344093,-0.04523059608489275,0.004353756496403366
1772018078330384600,9.568384521484376,-0.00526245057284832,-0.07276274613291024,-0.050929666243027895
1772018078350352000,9.588351806640626,-0.01585048008263111,-0.11390344255566597,-0.07879612627932801
1772018078370318800,9.60831884765625,-0.12181728442013263,-0.07909370272010564,-0.07185417992062866
1772018078390285800,9.628285888671876,-0.01734451803267002,-0.025673662699759004,-0.02747873936034739
1772018078410251800,9.648251708984375,0.08991992489993572,-0.07884878804832697,-0.014881689849402755
1772018078430219000,9.668218994140625,0.037385435542464256,-0.0928179844290018,-0.04235173444664105
1772018078450185700,9.688185791015625,0.045130350580811496,-0.08214578376710414,-0.036350923129264266
1772018078470153700,9.70815380859375,0.04246609980762005,-0.08753624463379382,-0.013595942621491849
1772018078490121000,9.728120849609375,-0.002861234650015831,-0.04983925892412662,-0.0231025518364273
1772018078510087700,9.748087646484375,-0.07611351786553859,-0.018745032480359077,0.014586086170002817
1772018078530055000,9.768054931640625,-0.08470014442503451,0.009135784874856471,0.043056649579294025
1772018078550021600,9.788021728515625,-0.053581952583789824,0.018911913479864595,0.06450832893615588
1772018078569988600,9.807988525390625,-0.05181961908638477,-0.0059463411837816236,0.022768735038489103
1772018078589954600,9.82795458984375,0.08320902908444404,-0.06682546503841877,-0.06808264375897125
1772018078609921800,9.847921875,0.1968465141803026,-0.07355038937926292,0.025538510279078035
1772018078629888800,9.867888671875,0.06262976691424846,-0.04862988313436508,-0.05576685887482017
1772018078649855500,9.88785546875,-0.06751812347769737,-0.0006461889490485191,-0.06326347997421398
1772018078669822700,9.90782275390625,0.007466098096966743,0.023785364735126494,0.018386336969491095
1772018078689789700,9.927789794921875,0.10390578015446662,-0.03345511035621166,0.048595286745019256
1772018078709756700,9.947756591796875,0.038679567006230355,-0.10921440795660019,-0.022736677666101605
1772018078729723600,9.9677236328125,-0.028515315866470336,-0.06394201855659484,-0.027881328811869024
1772018078749691000,9.98769091796875,-0.012695230922102927,0.0020630700096487997,0.023334899287577718
1772018078769656600,10.007656494140624,-0.05113222134411335,0.010960662214457987,-0.05647431302443146
1772018078789623800,10.027623779296874,-0.060309215012192725,-0.06698562403619289,-0.04474577171001583
1772018078809590800,10.0475908203125,-0.07956102797091007,-0.0618482611477375,-0.06152582426033914
1772018078829557800,10.067557861328124,0.02243745725750923,-0.04242226066589355,-0.04010101464409381
1772018078849524700,10.087524658203124,0.08721008141934872,-0.04903437228202819,-0.047166386453062294
1772018078869491700,10.10749169921875,0.02003331872522831,-0.011333002658188342,-0.04408907963326201
1772018078889458700,10.127458740234376,0.016234510964155197,0.025981413474678992,-0.001808328063599765
1772018078909425700,10.14742578125,0.07610475003719329,0.049957916867733,-0.00635589009905234
1772018078929391600,10.1673916015625,0.10722001926898955,-0.020156652843952176,-0.027374858860764652
1772018078949358600,10.187358642578126,0.076135145175457,-0.03465805640518665,-0.07602841513166203
1772018078969325800,10.207325927734376,0.033169863674044606,-0.05889350299537181,-0.06127026033038273
1772018078989292500,10.22729248046875,0.02977028436362743,-0.056201195171475406,-0.05902908467431552
1772018079009259800,10.247259765625,-0.11958967149853705,-0.09475129057914018,-0.0610695501265116
1772018079029226800,10.267226806640625,-0.20234861872792242,-0.04554068494737148,-0.07683959451722912
1772018079049193700,10.28719384765625,-0.15886369726657867,-0.06986439434289932,-0.0012079692839644849
1772018079069160700,10.30716064453125,-0.1162023671478033,-0.04665332236438989,-0.01585413334444165
1772018079089127700,10.327127685546875,0.03534486962556839,-0.05446311933249235,-0.04408650408368557
1772018079109094700,10.3470947265625,0.08804653224349021,-0.02343815873265266,0.010519695247616619
1772018079129060900,10.367060791015625,0.08028057441711425,0.03798077108711004,0.0004386288792826235
1772018079149027800,10.38702783203125,0.12555997807979583,0.012083528764545918,-0.03821483557131141
1772018079168994600,10.40699462890625,0.08176642906069755,-0.001632277376949787,-0.013784907588642089
1772018079188961800,10.4269619140625,-0.029945640930533406,0.02462649173438549,0.0344701965497341
1772018079208928800,10.4469287109375,-0.11516484079360961,0.08305968374162911,0.06136553739840164
1772018079228895700,10.466895751953125,-0.06457680932879448,0.05597644650489091,0.060185278105270114
1772018079248862700,10.48686279296875,0.029085809230804442,0.02641542097777128,0.049914790112059564
1772018079268829700,10.50682958984375,0.09361410324275493,0.015639467680454253,-0.005849127887003124
1772018079288795600,10.526795654296874,0.019693711507320404,-0.04516775998175144,-0.02073201417964883
1772018079308763000,10.546762939453124,-0.005635375538468361,-0.044295068800449366,-0.052529283459391445
1772018079328729600,10.5667294921875,0.06845277397930621,-0.06472907728105783,-0.028668898992985484
1772018079348696800,10.58669677734375,-0.010648819786310196,-0.15670447340607643,-0.10502863757140002
1772018079368663800,10.606663818359374,-0.16111761367321015,-0.18271014453917742,-0.09111674260222352
1772018079388630500,10.626630615234374,0.0031897359520196913,-0.10769991174042225,-0.0908282810496632
1772018079408597800,10.64659765625,-0.003964227455854416,-0.06150017836242914,0.04239073301646858
1772018079428564700,10.666564697265626,0.003909866920113563,-0.032678865286707874,-0.03059484382057562
1772018079448530700,10.68653076171875,0.027048165923357008,-0.1001318145737052,0.03729488944848999
1772018079468497700,10.70649755859375,-0.04015782286524772,-0.07267360654473304,-0.0491532128887251
1772018079488465000,10.72646484375,-0.10708850184381008,-0.1022030678898096,-0.05058350142017007
1772018079508431600,10.746431640625,-0.07490414207577704,0.0183496034219861,-0.06114729153783992
1772018079528398800,10.76639892578125,-0.02869768669605255,0.019138707973062993,-0.013781345658376812
1772018079548365300,10.786365234375,-0.24098843824565408,0.0874982507109642,-0.044539636412356046
1772018079568332500,10.80633251953125,-0.17415888155400752,0.1283425945356488,0.21607481839926912
1772018079588299500,10.826299560546875,-0.18315116630494593,0.17465163350701332,0.22897008367180824
1772018079608265500,10.846265380859375,0.35644378641843794,-0.023202304150164128,-0.05202200979068875
1772018079628232400,10.866232421875,0.8185422424852847,-0.31673224601596595,-0.24049639867870135
1772018079648199700,10.88619970703125,0.5412427199304104,-0.3440869936704635,-0.28732518720785155
