time,seconds_elapsed,z,y,x
1772018031313188000,0.07118798828125,-0.02093874290585518,0.009853105060756207,-0.03885519132018089
1772018031333155000,0.091155029296875,-0.021617034450173378,0.01024921890348196,-0.035543959587812424
1772018031353123000,0.111123046875,-0.014853915199637413,0.006197841838002205,0.005385096184909344
1772018031373090300,0.13109033203125,-0.008097121492028236,-0.008763798512518406,0.05104433000087738
1772018031393058300,0.151058349609375,-0.010040953755378723,-0.01512218452990055,0.06134610250592232
1772018031413025000,0.17102490234375,-0.008756972849369049,-0.0157739520072937,0.02559782937169075
1772018031432992300,0.1909921875,-0.012363732792437077,-0.020332127809524536,-0.01778533309698105
1772018031452960300,0.210960205078125,-0.01002596877515316,-0.010167200118303299,-0.0068163033574819565
1772018031472927000,0.230927001953125,-0.013739295303821564,-0.01155345980077982,-0.0003219214268028736
1772018031492895000,0.25089501953125,-0.005455452017486095,-0.0024086125195026398,-0.011001727543771267
1772018031512862000,0.270862060546875,-0.011455523781478405,0.01769985258579254,-0.012675799429416656
1772018031532830000,0.290829833984375,-0.013444986194372177,-0.0008454229682683945,-0.00849582813680172
1772018031552797000,0.310796875,-0.013307448476552963,-0.019860923290252686,-0.000624460750259459
1772018031572765000,0.330764892578125,-0.011113900691270828,-0.011496380902826786,0.005609073210507631
1772018031592732000,0.35073193359375,-0.004530142992734909,0.013107678852975368,0.008102720603346825
1772018031612699100,0.37069921875,-0.005913862492889166,0.009800564497709274,0.009274513460695744
1772018031632667000,0.3906669921875,-0.010692925192415714,0.009933634661138058,-0.003339816350489855
1772018031652633900,0.4106337890625,-0.012310606427490711,0.0018274160102009773,-0.014203651808202267
1772018031672601900,0.430601806640625,-0.003401069436222315,0.0025494806468486786,0.0005143149755895138
1772018031692569000,0.450569091796875,-0.006328023970127106,-0.0007619746029376984,0.016596075147390366
1772018031712537000,0.470537109375,-0.008603368885815144,0.0012271376326680183,0.00891898199915886
1772018031732503800,0.49050390625,-0.0057136910036206245,-0.010677190497517586,-0.005660231225192547
1772018031752471800,0.510471923828125,-0.003667139448225498,-0.008252919651567936,-0.0013938406482338905
1772018031772439000,0.53043896484375,0.0008482092525810003,-0.015467331744730473,0.008937358856201172
1772018031792405800,0.55040576171875,0.004448341205716133,0.0006907759234309196,0.007639859337359667
1772018031812373800,0.570373779296875,0.002087358618155122,-0.0006783539429306984,0.004838752560317516
1772018031832341000,0.590341064453125,0.0028693126514554024,-0.0006721420213580132,0.005000009201467037
1772018031852309000,0.61030908203125,0.002377693075686693,-0.00101462472230196,0.013583909720182419
1772018031872275700,0.630275634765625,0.003270028391852975,-0.0025352858938276768,0.016530027613043785
1772018031892244000,0.650243896484375,0.004262463189661503,0.0127271031960845,0.017746299505233765
1772018031912211000,0.6702109375,0.002056159544736147,-0.0018287491984665394,0.0001151026226580143
1772018031932179000,0.690178955078125,0.009677162393927574,0.010029149241745472,-0.011697877198457718
1772018031952146200,0.710146240234375,0.00921421404927969,0.0025232993066310883,-0.00816373247653246
1772018031972114000,0.730114013671875,0.00643482431769371,-0.009174646809697151,0.00688699446618557
1772018031992081000,0.750080810546875,0.010334881953895092,-0.004632436670362949,0.02601381205022335
1772018032012048100,0.770048095703125,0.007444573566317558,0.01420685276389122,0.012937159277498722
1772018032032016100,0.79001611328125,0.0014680363237857819,0.00017004180699586868,-0.004834651947021484
1772018032051982800,0.80998291015625,0.0036503379233181477,-0.008459843695163727,-0.017509829252958298
1772018032071950800,0.829950927734375,0.00431452039629221,-0.02226611226797104,-0.012179912999272346
1772018032091918000,0.84991796875,0.01123502105474472,-0.01307803113013506,0.007064488250762224
1772018032111886000,0.869885986328125,0.006645625457167625,0.009423015639185905,0.03567895665764809
1772018032131852800,0.889852783203125,0.005083238705992699,0.011919990181922913,0.031064102426171303
1772018032151820800,0.90982080078125,0.0019742348231375217,0.002325688488781452,-0.012919469736516476
1772018032171788000,0.9297880859375,0.0031968813855201006,-0.0009762751869857311,-0.023971721529960632
1772018032191755000,0.949755126953125,0.004026189912110567,0.006934378296136856,0.004142737947404385
1772018032211722800,0.96972265625,0.003055447479709983,0.0016369977965950966,0.035222359001636505
1772018032231690000,0.98968994140625,0.002970206318423152,0.006548045203089714,0.03291765972971916
1772018032251658000,1.009657958984375,-0.0006063175387680531,-0.00473320297896862,-0.015669047832489014
1772018032271625000,1.029625,-0.003677013795822859,-0.009270867332816124,-0.05360644683241844
1772018032291593000,1.049593017578125,-0.0020752763375639915,-0.0018413704819977283,-0.02291577309370041
1772018032311560000,1.069559814453125,0.006587986834347248,-0.004612922202795744,0.02767336741089821
1772018032331528000,1.08952783203125,0.004984651226550341,0.0012267809361219406,0.03949020802974701
1772018032351495000,1.109494873046875,-0.0013171765021979809,0.0033798571676015854,0.010502366349101067
1772018032371463200,1.129463134765625,-0.009184233844280243,0.009336463175714016,-0.023675579577684402
1772018032391430000,1.149429931640625,-0.006387518253177404,0.013707946054637432,-0.02469649910926819
1772018032411396900,1.16939697265625,-0.0035906354896724224,0.0025514280423521996,0.0044351560063660145
1772018032431365000,1.189365234375,0.00709229800850153,0.0017786752432584763,0.023292863741517067
1772018032451331800,1.209331787109375,-0.0001674494706094265,0.004645831882953644,-0.0027149002999067307
1772018032471299800,1.2292998046875,0.003542776219546795,-0.00679430365562439,-0.02405361458659172
1772018032491267600,1.249267578125,0.007149052806198597,0.003459925763309002,-0.004015588201582432
1772018032511235800,1.26923583984375,0.005697169806808233,0.014955629594624043,0.011779756285250187
1772018032531202800,1.289202880859375,-0.0012696902267634869,0.003180200234055519,-0.002889336086809635
1772018032551170800,1.3091708984375,-0.0029914546757936478,-0.007059117779135704,-0.02248208038508892
1772018032571137800,1.3291376953125,0.0031742751598358154,-0.01910574734210968,-0.015908334404230118
1772018032591105800,1.349105712890625,0.003910956904292107,0.004787151701748371,0.0140792615711689
1772018032611072800,1.36907275390625,0.001477821497246623,0.004371263086795807,0.02679598517715931
1772018032631040800,1.389040771484375,0.005242752376943827,-0.004391249734908342,0.022438788786530495
1772018032651007700,1.4090078125,0.002819275949150324,-0.019555553793907166,0.014932668767869473
1772018032670974700,1.428974609375,0.010377910919487476,-0.026038404554128647,0.014071004465222359
1772018032690942700,1.448942626953125,0.007696077227592468,-0.005614086519926786,0.0034134327434003353
1772018032710910000,1.468909912109375,0.0006097643636167049,-0.013526351191103458,0.0018913070671260357
1772018032730877700,1.488877685546875,0.0026091523468494415,-0.015362141653895378,0.01742645353078842
1772018032750844700,1.5088447265625,-6.84056431055069e-7,-0.020763039588928223,0.024056661874055862
1772018032770812700,1.528812744140625,-0.001207075547426939,-0.006580022629350424,0.007468630559742451
1772018032790780000,1.54877978515625,0.005946677178144455,0.00000997353345155716,-0.021866489201784134
1772018032810747600,1.56874755859375,0.004324545618146658,-0.0044417669996619225,-0.008886242285370827
1772018032830714600,1.588714599609375,0.003923526033759117,0.0008428245782852173,0.008292080834507942
1772018032850682600,1.6086826171875,0.00755167193710804,0.00023874826729297638,0.012926774099469185
1772018032870649900,1.62864990234375,0.006008995231240988,0.0017386311665177345,-0.0006600038032047451
1772018032890617900,1.648617919921875,0.0027693533338606358,0.001592942513525486,-0.009677063673734665
1772018032910584600,1.66858447265625,-0.0011522960849106312,0.0023848973214626312,-0.017740588635206223
1772018032930551800,1.6885517578125,0.0026340121403336525,-0.0007973248139023781,-0.019765520468354225
1772018032950519800,1.708519775390625,0.0019658878445625305,0.0038027428090572357,-0.005461944732815027
1772018032970486500,1.728486572265625,-0.0010537081398069859,0.009075107984244823,0.010026728734374046
1772018032990454800,1.748454833984375,0.0063514672219753265,0.010445392690598965,0.006445442326366901
1772018033010421800,1.768421875,0.001816103933379054,0.004297219216823578,-0.014139993116259575
1772018033030389800,1.7883896484375,-0.005166003946214914,-0.00025237537920475006,-0.02727522887289524
1772018033050356700,1.808356689453125,-0.005078407470136881,-0.02387496456503868,-0.006932674441486597
1772018033070324700,1.82832470703125,-0.0014564194716513157,-0.011483336798846722,0.027639009058475494
1772018033090291700,1.848291748046875,-0.002064784988760948,-0.0037741330452263355,0.04080116003751755
1772018033110259700,1.868259765625,-0.004495813045650721,-0.003637229558080435,0.008726708590984344
1772018033130227000,1.88822705078125,-0.01249922625720501,0.001710585318505764,-0.008903155103325844
1772018033150194700,1.908194580078125,-0.011171379126608372,0.0027163252234458923,0.0060493070632219315
1772018033170161700,1.92816162109375,-0.005060381721705198,-0.005222524516284466,0.017573198303580284
1772018033190129000,1.94812890625,-0.008189043030142784,-0.008850197307765484,0.012378969229757786
1772018033210097000,1.968096923828125,-0.009759601205587387,-0.016787735745310783,-0.005455558653920889
1772018033230063600,1.988063720703125,-0.015978427603840828,-0.014704110100865364,-0.01417713612318039
1772018033250031600,2.008031494140625,-0.016221188008785248,0.0002832990139722824,0.00487937219440937
1772018033269998800,2.027998779296875,-0.013513377867639065,0.0013339277356863022,0.02306036837399006
1772018033289966800,2.047966796875,-0.014275707304477692,0.002068853937089443,0.005744635127484798
1772018033309933600,2.06793359375,-0.012757663615047932,-0.0007217014208436012,-0.031130822375416756
1772018033329901600,2.087901611328125,-0.014698320999741554,-0.0004627518355846405,-0.023984629660844803
1772018033349868800,2.107868896484375,-0.00705904234200716,-0.010273837484419346,0.019501062110066414
1772018033369836800,2.1278369140625,-0.0055091665126383305,-0.003351292572915554,0.04352357238531113
1772018033389803500,2.147803466796875,-0.010366272181272507,-0.009369906038045883,0.014514565467834473
1772018033409771800,2.167771728515625,-0.012565406039357185,-0.026081472635269165,-0.014703381806612015
1772018033429738800,2.18773876953125,-0.005110110156238079,-0.021156584843993187,-0.004431300796568394
1772018033449706800,2.207706787109375,-0.012695502489805222,-0.002098800614476204,0.032903414219617844
1772018033469673700,2.227673828125,-0.006634043995290995,0.00696729589253664,0.034538332372903824
1772018033489642200,2.247642333984375,-0.003534145187586546,0.008407981134951115,0.011559512466192245
1772018033509609200,2.267609130859375,-0.0032930453307926655,0.001482238993048668,-0.017798637971282005
1772018033529576200,2.287576171875,-0.006741284858435392,-0.010310154408216476,-0.024715932086110115
1772018033549544200,2.307544189453125,-0.0043503944762051105,-0.015170404687523842,0.004812527447938919
1772018033569511200,2.32751123046875,-0.0015068952925503254,0.0026628244668245316,0.025539113208651543
1772018033589479200,2.347479248046875,-0.00011968519538640976,0.007613113150000572,0.01802273839712143
1772018033609446400,2.3674462890625,-0.000183772761374712,0.017626848071813583,0.0011277827434241772
1772018033629414100,2.3874140625,-0.004284336697310209,0.02998712658882141,-0.01515305694192648
1772018033649381000,2.407381103515625,-0.009508553892374039,0.030114317312836647,-0.014411362819373608
1772018033669349000,2.42734912109375,-0.00028362032026052475,0.021393174305558205,0.00008622126188129187
1772018033689316400,2.44731640625,0.0038687484338879585,0.01136824395507574,0.005901631433516741
1772018033709284400,2.467284423828125,0.005766549147665501,0.007068296894431114,0.006221611984074116
1772018033729251000,2.4872509765625,0.005017849616706371,0.0086376266553998,0.008567586541175842
1772018033749219000,2.507218994140625,0.00398026080802083,0.007350967265665531,0.0028098314069211483
1772018033769186300,2.527186279296875,0.006919850129634142,0.007271811366081238,0.014616169966757298
1772018033789154300,2.547154296875,0.013802338391542435,0.000819728709757328,0.026247648522257805
1772018033809121000,2.56712109375,0.018560729920864105,-0.013410137966275215,0.022577274590730667
1772018033829089300,2.58708935546875,0.012539755553007126,-0.003451098222285509,-0.0009554746211506426
1772018033849056300,2.60705615234375,0.009438292123377323,0.011148425750434399,-0.02200789377093315
1772018033869024300,2.627024169921875,0.007197433616966009,0.0013869814574718475,-0.020195482298731804
1772018033888991200,2.6469912109375,0.004816653672605753,0.009291313588619232,0.0018504348117858171
1772018033908959200,2.666959228515625,0.012714661657810211,0.010166723281145096,0.020647818222641945
1772018033928926200,2.68692626953125,0.012282250449061394,-0.0037159989587962627,-0.009137237444519997
1772018033948893200,2.70689306640625,0.012128308415412903,0.0076496656984090805,-0.009712879545986652
1772018033968861200,2.726861083984375,0.012688223272562027,-0.007546394132077694,0.008402202278375626
1772018033988828200,2.746828125,0.014918268658220768,-0.012088626623153687,0.029909765347838402
1772018034008796200,2.766796142578125,0.01115644071251154,0.002540694549679756,0.015305263921618462
1772018034028763400,2.786763427734375,0.006080111488699913,-0.002458479255437851,-0.01488633081316948
1772018034048731100,2.806731201171875,0.002263503149151802,-0.003034512046724558,-0.013082707300782204
1772018034068698000,2.826697998046875,0.009509164839982986,-0.010107334703207016,0.008520322851836681
1772018034088666000,2.846666015625,0.014494603499770164,0.009737475775182247,0.03534181788563728
1772018034108633300,2.86663330078125,0.012247266247868538,0.024336159229278564,0.0241305660456419
1772018034128601000,2.88660107421875,-0.00029428349807858467,0.006866253912448883,-0.00010539358481764793
1772018034148568000,2.906568115234375,-0.005101267248392105,-0.01174409780651331,-0.004224237520247698
1772018034168536000,2.9265361328125,0.0020296014845371246,-0.012742159888148308,0.005765412002801895
1772018034188503300,2.94650341796875,0.006570877972990274,-0.004208516329526901,0.006195382215082645
1772018034208471300,2.96647119140625,0.003513835370540619,-0.005580842960625887,0.0022206141147762537
1772018034228438000,2.98643798828125,-0.0013701138086616993,-0.011672208085656166,0.005864351987838745
1772018034248406300,3.00640625,0.004259977489709854,-0.012490041553974152,0.003668971126899123
1772018034268373200,3.026373291015625,0.0007899974007159472,-0.010728567838668823,-0.004334488417953253
1772018034288341200,3.04634130859375,0.004302843939512968,-0.010795381851494312,-0.01669209450483322
1772018034308308200,3.06630810546875,0.00203094445168972,-0.007432173937559128,-0.006499908864498138
1772018034328276200,3.086276123046875,0.0024206952657550573,-0.015609445050358772,0.005371670238673687
1772018034348243200,3.1062431640625,-0.005154275335371494,0.003622964955866337,0.0017184726893901825
1772018034368211200,3.126211181640625,-0.00635882280766964,0.007210509851574898,-0.006873684003949165
1772018034388178200,3.14617822265625,-0.008761346340179443,-0.006276342086493969,-0.01166338287293911
1772018034408146200,3.166146240234375,-0.008871406316757202,-0.013877049088478088,-0.010654302313923836
1772018034428113200,3.186113037109375,-0.0033758808858692646,-0.010122394189238548,-0.013580591417849064
1772018034448081200,3.2060810546875,-0.0024747829884290695,-0.015926167368888855,-0.019147654995322227
1772018034468048100,3.226048095703125,-0.0009671011939644814,-0.030361318960785866,-0.013911079615354538
1772018034488016100,3.24601611328125,-0.004527346231043339,-0.0011538639664649963,-0.002817954868078232
1772018034507982800,3.26598291015625,-0.014461660757660866,-0.005636603571474552,-0.009698627516627312
1772018034527950800,3.285950927734375,-0.010012413375079632,-0.03175206854939461,-0.008553339168429375
1772018034547917600,3.30591748046875,-0.004068585112690926,-0.02576897293329239,0.008599955588579178
1772018034567885600,3.325885498046875,0.007818578742444515,-0.0018381285481154919,0.014789536595344543
1772018034587852800,3.345852783203125,0.005721494555473328,0.014451403170824051,0.0009762602858245373
1772018034607820800,3.36582080078125,-0.007863056845963001,0.003190772607922554,-0.02430100180208683
1772018034627787500,3.38578759765625,-0.01268770545721054,-0.005140108522027731,-0.010602769441902637
1772018034647755500,3.405755615234375,-0.0074128806591033936,0.00036733411252498627,0.0050879050977528095
1772018034667722800,3.42572265625,-0.004105213098227978,-0.0052079102024436,-0.005089630372822285
1772018034687690800,3.445690673828125,-0.002912340220063925,-0.01902289129793644,-0.026225538924336433
1772018034707657500,3.465657470703125,-0.005708104465156794,-0.010114268399775028,-0.02067284844815731
1772018034727624700,3.485624755859375,-0.0027301358059048653,-0.0027084676548838615,0.012318925932049751
1772018034747592700,3.5055927734375,-0.004526449367403984,-0.009523937478661537,0.02804023027420044
1772018034767559700,3.5255595703125,-0.0016466383822262287,-0.008448596112430096,0.012858354486525059
1772018034787527700,3.545527587890625,-0.006232425570487976,-0.001968917902559042,-0.005959013476967812
1772018034807494700,3.56549462890625,-0.007435963023453951,0.003165584057569504,-0.0075178975239396095
1772018034827462700,3.585462646484375,-0.00820745900273323,0.013309115543961525,0.00978332944214344
1772018034847429600,3.6054296875,-0.005245536100119352,0.0128647331148386,0.01837361976504326
1772018034867398000,3.62539794921875,-0.006919276900589466,0.00044728629291057587,0.002218754030764103
1772018034887364600,3.645364501953125,-0.006765612401068211,-0.003833478782325983,-0.011247253976762295
1772018034907332600,3.66533251953125,-0.009234817698597908,0.0016770195215940475,-0.0052717821672558784
1772018034927299800,3.6852998046875,-0.010953666642308235,0.027316972613334656,-0.004117303527891636
1772018034947267800,3.705267822265625,-0.0124076958745718,0.019413579255342484,-0.012958862818777561
1772018034967234600,3.725234619140625,-0.0009858743287622929,0.008606807328760624,-0.014363277703523636
1772018034987202600,3.74520263671875,0.001779117388650775,0.019053909927606583,-0.007492197211831808
1772018035007169800,3.765169677734375,-0.002855092752724886,0.0046684155240654945,-0.005152346100658178
1772018035027137800,3.7851376953125,-0.006374726537615061,0.008292444981634617,-0.011962581425905228
1772018035047104500,3.8051044921875,-0.00016099540516734123,0.0001366790384054184,-0.005196552723646164
1772018035067072500,3.825072509765625,0.004051926080137491,0.0014892788603901863,0.02894624136388302
1772018035087039700,3.845039794921875,0.0018539121374487877,0.027323037385940552,0.03703134134411812
1772018035107007700,3.8650078125,-0.004381317179650068,0.02925577387213707,0.008246151730418205
1772018035126974500,3.884974365234375,-0.004063824657350779,0.016149723902344704,-0.02150481566786766
1772018035146942700,3.904942626953125,-0.0024180132895708084,0.00274541974067688,-0.0028512394055724144
1772018035166909700,3.92490966796875,0.0013767913915216923,0.01174555066972971,0.01748945564031601
1772018035186877700,3.944877685546875,-0.005258949939161539,0.013175738975405693,0.010960851795971394
1772018035206845000,3.964844970703125,-0.00556840980425477,-0.01723196730017662,-0.012394271790981293
1772018035226812700,3.984812744140625,-0.007188455201685429,-0.006223687436431646,-0.0107007697224617
1772018035246779600,4.004779541015625,-0.01061239093542099,-0.0026267655193805695,-0.009860271587967873
1772018035266747600,4.02474755859375,-0.006947229150682688,-0.007688496727496386,0.001410352298989892
1772018035286715000,4.04471484375,-0.027133943513035774,0.01024033222347498,0.017944591119885445
1772018035306682600,4.0646826171875,-0.00017044832929968834,0.020648835226893425,0.07312462478876114
1772018035326649600,4.084649658203125,0.0018976610153913498,0.020677629858255386,0.10225600749254227
1772018035346617600,4.10461767578125,-0.0016854321584105492,0.04155132919549942,0.06583154201507568
1772018035366584800,4.124584716796875,-0.0009677647612988949,0.011419371701776981,0.04091915488243103
1772018035386552800,4.144552734375,-0.00995634589344263,0.012440298683941364,0.038727227598428726
1772018035406519600,4.16451953125,-0.035305023193359375,0.05380591005086899,0.09771811217069626
1772018035426487800,4.18448779296875,-0.003667512908577919,0.021923713386058807,0.08584067970514297
1772018035446454800,4.204454833984375,-0.009868882596492767,-0.001537160947918892,0.04395288974046707
1772018035466422800,4.2244228515625,-0.011163467541337013,0.005572065711021423,0.0010325864423066378
1772018035486389800,4.2443896484375,-0.017357900738716125,0.006025485694408417,-0.013434099033474922
1772018035506357500,4.264357421875,-0.01322222501039505,-0.010302461683750153,-0.0020633446983993053
1772018035526324200,4.28432421875,-0.011106863617897034,-0.013992896303534508,0.013183919712901115
1772018035546292200,4.304292236328125,-0.007741949521005154,-0.0031326175667345524,0.021804172545671463
1772018035566259500,4.324259521484375,-0.005219059530645609,0.028595902025699615,0.008161467500030994
1772018035586227500,4.3442275390625,-0.009179957211017609,0.02082221768796444,-0.022378863766789436
1772018035606194200,4.364194091796875,-0.007145720534026623,0.0011341366916894913,-0.021586034446954727
1772018035626162200,4.384162109375,-0.0017727073282003403,-0.011396149173378944,-0.010480395518243313
1772018035646129400,4.40412939453125,-0.001584698911756277,0.004089691676199436,-0.00521679176017642
1772018035666097400,4.424097412109375,-0.0038618906401097775,0.004598506726324558,-0.009023111313581467
1772018035686064000,4.444064208984375,-0.00618634233251214,0.0005977433174848557,-0.024419380351901054
1772018035706032400,4.464032470703125,-0.00634763902053237,0.00040552299469709396,-0.024905133992433548
1772018035725999400,4.483999267578125,-0.0024054073728621006,0.01221541315317154,-0.006681925617158413
1772018035745967400,4.50396728515625,0.0014069760218262672,0.0391620509326458,-0.019172148779034615
1772018035765934300,4.523934326171875,-0.009143158793449402,0.0004529273137450218,-0.05849025771021843
1772018035785902300,4.54390234375,-0.007616057526320219,-0.003135256003588438,-0.04074375331401825
1772018035805869300,4.563869384765625,-0.0022938912734389305,0.002550549805164337,0.01472443901002407
1772018035825837300,4.58383740234375,-0.0021420763805508614,-0.001177692785859108,0.02803863398730755
1772018035845804300,4.60380419921875,0.0024600476026535034,0.007894479669630527,0.011093748733401299
1772018035865772300,4.623772216796875,0.002625959226861596,-0.007754698395729065,-0.011078944429755211
1772018035885739300,4.6437392578125,-0.0020661093294620514,-0.0021987720392644405,-0.011796925216913223
1772018035905707300,4.663707275390625,-0.0013820948079228401,-0.005972866900265217,0.01097790151834488
1772018035925675500,4.683675537109375,0.003923419862985611,-0.009859205223619938,0.014122959226369858
1772018035945642200,4.703642333984375,0.002416267991065979,-0.006107052322477102,-0.0030581613536924124
1772018035965610200,4.7236103515625,-0.0032898089848458767,-0.016462847590446472,-0.02537558227777481
1772018035985577500,4.743577392578125,-0.007448787800967693,-0.021642547100782394,-0.021693360060453415
1772018036005545500,4.76354541015625,-0.014721916057169437,-0.017751922830939293,0.004712546244263649
1772018036025512200,4.78351220703125,-0.004345254506915808,-0.008576417341828346,0.031960807740688324
1772018036045480200,4.803480224609375,-0.00835275650024414,0.0017950795590877533,0.04096735268831253
1772018036065447400,4.823447509765625,-0.0014564204029738903,0.01222203578799963,0.029249846935272217
1772018036085415400,4.84341552734375,-0.009481459856033325,0.004164157435297966,0.010746730491518974
1772018036105382100,4.863382080078125,-0.006833779159933329,-0.0034130578860640526,-0.0044861529022455215
1772018036125350100,4.88335009765625,-0.01228332705795765,0.015814850106835365,-0.004186943173408508
1772018036145317400,4.9033173828125,-0.00472284434363246,-0.0027228924445807934,0.015339489094913006
1772018036165285400,4.923285400390625,0.0030739461071789265,-0.002950457390397787,0.03847609460353851
1772018036185252400,4.94325244140625,-0.005773682612925768,-0.023705512285232544,0.024515945464372635
1772018036205220000,4.96322021484375,-0.009728267788887024,0.0007592830806970596,-0.004539277870208025
1772018036225187300,4.983187255859375,-0.007939666509628296,-0.0023418874479830265,-0.014012141153216362
1772018036245155300,5.0031552734375,0.005193203222006559,-0.013384338468313217,-0.00029446324333548546
1772018036265122300,5.023122314453125,0.006292590871453285,-0.012448251247406006,0.02586350589990616
1772018036285090300,5.04309033203125,-0.004305933136492968,0.00012246612459421158,0.023879321292042732
1772018036305057300,5.063057373046875,-0.007046486251056194,0.009741777554154396,0.02781706303358078
1772018036325025300,5.083025390625,-0.009269049391150475,0.00364656001329422,0.022235868498682976
1772018036344992500,5.102992431640625,-0.0025962763465940952,-0.004551432095468044,0.002431548433378339
1772018036364960500,5.12296044921875,-0.005767959635704756,0.002943189814686775,-0.0214462261646986
1772018036384927200,5.14292724609375,-0.015047527849674225,-0.004203306511044502,-0.003988262731581926
1772018036404895200,5.162895263671875,0.0031076138839125633,-0.005126651376485825,0.038977041840553284
1772018036424862500,5.182862548828125,0.006425528787076473,-0.013770618475973606,0.04242837056517601
1772018036444830500,5.20283056640625,-0.0018919832073152065,-0.01022064033895731,-0.0052767107263207436
1772018036464797200,5.222797119140625,-0.004062266554683447,-0.03325190767645836,-0.01967255026102066
1772018036484765200,5.24276513671875,-0.004007219336926937,-0.02964187040925026,0.004568735137581825
1772018036504732200,5.262732177734375,-0.0007795807905495167,-0.008417947217822075,0.016653088852763176
1772018036524700200,5.2827001953125,0.0005038413219153881,-0.008983707055449486,0.006839076988399029
1772018036544667100,5.302667236328125,0.0013612613547593355,-0.007257591933012009,-0.009159456007182598
1772018036564632000,5.322632080078125,0.0002216259017586708,-0.018910225480794907,-0.008243332616984844
1772018036584599300,5.342599365234375,0.0025015580467879772,-0.017263591289520264,0.00872073695063591
1772018036604567300,5.3625673828125,-0.010082954540848732,-0.00013138353824615479,0.026572836562991142
1772018036624534000,5.382533935546875,-0.0021128086373209953,0.01480917353183031,0.03570389002561569
1772018036644502300,5.402502197265625,-0.006375717930495739,-0.005970500409603119,0.01538650132715702
1772018036664469200,5.42246923828125,-0.0073387413285672665,-0.015431193634867668,0.000865082023665309
1772018036684437200,5.442437255859375,-0.008395448327064514,-0.020759660750627518,-0.006953557953238487
1772018036704404200,5.462404296875,0.0012994532007724047,-0.009543728083372116,0.007418453693389893
1772018036724372200,5.482372314453125,0.004792284686118364,0.008636671118438244,0.02352777309715748
1772018036744339200,5.502339111328125,0.003924450371414423,-0.0037392480298876762,0.00838184729218483
1772018036764307200,5.52230712890625,-0.003564437385648489,-0.00837969034910202,-0.018934598192572594
1772018036784274400,5.5422744140625,-0.010779240168631077,0.00834550429135561,-0.02244477905333042
1772018036804242200,5.5622421875,-0.007627067621797323,0.013795733451843262,-0.001229369780048728
1772018036824209200,5.582209228515625,-0.0015587089583277702,-0.0006797285750508308,0.0142863430082798
1772018036844177200,5.60217724609375,0.002295650076121092,-0.0012179403565824032,0.003308126237243414
1772018036864145200,5.622145263671875,-0.007198983803391457,0.005956321954727173,-0.008733619004487991
1772018036884112100,5.642112060546875,-0.0019650207832455635,0.01770794950425625,-0.00032962567638605833
1772018036904080100,5.662080078125,0.007227036636322737,0.022532835602760315,-0.0019277810351923108
1772018036924047000,5.682047119140625,0.007890013046562672,0.010260852985084057,-0.006898032501339912
1772018036944015400,5.702015380859375,0.010642331093549728,-0.006076105870306492,-0.0028714691288769245
1772018036963984100,5.721984130859375,0.009703926742076874,-0.02727455273270607,0.010729298926889896
1772018036983951400,5.741951416015625,0.005210884381085634,-0.021166138350963593,0.0018319431692361832
1772018037003919000,5.761919189453125,0.0012981104664504528,-0.0007967473939061165,-0.011085854843258858
1772018037023887000,5.78188720703125,0.0009507876820862293,0.00781229417771101,-0.0005514583317562938
1772018037043854300,5.801854248046875,0.0026302235201001167,-0.000892620999366045,0.016303157433867455
1772018037063822300,5.821822265625,-0.002886005211621523,-0.014980822801589966,-0.002850564196705818
1772018037083789300,5.841789306640625,0.0007371681276708841,-0.026150453835725784,-0.02305876463651657
1772018037103757000,5.861757080078125,-0.0014255847781896591,-0.021442251279950142,-0.00837063416838646
1772018037123724300,5.881724365234375,0.008417434990406036,-0.03022969886660576,0.01948869228363037
1772018037143692300,5.9016923828125,0.007572471164166927,-0.010262580588459969,0.011026901192963123
1772018037163659300,5.9216591796875,-0.0022716601379215717,0.013275421224534512,-0.012924239039421082
1772018037183627000,5.941626953125,0.00741291418671608,0.008544941432774067,-0.030249033123254776
1772018037203594200,5.96159423828125,0.0034876354038715363,-0.004888738039880991,-0.024836694821715355
1772018037223562200,5.981562255859375,0.007240074686706066,0.006409087218344212,0.0047289226204156876
1772018037243529200,6.001529296875,0.009069978259503841,0.01522484328597784,0.023678647354245186
1772018037263497500,6.02149755859375,0.0008338748011738062,0.01335060317069292,0.005929610691964626
1772018037283464200,6.041464111328125,0.0017362344078719616,0.00006423704326152802,-0.01245005801320076
1772018037303432200,6.06143212890625,0.0046531143598258495,-0.011975792236626148,-0.0077715544030070305
1772018037323399400,6.0813994140625,0.008390594273805618,-0.014177960343658924,0.00712483748793602
1772018037343367400,6.101367431640625,0.0058656977489590645,0.009692112915217876,0.023605545982718468
1772018037363334100,6.121334228515625,0.009211692959070206,0.011886023916304111,0.03168291598558426
1772018037383302100,6.14130224609375,0.00955754704773426,0.02146855555474758,0.012437574565410614
1772018037403269400,6.161269287109375,-0.0012239031493663788,0.021391645073890686,-0.01953659951686859
1772018037423237400,6.1812373046875,-0.0011085481382906437,-0.010305576026439667,-0.02032836712896824
1772018037443204000,6.2012041015625,0.007749583572149277,-0.02501765266060829,0.001979743828997016
1772018037463172000,6.221172119140625,0.01582564227283001,-0.024893203750252724,0.012334647588431835
1772018037483139300,6.241139404296875,0.021539583802223206,-0.020725572481751442,0.01569262146949768
1772018037503107300,6.261107421875,0.010704129002988338,0.00041445810347795486,0.008626597002148628
1772018037523074300,6.28107421875,0.009457355365157127,0.011215847916901112,-0.0006775638903491199
1772018037543042300,6.301042236328125,0.010427912697196007,0.004452449269592762,0.0015527051873505116
1772018037563009300,6.32100927734375,0.009466812014579773,0.010316716507077217,0.0032721771858632565
1772018037582977300,6.340977294921875,0.00680575892329216,-0.002647897694259882,-0.017704211175441742
1772018037602944300,6.3609443359375,0.006203699391335249,0.006380627863109112,-0.0178819727152586
1772018037622912500,6.38091259765625,0.005922469310462475,-0.0020706471987068653,0.0031836300622671843
1772018037642879200,6.400879150390625,0.007114998064935207,-0.015659410506486893,0.02118140459060669
1772018037662847200,6.42084716796875,0.008858269080519676,-0.016891108825802803,0.010157912038266659
1772018037682814500,6.440814453125,0.010374268516898155,-0.00463494099676609,-0.010377582162618637
1772018037702782500,6.460782470703125,0.0022044465877115726,0.012216060422360897,-0.008578766137361526
1772018037722749200,6.480749267578125,0.004579820204526186,0.00893847644329071,-0.0033835996873676777
1772018037742717200,6.50071728515625,0.007751169614493847,0.008564104326069355,-0.00638165045529604
1772018037762684400,6.520684326171875,0.0033136606216430664,0.0100595997646451,-0.005761394277215004
1772018037782652400,6.54065234375,0.002425194252282381,0.007853716611862183,-0.014785383827984333
1772018037802619100,6.560619140625,0.008700864389538765,-0.010557485744357109,0.004263670649379492
1772018037822587100,6.580587158203125,0.0014117013197392225,0.013876426964998245,0.03619523346424103
1772018037842554400,6.600554443359375,0.003678710199892521,0.015436817891895771,0.024132851511240005
1772018037862522400,6.6205224609375,0.0018664170056581497,0.019459880888462067,-0.020004384219646454
1772018037882489000,6.640489013671875,-0.0039475527592003345,0.01820598542690277,-0.05680793896317482
1772018037902457300,6.660457275390625,-0.010186653584241867,0.006943339481949806,-0.028078828006982803
1772018037922424300,6.68042431640625,-0.002118239179253578,-0.006648404989391565,0.03870619833469391
1772018037942392300,6.700392333984375,0.002586234826594591,0.006929188966751099,0.06657963991165161
1772018037962359600,6.720359619140625,0.00026525603607296944,0.009905551560223103,0.01998138055205345
1772018037982327300,6.740327392578125,-0.0069507998414337635,0.02547162026166916,-0.03131163492798805
1772018038002294300,6.760294189453125,-0.00896546896547079,0.01689055562019348,-0.04264351725578308
1772018038022262300,6.78026220703125,-0.003586285747587681,0.006851553916931152,0.00041579618118703365
1772018038042230300,6.800230224609375,0.0016872913111001253,0.005578641779720783,0.042259130626916885
1772018038062197200,6.820197265625,0.0012701351661235094,0.01249598152935505,0.033127278089523315
1772018038082165200,6.840165283203125,-0.004272736608982086,-0.005573819391429424,-0.002211939310654998
1772018038102132200,6.86013232421875,-0.007875414565205574,-0.005018656607717276,-0.029724255204200745
1772018038122100500,6.8801005859375,-0.005484485998749733,-0.0021694074384868145,-0.015488463453948498
1772018038142067500,6.9000673828125,0.0002402113750576973,0.007400408387184143,0.01717773638665676
1772018038162035200,6.92003515625,0.002418087562546134,0.010512507520616055,0.02332603931427002
1772018038182002400,6.94000244140625,0.00034857913851737976,0.007651727646589279,-0.005134229548275471
1772018038201970400,6.959970458984375,-0.008253386244177818,0.009992009960114956,-0.026550836861133575
1772018038221937400,6.9799375,-0.00033742841333150864,-0.001741957850754261,-0.005914534442126751
1772018038241905200,6.9999052734375,0.0008919662795960903,-0.003615344874560833,0.029965840280056
1772018038261872400,7.019872314453125,0.0018322712276130915,-0.014968466013669968,0.02462846226990223
1772018038281840400,7.03984033203125,-0.0005006804130971432,0.011648150160908699,-0.016024958342313766
1772018038301807400,7.059807373046875,-0.004628256428986788,0.006421497091650963,-0.03411035239696503
1772018038321775400,7.079775390625,-0.0025498284958302975,-0.013828322291374207,-0.01912621408700943
1772018038341742300,7.099742431640625,0.005792194977402687,0.009806095622479916,0.011951019987463951
1772018038361710300,7.11971044921875,-0.003975261002779007,0.020488671958446503,0.005907772108912468
1772018038381677300,7.13967724609375,-0.008184300735592842,-0.011543679051101208,-0.009506345726549625
1772018038401645300,7.159645263671875,-0.003295842558145523,-0.02901453524827957,0.010790148749947548
1772018038421612300,7.1796123046875,0.0023624952882528305,-0.009526469744741917,0.03226041793823242
1772018038441580300,7.199580322265625,0.004345299210399389,0.012892433442175388,0.023281970992684364
1772018038461547300,7.21954736328125,-0.004752857610583305,0.0040291668847203255,-0.007640257943421602
1772018038481515500,7.239515625,-0.004026415757834911,-0.008838322944939137,-0.01907695271074772
1772018038501482000,7.25948193359375,0.003517519449815154,-0.0004063015803694725,0.008373592048883438
1772018038521450000,7.279449951171875,0.004024030175060034,0.010301122441887856,0.026060443371534348
1772018038541417200,7.299417236328125,0.00033174455165863037,0.004724045284092426,0.007844284176826477
1772018038561385200,7.31938525390625,-0.005868792068213224,0.0011833393946290016,-0.019630080088973045
1772018038581352000,7.33935205078125,-0.006943110842257738,0.010946487076580524,-0.019502779468894005
1772018038601320000,7.35931982421875,-0.0015564695931971073,0.008760876022279263,0.010863907635211945
1772018038621287200,7.379287109375,0.006993942428380251,0.017878185957670212,0.03216733783483505
1772018038641255200,7.399255126953125,0.007037029601633549,0.007510695606470108,0.005091906059533358
1772018038661222000,7.419221923828125,0.005688172299414873,0.004491726867854595,-0.028048867359757423
1772018038681190000,7.43918994140625,0.005011162720620632,0.0069314585998654366,-0.029315602034330368
1772018038701157000,7.4591572265625,0.007610277272760868,0.01703384891152382,0.0070421453565359116
1772018038721125000,7.479125,0.00925342459231615,0.016613520681858063,0.05041438713669777
1772018038741091800,7.499091796875,0.011157596483826637,-0.004574947990477085,0.043083902448415756
1772018038761060000,7.51906005859375,0.0008456686045974493,0.00726392213255167,-0.0027811990585178137
1772018038781027000,7.539027099609375,-0.0036848681047558784,-0.003527215216308832,-0.04424488544464111
1772018038800995000,7.5589951171875,0.0035699387080967426,0.008060524240136147,-0.02501126378774643
1772018038820962000,7.578962158203125,0.01301882229745388,0.017353717237710953,0.023543087765574455
1772018038840930000,7.598929931640625,0.010245872661471367,0.019396116957068443,0.020846102386713028
1772018038860897000,7.61889697265625,0.007192913442850113,-0.004590381868183613,-0.011186927556991577
1772018038880865000,7.638864990234375,0.01129632443189621,-0.012672370299696922,-0.007243185304105282
1772018038900832300,7.658832275390625,0.012185230851173401,0.018295064568519592,0.03353739529848099
1772018038920800000,7.678800048828125,0.023793905973434448,0.019057363271713257,0.051573920994997025
1772018038940767000,7.69876708984375,0.018543919548392296,0.008683227933943272,0.007717924192547798
1772018038960735000,7.71873486328125,0.011705584824085236,-0.011118392460048199,-0.03199434280395508
1772018038980702200,7.7387021484375,0.007437846623361111,0.013865171931684017,-0.011376416310667992
1772018039000670000,7.758669921875,0.012629049830138683,0.03813156858086586,0.031496889889240265
1772018039020637000,7.778636962890625,0.018072081729769707,0.011857425794005394,0.028567137196660042
1772018039040605200,7.798605224609375,0.01422429271042347,-0.022918738424777985,-0.018933938816189766
1772018039060572200,7.818572265625,0.013047930784523487,-0.01219177432358265,-0.027010763064026833
1772018039080540200,7.8385400390625,0.012678924947977066,0.006573622114956379,0.0023191552609205246
1772018039100507100,7.858507080078125,0.019703902304172516,0.023446405306458473,0.008044423535466194
1772018039120475100,7.87847509765625,0.01631745882332325,0.015616432763636112,-0.013300145044922829
1772018039140442000,7.898442138671875,0.013949343003332615,-0.009709152393043041,-0.029249684885144234
1772018039160410000,7.91841015625,0.009438956156373024,-0.005965084303170443,-0.0028981086798012257
1772018039180377000,7.938377197265625,0.012224612757563591,0.008635790087282658,0.025147773325443268
1772018039200345000,7.958344970703125,0.00654164794832468,0.002511419355869293,0.02177860587835312
1772018039220312000,7.97831201171875,0.010646779090166092,-0.006651495583355427,0.001303697470575571
1772018039240280000,7.998280029296875,0.007742556743323803,0.00007921550422906876,-0.00813934113830328
1772018039260247000,8.0182470703125,-0.001726499292999506,0.011330689303576946,0.008916744031012058
1772018039280215000,8.038215087890626,0.006847057957202196,-0.0028370805084705353,0.01722686178982258
1772018039300182000,8.05818212890625,0.002710014581680298,0.009430628269910812,0.009645117446780205
1772018039320150000,8.07814990234375,-0.007962914183735847,-0.0016168593429028988,-0.018564151600003242
1772018039340117000,8.098116943359376,-0.0041124252602458,-0.019804593175649643,-0.01824723184108734
1772018039360085000,8.1180849609375,-0.00048404745757579803,-0.014080780558288097,0.013378063216805458
1772018039380052000,8.138052001953126,-0.00042040925472974777,-0.017652254551649094,0.02268567681312561
1772018039400020200,8.158020263671874,-0.0030499924905598164,-0.009168406017124653,0.003939687740057707
1772018039419987000,8.177987060546876,-0.013355627655982971,-0.0028087771497666836,-0.0039848145097494125
1772018039439955000,8.197954833984374,-0.012046072632074356,0.003282291814684868,0.012737044133245945
1772018039459922200,8.217922119140624,-0.0048782858066260815,0.005971940234303474,0.028230778872966766
1772018039479890200,8.23789013671875,-0.005555128213018179,-0.0006037121638655663,0.012938912957906723
1772018039499857000,8.25785693359375,-0.006861986126750708,-0.0165261160582304,-0.008587686344981194
1772018039519825000,8.277824951171874,-0.01601194031536579,-0.015879463404417038,-0.02916567027568817
1772018039539792100,8.297792236328124,-0.012923140078783035,-0.003223871812224388,-0.025562943890690804
1772018039559760100,8.317760009765625,-0.00833044108003378,0.0006626332178711891,-0.007390195038169622
1772018039579727000,8.33772705078125,-0.009295436553657055,-0.005819195881485939,0.010186394676566124
1772018039599694800,8.35769482421875,-0.0083833709359169,-0.0021036150865256786,-0.00026250758673995733
1772018039619662000,8.377662109375,-0.008451149798929691,-0.010225947014987469,-0.015196455642580986
1772018039639630000,8.397630126953125,-0.00471748411655426,0.0013438249006867409,-0.01282331719994545
1772018039659597000,8.41759716796875,-0.009995914995670319,0.0062813470140099525,-0.006531855091452599
1772018039679565000,8.43756494140625,-0.014938842505216599,0.0015417532995343208,-0.02433549240231514
1772018039699532000,8.457531982421875,-0.003899938892573118,-0.009097608737647533,-0.04341930150985718
1772018039719500000,8.4775,-0.0005962108261883259,0.00492496881633997,-0.020238488912582397
1772018039739467300,8.49746728515625,0.0008647991344332695,0.019538532942533493,0.012705879285931587
1772018039759435300,8.517435302734375,0.007408518344163895,0.010543156415224075,0.00014455057680606842
1772018039779402000,8.537402099609375,0.004473116248846054,0.013545888476073742,-0.03553089126944542
1772018039799370000,8.557369873046875,-0.003832407295703888,0.015902407467365265,-0.04576608166098595
1772018039819337200,8.577337158203125,0.0010632264893501997,0.003503989428281784,-0.009669733233749866
1772018039839305200,8.59730517578125,0.0028009070083498955,-0.00549695361405611,0.017414480447769165
1772018039859272000,8.61727197265625,0.010101729072630405,-0.009540174156427383,0.010870696045458317
1772018039879240000,8.637239990234375,0.007143778260797262,0.010597667656838894,0.007398734334856272
1772018039899207200,8.657207275390626,0.006729224231094122,0.010028518736362457,-0.0003802215214818716
1772018039919175200,8.677175048828126,0.002772699575871229,0.00629560649394989,-0.0210663303732872
1772018039939142000,8.697141845703126,0.002716153860092163,0.005692865699529648,-0.021287644281983376
1772018039959110100,8.717110107421876,0.007282584439963102,0.013072882778942585,-0.003448451403528452
1772018039979077000,8.7370771484375,0.0030295541509985924,-0.0006202347576618195,0.0016950343269854784
1772018039999045000,8.757045166015626,0.0001249518245458603,-0.014519652351737022,-0.022644121199846268
1772018040019012000,8.77701220703125,-0.00734359584748745,-0.01627219468355179,-0.042480140924453735
1772018040038980000,8.79697998046875,-0.005561120342463255,-0.012861136347055435,-0.016728440299630165
1772018040058947000,8.816947021484374,0.003069853875786066,0.0006421720609068871,0.02949897199869156
1772018040078914000,8.8369140625,0.00555651169270277,0.0025670891627669334,0.029294177889823914
1772018040098882000,8.856882080078124,-0.0006224988028407097,0.0005958909168839455,-0.008474370464682579
1772018040118850000,8.87685009765625,0.0005318827461451292,-0.00241159088909626,-0.01821102574467659
1772018040138817000,8.896817138671874,-0.00008117686957120895,0.0010294793173670769,0.0020580277778208256
1772018040158784300,8.9167841796875,0.0019284442532807589,-0.0073299165815114975,0.013628663495182991
1772018040178752300,8.936752197265625,0.0004991472233086824,-0.009047305211424828,0.015150660648941994
1772018040198719000,8.956718994140624,-0.00034769391641020775,-0.004827095195651054,0.003096930216997862
1772018040218687000,8.97668701171875,-0.002104304265230894,-0.005265543237328529,-0.003670295001938939
1772018040238654200,8.996654296875,0.001256763469427824,-0.011017587035894394,-0.013980994932353497
1772018040258622200,9.016622314453125,0.004469387698918581,0.01862107217311859,-0.011512108147144318
1772018040278589000,9.0365888671875,-0.0004047611728310585,0.0226653590798378,-0.0033999881707131863
1772018040298557000,9.056556884765625,0.0011961080599576235,-0.008455908857285976,0.017726603895425797
1772018040318524200,9.076524169921875,0.005042489618062973,-0.027563638985157013,0.015357188880443573
1772018040338492200,9.0964921875,0.004301364067941904,-0.016216985881328583,-0.013967808336019516
1772018040358459000,9.116458984375,0.0014273361302912235,0.005309952422976494,-0.012967389076948166
1772018040378427100,9.13642724609375,0.00246286578476429,0.021167878061532974,-0.003481750376522541
1772018040398394000,9.15639404296875,0.004959334619343281,0.010371506214141846,0.0023431165609508753
1772018040418362000,9.176362060546875,0.01130740623921156,-0.010289454832673073,0.006494447588920593
1772018040438329000,9.1963291015625,0.013309420086443424,-0.007384145632386208,0.005265536718070507
1772018040458297000,9.216297119140625,0.01022541057318449,-0.002279986161738634,0.005118273198604584
1772018040478264000,9.23626416015625,0.004942034371197224,0.0005259755998849869,-0.008999685756862164
1772018040498231800,9.256231689453125,-0.000976094976067543,0.013335171155631542,-0.018883876502513885
1772018040518199000,9.276198974609375,0.0037046978250145912,0.007062977179884911,-0.011023289524018764
1772018040538167000,9.2961669921875,0.009111745283007622,0.004920457489788532,0.01295914314687252
1772018040558132000,9.316132080078125,0.005327277816832066,0.012121312320232391,0.009855623356997967
1772018040578100000,9.336099853515625,0.0031860964372754097,0.012268317863345146,-0.027062181383371353
1772018040598067000,9.35606689453125,-0.0032946541905403137,0.0014487747102975845,-0.04715506359934807
1772018040618035200,9.37603515625,0.0029540276154875755,0.0012009870260953903,-0.005839576479047537
1772018040638002000,9.396001953125,0.0010572813916951418,-0.0014974945224821568,0.03304523602128029
1772018040657970000,9.415969970703125,0.00308691943064332,-0.005594867281615734,0.021114543080329895
1772018040677937200,9.435937255859375,-0.00007862085476517677,0.01868581771850586,-0.0024738782085478306
1772018040697905200,9.4559052734375,-0.004222467076033354,0.019784364849328995,-0.0027413915377110243
1772018040717871900,9.475871826171876,0.0025592721067368984,-0.006306890398263931,-0.0007458849577233195
1772018040737839900,9.49583984375,0.003182664979249239,-0.007361047901213169,-0.002610499504953623
1772018040757807000,9.51580712890625,-0.0052966042421758175,0.016885973513126373,0.001393961487337947
1772018040777774000,9.535774169921876,-0.007524870801717043,0.0077888816595077515,0.01011075358837843
1772018040797741800,9.555741943359376,-0.0007766871713101864,-0.002221941016614437,0.008203930221498013
1772018040817709000,9.575708984375,0.005875376984477043,-0.012990080751478672,-0.006365157663822174
1772018040837677000,9.595677001953124,-0.0026507647708058357,0.004774007946252823,0.00639870623126626
1772018040857644000,9.61564404296875,-0.0027942033484578133,0.026680797338485718,0.019415177404880524
1772018040877611800,9.63561181640625,0.00014808448031544685,0.019171692430973053,0.005475516431033611
1772018040897579000,9.6555791015625,0.003963866736739874,0.010288232937455177,-0.02072332054376602
1772018040917547000,9.675547119140624,0.0026820229832082987,-0.0021591009572148323,-0.024354808032512665
1772018040937514000,9.695513916015624,-0.0013499925844371319,-0.008811768144369125,-0.0015082152094691992
1772018040957482000,9.71548193359375,-0.005824822932481766,-0.0026574423536658287,0.025369729846715927
1772018040977449000,9.735448974609374,-0.002258798573166132,0.018495328724384308,0.00914215948432684
1772018040997417000,9.7554169921875,-0.003244188614189625,0.010823476128280163,-0.026423824951052666
1772018041017384000,9.775384033203125,0.00020496360957622528,-0.015416663140058517,-0.030750257894396782
1772018041037352200,9.795352294921875,-0.00023548118770122528,-0.0019906978122889996,-0.008575180545449257
1772018041057319000,9.81531884765625,0.0028391596861183643,0.017657920718193054,0.014109360054135323
1772018041077287000,9.835286865234375,0.0012708669528365135,0.01727459579706192,0.0032063808757811785
1772018041097254100,9.855254150390625,0.0009484461043030024,-0.006810292601585388,-0.025037914514541626
1772018041117222100,9.87522216796875,-0.0014444352127611637,-0.0049364883452653885,-0.014189662411808968
1772018041137188900,9.89518896484375,0.0014199295546859503,-0.00018285401165485382,0.02067817933857441
1772018041157156000,9.915156005859375,0.00041856011375784874,0.012813020497560501,0.014018943533301353
1772018041177124000,9.9351240234375,-0.0037423833273351192,-0.009041497483849525,-0.026929821819067
1772018041197091000,9.955091064453125,-0.004902074113488197,-0.009082176722586155,-0.03182830289006233
1772018041217058800,9.975058837890625,-0.004886550363153219,0.006024369969964027,0.0003911452367901802
1772018041237026000,9.995026123046875,-0.00744724040850997,0.00479479506611824,0.022835731506347656
1772018041256994000,10.014994140625,-0.0032012914307415485,-0.009756015613675117,0.00686116237193346
1772018041276961000,10.0349609375,-0.00485593406483531,-0.011885564774274826,-0.017580797895789146
1772018041296928800,10.0549287109375,-0.00737758819013834,-0.004822608083486557,-0.0066033778712153435
1772018041316896000,10.07489599609375,-0.007905406877398491,0.010697848163545132,0.02576015517115593
1772018041336864000,10.094864013671875,-0.006056948099285364,0.0034424271434545517,0.019955260679125786
1772018041356831000,10.1148310546875,-0.009942488744854927,-0.0029764147475361824,-0.0004771755775436759
1772018041376799000,10.134799072265626,-0.0065264105796813965,-0.0057816170156002045,-0.02167806588113308
1772018041396766000,10.154765869140626,-0.006781112868338823,0.0009661372750997543,-0.012903221882879734
1772018041416734000,10.17473388671875,-0.006781379226595163,0.003986961208283901,0.001987577648833394
1772018041436701200,10.194701171875,-0.006141185760498047,-0.0056214528158307076,0.00673799030482769
1772018041456668000,10.21466796875,-0.011388719081878662,-0.003154474776238203,0.0010164526756852865
1772018041476636000,10.234635986328126,-0.012063717469573021,-0.003271577414125204,-0.0010654687648639083
1772018041496603100,10.25460302734375,-0.011303436011075974,0.011168798431754112,-0.017894119024276733
1772018041516571000,10.27457080078125,-0.0065704151056706905,-0.002550926059484482,-0.01867135986685753
1772018041536537600,10.29453759765625,-0.0021437909454107285,-0.006688758730888367,-0.012691235169768333
1772018041556505600,10.314505615234374,0.0011577189434319735,0.0036787502467632294,0.004240476526319981
1772018041576472800,10.334472900390624,-0.006263024173676968,0.0011234264820814133,0.0033284835517406464
1772018041596440800,10.35444091796875,-0.0060809883289039135,-0.0012885802425444126,-0.006339862011373043
1772018041616407600,10.374407470703124,-0.0005583078600466251,-0.01676013693213463,-0.016191158443689346
1772018041636375600,10.39437548828125,-0.0029112836346030235,-0.001937683206051588,-0.010242057964205742
1772018041656342800,10.4143427734375,-0.004897428210824728,-0.007389001548290253,0.004298803396522999
1772018041676310800,10.434310791015625,0.00009852927178144455,-0.002859128173440695,0.0023393770679831505
1772018041696277500,10.454277587890624,0.0003833542577922344,0.012307737953960896,-0.02208033949136734
1772018041716244700,10.47424462890625,-0.0023413770832121372,0.012482092715799809,-0.03326095640659332
1772018041736212700,10.494212646484375,-0.004328534938395023,-0.005303308833390474,-0.008944296278059483
1772018041756179700,10.5141796875,0.004251985810697079,-0.025578733533620834,0.011912774294614792
1772018041776147700,10.534147705078125,0.0010058986954391003,-0.009204910136759281,0.022455431520938873
1772018041796114700,10.55411474609375,0.0033441237173974514,0.007342909462749958,0.01673935540020466
1772018041816082700,10.574082763671875,0.0020666762720793486,0.014258245006203651,-0.0019601606763899326
1772018041836050000,10.5940498046875,-0.003921185154467821,-0.000967755913734436,0.005132236517965794
1772018041856017700,10.614017578125,-0.007191167213022709,0.014638974331319332,0.0028433874249458313
1772018041875984600,10.633984619140625,-0.0107601722702384,0.023919928818941116,-0.01968136802315712
1772018041895952600,10.65395263671875,-0.008632725104689598,0.02886415831744671,-0.06442766636610031
1772018041915920000,10.673919921875,0.003341562580317259,0.021415486931800842,-0.09514855593442917
1772018041935887600,10.6938876953125,-0.018543219193816185,0.00001290254294872284,-0.07840779423713684
1772018041955854600,10.7138544921875,-0.015017264522612095,0.0167299285531044,-0.03396190330386162
1772018041975821800,10.73382177734375,-0.0297322366386652,0.022188600152730942,-0.04389229416847229
1772018041995789800,10.753789794921875,-0.013186516240239143,0.0001333635300397873,-0.08682364970445633
1772018042015756500,10.773756591796875,-0.01236611045897007,0.0021181413903832436,-0.1371452808380127
1772018042035724500,10.793724609375,-0.011574352160096169,0.01637883484363556,-0.1331484168767929
1772018042055691800,10.81369189453125,0.0008687356021255255,0.040365658700466156,-0.12885379791259766
1772018042075659800,10.83365966796875,-0.009900870732963085,0.16229148209095,0.132587268948555
1772018042095626500,10.85362646484375,0.03991621732711792,-0.04528195038437843,0.2430671751499176
1772018042115594800,10.8735947265625,0.02543451264500618,-0.06515206396579742,0.05879093334078789
1772018042135561700,10.893561767578126,-0.020185375586152077,-0.07710220664739609,-0.2954733967781067
1772018042155529700,10.91352978515625,-0.02950523979961872,0.015419037081301212,-0.34955674409866333
