time,seconds_elapsed,z,y,x
1772019799305278500,0.088278564453125,0.07088847669363021,-0.10893427584096789,0.0006496412814594805
1772019799325244700,0.10824462890625,0.18704700469970703,-0.177455292750895,-0.04048500899299979
1772019799345210600,0.128210693359375,0.27646424077451226,-0.2235232164427638,-0.049772513830848034
1772019799365175800,0.14817578125,0.21576807227134703,-0.23822218840271234,-0.008161861808784306
1772019799385141500,0.1681416015625,0.0997065748989582,-0.04814955227151513,0.11342281943187117
1772019799405107700,0.188107666015625,0.10276771603524684,0.2236528341718018,0.20129819635953752
1772019799425072600,0.20807275390625,0.05071370367109775,0.28843861007615923,0.16404226894825696
1772019799445038600,0.22803857421875,-0.137273796749115,0.24977380224764345,0.10584745227415114
1772019799465004800,0.2480048828125,-0.39744741245806214,0.20468436819911,0.013368983731511979
1772019799484969700,0.2679697265625,-0.13606032930612563,0.048268064084649086,0.030343179747601968
1772019799504935700,0.287935791015625,-0.019848609808087347,-0.06737637691944837,0.04039444463271648
1772019799524901600,0.307901611328125,0.07833002487123011,-0.06371931571662426,-0.005538518434716388
1772019799544866600,0.327866455078125,0.11806523841023445,-0.10283201344311237,0.05685921155563555
1772019799564832800,0.347832763671875,0.017758359530568122,-0.11295973196476697,0.038465230135805904
1772019799584798500,0.367798583984375,0.19089023612439632,-0.11942892797887325,0.010455754032777622
1772019799604763600,0.387763671875,-0.06282149009406567,-0.12411737805604935,-0.017886726017436013
1772019799624729600,0.4077294921875,-0.004829319852590561,-0.09192629628628492,-0.09417379208528436
1772019799644695800,0.42769580078125,-0.08981821809113025,-0.1357765439286828,-0.06603852504496462
1772019799664660700,0.44766064453125,-0.029376316609978675,-0.08939648554772138,-0.0906365944024641
1772019799684626700,0.467626708984375,0.09235328952670097,-0.02258475677371025,0.005784154625702649
1772019799704592600,0.487592529296875,0.39702129600048064,-0.047996261405944825,0.06649962148438207
1772019799724557600,0.5075576171875,0.17327859158813952,-0.07468202375769614,-0.04125429003217723
1772019799744523500,0.5275234375,0.020425532913208005,-0.0799623022481799,-0.0564992967686383
1772019799764489700,0.54748974609375,0.028359248521924018,0.0027411154016852377,0.05267891649657394
1772019799784454700,0.56745458984375,-0.04343406805694103,0.057765960270166394,0.08810361445927992
1772019799804420600,0.587420654296875,-0.2767611778944731,-0.05400339286625385,0.0885712685036473
1772019799824386600,0.607386474609375,-0.11895663429200648,-0.06406243006587028,0.0953519050871022
1772019799844351500,0.6273515625,0.03849836522042751,-0.04968728323280811,0.13439334594197572
1772019799864317700,0.647317626953125,0.13220540744364262,-0.05958879178315401,0.11741196213327347
1772019799884283600,0.66728369140625,0.015407412490248679,-0.011591653594374656,0.06558051104519981
1772019799904248800,0.687248779296875,-0.0894715966105461,0.04863631287515163,0.04647519388508517
1772019799924214500,0.707214599609375,0.11160393344163894,0.03790478324145079,0.13614060973441228
1772019799944180700,0.7271806640625,0.009331307446956634,-0.0941451413795352,0.08745411930829286
1772019799964145700,0.747145751953125,0.04297872550487518,-0.1392564949989319,0.011585150788351893
1772019799984111600,0.767111572265625,0.1639858625859022,-0.1434185831144452,0.06750516809800174
1772019800004077600,0.78707763671875,0.13446166193783282,-0.09627426236271858,0.03556612486054655
1772019800024042500,0.80704248046875,0.11873276240825652,-0.09811024561822414,-0.007837237530876883
1772019800044008200,0.82700830078125,-0.12546411648988723,-0.10971183608472347,-0.023795392938796428
1772019800063974100,0.84697412109375,-0.34069092149138447,-0.05942541791498661,-0.043385703437146726
1772019800083939000,0.86693896484375,-0.1964846951305866,-0.1103419506818056,-0.0032733636814402415
1772019800103905300,0.8869052734375,-0.0925567031443119,-0.1241015959650278,-0.042335367833729834
1772019800123871000,0.90687109375,0.02126373730301857,-0.1785851735636592,-0.049116132281348104
1772019800143836200,0.926836181640625,-0.06330722778439521,-0.1748687833890319,-0.056744293638807716
1772019800163802000,0.946802001953125,-0.026223405537009237,-0.2183554584160447,-0.13547896748790517
1772019800183768000,0.96676806640625,0.14469196405112741,-0.2710048063248396,-0.1026898284934461
1772019800203733200,0.986733154296875,0.2180705039948225,-0.25585078407377004,-0.05175522578039672
1772019800223699200,1.00669921875,-0.07290916886627674,-0.163833302372694,-0.09320398807190358
1772019800243665200,1.0266650390625,0.10042436777949333,-0.1309726507782936,0.020760514188348313
1772019800263630000,1.046630126953125,0.11951719078421592,-0.08216565751135349,0.14192165908757595
1772019800283596000,1.066595947265625,-0.11531447839736937,-0.036972763088345524,0.046074038338824175
1772019800303562200,1.086562255859375,-0.15128186383545397,0.02259527816772461,0.04371509522171691
1772019800323527200,1.106527099609375,-0.11041267783045768,0.03737345284372568,0.03588151095265057
1772019800343493000,1.1264931640625,-0.04709259056448936,0.041244156797230244,0.044790204506786536
1772019800363458000,1.1464580078125,-0.030065467917919156,0.10857435648739337,0.13729370702598243
1772019800383424000,1.166424072265625,-0.14913082328140734,0.10524112041145563,0.10987110003335401
1772019800403390200,1.18639013671875,-0.14858604888021945,-0.055361821737885474,-0.0036988705009571273
1772019800423355100,1.206355224609375,-0.022953005564212797,-0.17209318119585512,-0.04194461495047435
1772019800443321300,1.2263212890625,0.25042262154519557,-0.20690876625031232,-0.03684786263362039
1772019800463287000,1.246287109375,0.25548691919744015,-0.23360066608190536,-0.0346700299707707
1772019800483252000,1.266251953125,0.19515490783154962,-0.15721856040805576,-0.05322893789503723
1772019800503218200,1.28621826171875,0.40696225977838035,-0.052398003496229646,0.018600226315343752
1772019800523184000,1.30618408203125,0.3885661868661642,-0.005960954231023788,0.0973523855887819
1772019800543149300,1.3261494140625,0.2343915241986513,0.06860504193156958,0.07444664409924298
1772019800563115000,1.346114990234375,-0.007461421921849251,0.05508446610122919,0.012239477378083393
1772019800583081200,1.366081298828125,0.03122399030327797,0.02560556589961052,-0.05239363784836605
1772019800603046100,1.386046142578125,0.027066286101937294,0.0259855051279068,0.023058000308647752
1772019800623012000,1.40601220703125,-0.08588321672976017,0.04060907376408577,0.07482965206746012
1772019800642978300,1.425978271484375,-0.10520809492468833,0.01984539493769407,0.18308109674341977
1772019800662943200,1.445943115234375,-0.26976912705004213,-0.03452800028473139,0.17637558948909862
1772019800682909200,1.4659091796875,-0.22378420546650885,-0.09482990877330302,0.1278971705893986
1772019800702874000,1.4858740234375,-0.014803601378202438,-0.13642711679190397,0.17798570983316747
1772019800722840000,1.505840087890625,0.026983868515491484,-0.1717392531916499,0.11840612426977604
1772019800742806300,1.52580615234375,-0.09794014974832534,-0.18779840758889912,0.02273191015943885
1772019800762771200,1.545771240234375,-0.11529343560934066,-0.12902911549508572,0.03831177487345412
1772019800782737200,1.565737060546875,-0.012390695017576217,-0.03516922079771757,0.11516560797858982
1772019800802703000,1.585703125,-0.044165889462828636,-0.0009752747729420662,0.09137730236770585
1772019800822668000,1.60566796875,-0.08569733876883984,0.016922200967371463,0.14749816231196744
1772019800842634200,1.62563427734375,-0.0661614481717348,0.07399754862487316,0.15643986765313891
1772019800862600200,1.64560009765625,0.0808802938759327,0.029693419735133647,0.08950721591319888
1772019800882565400,1.6655654296875,0.1198445230424404,-0.1873506638213992,-0.04325657433187589
1772019800902531000,1.685531005859375,-0.03483575105965137,-0.246913736641407,-0.06705446975501254
1772019800922497000,1.7054970703125,-0.13807634530365467,-0.2057601807370782,-0.11443521134480833
1772019800942462200,1.725462158203125,-0.1180932954609394,-0.1430748842433095,-0.07954685331508517
1772019800962428200,1.74542822265625,-0.002821487161517143,-0.06295826821625232,-0.08193188528809696
1772019800982393000,1.76539306640625,0.16033026268780232,0.020945757395029067,-0.034452743091434236
1772019801002359000,1.785359130859375,0.34829496675431726,0.06166267544776201,0.04851363634355366
1772019801022325000,1.805324951171875,0.4105927252352237,0.07788081979900598,0.10105291147399693
1772019801042290000,1.8252900390625,0.08464110771417617,0.1329769763380289,0.06385032168515026
1772019801062255900,1.845255859375,-0.038919805502891536,0.1756000202730298,0.11566131907366216
1772019801082222000,1.86522216796875,-0.06608896745741367,0.21549188567847014,0.19572397642377762
1772019801102187000,1.88518701171875,-0.137587100481987,0.22122136924117802,0.12349219536241143
1772019801122152700,1.905152587890625,-0.07040390804708004,0.07201894202828407,0.040724553369916976
1772019801142119000,1.925118896484375,0.047321138623356816,0.04270926091372967,0.06585950608309359
1772019801162083800,1.945083740234375,0.23127894513607022,0.06937164238989353,0.07523289910610764
1772019801182050000,1.965050048828125,0.1737941398948431,0.014416940148174762,0.026823928713425992
1772019801202015000,1.985014892578125,0.08449147011041641,-0.07706482724100351,-0.07680522645674645
1772019801221981000,2.00498095703125,0.0977764836192131,-0.08743599912971257,-0.10426825679130852
1772019801241947000,2.02494677734375,0.09365735786259174,-0.09861322670429945,-0.05519488593945279
1772019801261911800,2.044911865234375,0.0751326901346445,-0.06043284139186143,0.06720434482078999
1772019801281878000,2.0648779296875,0.08782733653485775,-0.09517389990538358,0.06939966290798037
1772019801301844000,2.084843994140625,-0.029316695377230643,-0.18644436263144015,0.060467035922408104
1772019801321809000,2.104808837890625,-0.11983809330165386,-0.10180910013616085,0.0836790029500611
1772019801341774800,2.12477490234375,-0.1949988404870033,-0.06668634882867336,0.08220111241722479
1772019801361739800,2.14473974609375,-0.1842418841511011,-0.13828005118221043,0.0795568815187551
1772019801381706000,2.1647060546875,-0.05329378329217434,-0.08275134844481945,0.10671522981831803
1772019801401672000,2.184671875,-0.010890811848640441,-0.07456804198920726,0.10217086438694968
1772019801421636900,2.204636962890625,-0.08231938676834107,-0.055418520361185074,0.0576782454540953
1772019801441603000,2.22460302734375,0.03795651342868805,-0.06420768375545739,0.04066805567601695
1772019801461568800,2.24456884765625,0.0748491970181465,-0.03164104667156935,0.013505195598118006
1772019801481534000,2.264533935546875,-0.020957447832822797,0.010602350296080112,-0.011021744751930237
1772019801501500000,2.2845,0.10227028790712356,-0.012518413050472736,0.04005960492147133
1772019801521465900,2.3044658203125,0.055877954566478726,-0.03980535616576671,0.05460008011776954
1772019801541431000,2.32443115234375,-0.07103928334116935,-0.07083002450466155,0.013166373831499368
1772019801561396700,2.344396728515625,-0.227398304310441,-0.08712064957022667,-0.03547198487026617
1772019801581362000,2.36436181640625,-0.11703180370926856,-0.049128188045322894,-0.051571763538848604
1772019801601327900,2.384327880859375,-0.05235094948410988,-0.05966536415070295,-0.013500172363128513
1772019801621293800,2.4042939453125,0.08209785297214985,-0.10470599062144756,-0.07190455840099602
1772019801641259000,2.424259033203125,0.12232991011738777,-0.13627835597097873,-0.05705647856025025
1772019801661225000,2.444224853515625,-0.10957622700631618,-0.08381050210893154,-0.10676084079202264
1772019801681191000,2.46419091796875,-0.09964461557865142,-0.04484159676730633,0.01854671516297385
1772019801701155800,2.48415576171875,-0.16760054595172405,-0.0005538344904780387,0.07390101118152961
1772019801721121800,2.504121826171875,-0.0634597879976034,-0.12996551956236363,-0.012619444005843252
1772019801741087000,2.5240869140625,0.03150339176654816,-0.1998418966040015,-0.0250947485669516
1772019801761053000,2.544052978515625,-0.01379705468416214,-0.11636135710179805,0.005429934360552579
1772019801781019000,2.564018798828125,-0.04491933817863464,-0.08507716104388237,-0.029507176448032257
1772019801800983800,2.58398388671875,-0.0208528184145689,-0.08778291287124157,-0.012949845003988592
1772019801820949800,2.60394970703125,0.028009119910001753,-0.03930237507969141,-0.011753767087217419
1772019801840916000,2.623916015625,0.09258943637013435,-0.01883037267625332,-0.01414681796990335
1772019801860881000,2.643880859375,0.1125379994213581,-0.07598550757169723,-0.026312764320895073
1772019801880847000,2.66384716796875,-0.048777767172455785,-0.12012684711515903,-0.09942006784146651
1772019801900812000,2.68381201171875,-0.060728317207098,-0.12651479458659887,-0.0677502699994482
1772019801920777700,2.70377783203125,0.04379121093153953,-0.08834551519006491,-0.02633656532159075
1772019801940744000,2.723743896484375,0.015334931775927542,-0.11150281115472316,0.05023107125330716
1772019801960708900,2.743708984375,-0.03813011642992496,-0.029134909069538115,0.015340320337098092
1772019801980675000,2.763675048828125,0.11281097114384174,-0.04355418730527162,0.09228718375423922
1772019802000640800,2.783640869140625,0.11653612914681434,-0.08642302269488572,0.020991368368733672
1772019802020605700,2.803605712890625,0.04060848924219608,-0.04606587786525487,-0.00945515302233398
1772019802040572400,2.823572509765625,-0.001713233658671379,0.015056991617381572,0.06516783402450382
1772019802060537300,2.843537353515625,-0.06863865194022654,0.06633446665108203,0.13732881487198173
1772019802080503600,2.863503662109375,-0.15632394965589044,0.01637245813012123,0.12139644692586735
1772019802100469200,2.88346923828125,-0.18651275169253348,-0.03410831356793642,0.12753568033324553
1772019802120434200,2.90343408203125,-0.031253800919651985,-0.04268675682097673,0.17648695917539298
1772019802140400400,2.923400390625,-0.009319617009162902,-0.04185848930329084,0.15808946149107067
1772019802160366300,2.943366455078125,0.06662848116159438,-0.1154684999153018,0.10411947770407423
1772019802180331500,2.96333154296875,0.0292401230096817,-0.13362608789652586,0.07323830948909744
1772019802200297500,2.98329736328125,-0.0702969405412674,-0.08544833244383335,0.07009445850541815
1772019802220262400,3.003262451171875,0.01170563536286354,-0.11278174504935741,-0.007510375630110502
1772019802240228400,3.023228271484375,-0.0106225163012743,-0.14208762677162884,-0.01743243377814069
1772019802260194300,3.0431943359375,-0.05629822580516338,-0.15545038169175385,-0.0011400368805974722
1772019802280159500,3.063159423828125,0.011032266145944594,-0.09924012643098831,0.06686161406403407
1772019802300125400,3.08312548828125,-0.07706862663328647,-0.047262686434388156,0.05116321927057579
1772019802320091400,3.10309130859375,-0.15332359879612922,0.01983370449990034,-0.004166271100286394
1772019802340056300,3.123056396484375,0.08896540065407753,-0.037523090447485447,0.0547470143077895
1772019802360022300,3.143022216796875,0.1171042844235897,-0.0177136436060071,0.06682988548520952
1772019802379987500,3.162987548828125,0.1276361998319626,0.02086100172102451,0.07440212910408153
1772019802399953400,3.182953369140625,0.05805939025878906,-0.006351999375224113,0.03398421226423234
1772019802419919600,3.202919677734375,0.00901858823597431,-0.057499710549414156,-0.07857567019537091
1772019802439884500,3.222884521484375,0.0696083737552166,-0.009006605537235736,0.04511093349428847
1772019802459850200,3.242850341796875,0.02069207489490509,0.14814970328956842,0.17274523363010957
1772019802479815400,3.2628154296875,0.025668109741806982,0.10610212115496397,0.16025511509235948
1772019802499781400,3.282781494140625,-0.04617196858823299,0.024536475363373753,0.08078414002507925
1772019802519747600,3.30274755859375,0.008795300874114035,-0.012721242146193981,0.05068758284915238
1772019802539712500,3.32271240234375,0.06364274334907531,-0.017207155388593673,0.061818742792308326
1772019802559678200,3.34267822265625,-0.022597616255283354,-0.051611237032711504,-0.01389980267258361
1772019802579644400,3.36264453125,-0.02119651728570461,-0.1238707098186016,-0.052949353768676516
1772019802599609300,3.382609375,-0.05915303071439266,-0.10669073469787835,-0.0319965455783531
1772019802619575600,3.402575439453125,-0.07213584640622138,-0.042264732016623015,-0.022543602779414505
1772019802639540500,3.42254052734375,0.02954816604554653,-0.046420098130404944,-0.012212653303239495
1772019802659506400,3.44250634765625,0.13923136055767535,-0.046077860563993454,-0.030875706588570025
1772019802679472400,3.462472412109375,0.10342413411736488,-0.08091331936269998,-0.07782761004073545
1772019802699437300,3.482437255859375,-0.004759761747717857,-0.07447539526969194,-0.09018496904429048
1772019802719403500,3.502403564453125,-0.059691375374794006,-0.06808131031841039,-0.0856455172500573
1772019802739368400,3.522368408203125,-0.15424071364104747,-0.06167085875421762,-0.09080397772546857
1772019802759334400,3.54233447265625,-0.167462598785758,-0.05253507387936115,-0.03584571355348453
1772019802779300400,3.56230029296875,-0.08552724289894104,-0.023138299003243445,0.028321218066476285
1772019802799265300,3.582265380859375,0.12463701801598072,-0.018785072229802607,0.10916209324747324
1772019802819231500,3.6022314453125,0.20223405243754386,-0.050154316222667694,0.06188999966392293
1772019802839196400,3.622196533203125,0.17651508929133414,-0.05469692808836698,0.0644584984450601
1772019802859162400,3.642162353515625,-0.017388357174396515,-0.011358721621334552,0.06178018261389807
1772019802879128600,3.662128662109375,-0.15071195499300954,-0.00027618659287691113,0.09613792263194917
1772019802899093500,3.682093505859375,-0.12776888630092142,0.0112476624622941,0.12481871299212798
1772019802919059200,3.70205908203125,-0.060760465911030764,-0.03118804220706224,0.055529999645333734
1772019802939024400,3.7220244140625,-0.028106150543689725,-0.04019377096146345,0.01990985674234107
1772019802958990300,3.741990234375,0.008655600142478943,-0.027418752801418304,0.03545580092044547
1772019802978956500,3.76195654296875,0.10069909306764602,0.01017243444621563,0.03823346720654517
1772019802998921500,3.78192138671875,0.18563830694556235,-0.04419862268865108,-0.007866769586037844
1772019803018887200,3.80188720703125,0.0036363106757402418,-0.10144348169416188,-0.07546908248215914
1772019803038853000,3.82185302734375,0.027454993158578873,-0.04510930779278278,0.013554861692432313
1772019803058818000,3.841818115234375,0.026374212184548378,0.01743424214273691,0.06138407770209014
1772019803078784000,3.861783935546875,0.012682371440529822,-0.05026800573021173,0.02043784440550953
1772019803098749200,3.881749267578125,-0.016058569875359533,-0.08972615589350462,0.007069152934942394
1772019803118715100,3.901715087890625,-0.059793082183599466,-0.07242167761027812,0.009690002957824618
1772019803138681000,3.92168115234375,0.0015507365733385084,-0.05785831472873688,0.020316848374344408
1772019803158646000,3.94164599609375,0.056815527677536004,-0.10242547846883535,-0.023914197012875227
1772019803178612000,3.961612060546875,-0.03534603866934776,-0.12168576699495315,0.018343685137853026
1772019803198577200,3.9815771484375,0.020055530557036398,-0.059518649156391615,0.04864073332194239
1772019803218543000,4.001543212890625,0.07770400192737578,-0.06572101092785597,0.01859915773626417
1772019803238509000,4.021509033203125,0.05010872351527214,-0.09313947146832942,0.045537123017106204
1772019803258474000,4.041473876953125,-0.09825228443741797,0.020537176594138146,0.010887889239192008
1772019803278440000,4.06143994140625,0.0868231279283762,0.011578794112801551,0.11246528124501928
1772019803298405000,4.081405029296875,0.12833061183691025,0.04886807580441236,0.17911478692833332
1772019803318371000,4.10137109375,0.05232172338962555,0.007174713934957981,0.10128617224059998
1772019803338337000,4.1213369140625,-0.13998188666403294,-0.057064826263487335,0.0020832908137701452
1772019803358302200,4.14130224609375,-0.1780588116019964,-0.11899170560538769,0.04031536978082731
1772019803378268000,4.161267822265625,-0.21835925780832766,-0.15441577794700861,0.047021918214764445
1772019803398233000,4.181233154296875,-0.15407178681492806,-0.13722557369321584,0.09217617939412594
1772019803418199000,4.201198974609375,-0.08541209208667278,-0.0991571243226528,0.05643718675128184
1772019803438165000,4.2211650390625,-0.10189268676638602,-0.12546820814311505,-0.014110595879051833
1772019803458130200,4.241130126953125,-0.14688099852800368,-0.053342590869963166,-0.0695956238714978
1772019803478096100,4.26109619140625,0.05066986452937126,0.02085194163173437,-0.0039029074563644824
1772019803498061000,4.28106103515625,0.016481179201602934,0.07263678166568278,-0.006639584144949913
1772019803518027000,4.301027099609375,0.06749298903644084,0.01137888762652874,-0.019745642623957244
1772019803537993000,4.320992919921875,0.15749240891337393,0.008670505450665951,-0.024774156576767563
1772019803557958100,4.340958251953125,0.09944529361426829,0.015410919621586798,-0.010286270084232092
1772019803577924000,4.360924072265625,0.08609130652248859,0.006405483128130436,0.03312819822309539
1772019803597889000,4.380888916015625,0.011109423035383224,0.004274316318333149,0.04913991501573473
1772019803617855000,4.40085498046875,-0.013555062621831893,0.021442893262207507,0.07822685675770044
1772019803637821000,4.420821044921875,-0.12009060675799846,0.08205693643987179,0.15944396310625597
1772019803657786000,4.4407861328125,-0.14045301130712032,0.09103051649034023,0.16336290838196874
1772019803677752000,4.460751953125,-0.04247019146084785,-0.019963468359410763,0.15510748653821646
1772019803697717000,4.480717041015625,0.08643851252496242,-0.10888415308892727,0.036877449487708505
1772019803717683200,4.50068310546875,0.03480184879004955,-0.18704671243876217,-0.06992153135761618
1772019803737649000,4.52064892578125,-0.04327566262483597,-0.19357552968561648,-0.0778380949021317
1772019803757614000,4.540614013671875,-0.07867255469858646,-0.1040028107881546,-0.019375695066712797
1772019803777580000,4.560580078125,-0.06620002661645412,-0.06063625500947237,0.0023826208202168343
1772019803797545000,4.580544921875,-0.17041151171922683,-0.06730009681284427,-0.02596844439525157
1772019803817511200,4.60051123046875,-0.07886544692218303,0.012542086187005043,0.05899678070675581
1772019803837476900,4.620476806640625,0.19247136783599852,0.035056992594897744,0.10977295515481382
1772019803857442000,4.640442138671875,0.23431144469976423,-0.019852409200370312,0.08493649219786747
1772019803877408000,4.660407958984375,-0.09740998839437962,-0.04317337129414081,-0.03176891083493828
1772019803897373000,4.680373046875,0.00580839401781559,-0.028105858282744884,0.01590705084176734
1772019803917339100,4.700339111328125,0.16727379821538924,0.022489479705691335,0.0786221762182191
1772019803937304000,4.720303955078125,0.0834767401099205,0.09782353763133286,0.07858454762157052
1772019803957270300,4.740270263671875,0.07602525506019592,0.17306348753273487,0.08602655245689675
1772019803977236000,4.760236083984375,0.11621288854181766,0.14868804794996976,0.10764938712958246
1772019803997201000,4.780200927734375,0.09234159908890724,0.03394698552638292,0.025425240896642207
1772019804017167000,4.8001669921875,-0.03148702515363693,-0.023347265578806398,0.0002622311327606439
1772019804037132500,4.820132568359375,-0.03252747411727905,-0.0014645195946097374,0.009998082526307553
1772019804057098800,4.8400986328125,-0.01987374424934387,-0.10624679032266139,0.032571587253641336
1772019804077064400,4.860064453125,-0.1326028823286295,-0.16037585539519786,-0.02683312580003403
1772019804097029400,4.880029296875,-0.010350713622570036,-0.15921148779094219,-0.056050589453335846
1772019804116995600,4.89999560546875,0.12713935622572897,-0.18216741596460342,-0.06147653262536041
1772019804136960500,4.91996044921875,-0.036734862679243085,-0.19337620772123335,-0.02403411533180624
1772019804156926700,4.9399267578125,-0.121544312697649,-0.12856646641939878,-0.03250537188332528
1772019804176892400,4.959892333984375,-0.06618249095976353,-0.13328501937389373,-0.005549624350620433
1772019804196857300,4.979857421875,-0.036413375639915466,-0.1142871811762452,-0.025970042697293683
1772019804216823600,4.999823486328125,-0.1168733982771635,-0.11828268055319785,-0.009446275596134365
1772019804236788500,5.01978857421875,-0.07194236966073513,-0.026239772149920463,0.027081200543278828
1772019804256754700,5.039754638671875,0.05855389577746391,0.004059796784818172,0.01702868441599421
1772019804276719600,5.0597197265625,0.16390578308701514,0.00006605097353458404,-0.04392752326284535
1772019804296685600,5.079685546875,0.27472353458702564,-0.05241553915292024,0.015348841570271178
1772019804316651500,5.099651611328125,0.12327508201301098,0.04779810848534107,0.08212426605504006
1772019804336616400,5.119616455078125,0.11735036813914775,0.08700579101890325,0.06938997263102792
1772019804356582400,5.13958251953125,-0.04340834909379482,-0.054690206086635586,0.04177757868734188
1772019804376547600,5.159547607421875,-0.14176643199324607,-0.02037701759636402,0.07484663973487914
1772019804396513500,5.179513427734375,-0.01145429095029831,0.0319958514586091,0.11472360896528698
1772019804416479500,5.1994794921875,0.0823392605125904,-0.06545563798993825,0.17644275470748544
1772019804436444400,5.2194443359375,-0.016151508855819702,-0.037139351826906204,0.035869213160080834
1772019804456410400,5.239410400390625,-0.15843232011198996,-0.0029550504133105276,-0.043523938297480344
1772019804476375600,5.25937548828125,-0.025166005438566206,-0.09657470661401749,0.024075004464620724
1772019804496341500,5.279341552734375,-0.005985504150390624,-0.07675678420513868,0.026951719811558722
1772019804516306400,5.299306396484375,-0.06603343787789344,-0.057575113873183724,0.011636707445653155
1772019804536270600,5.3192705078125,-0.03671849606633186,-0.01140197624117136,0.04705981167289428
1772019804556236500,5.339236572265625,0.12336392934024333,-0.03147504245489836,0.06145936229485087
1772019804576202800,5.35920263671875,0.0320201091170311,-0.04935673610419035,0.04746585345682688
1772019804596167700,5.379167724609375,-0.07096446453928947,-0.03577449321448803,-0.004926432684669271
1772019804616133400,5.39913330078125,-0.017446809363365172,-0.032540625859797,0.012574033961538224
1772019804636098600,5.4190986328125,0.05859305874407291,-0.07681143700182437,0.029956664648046714
1772019804656064500,5.439064453125,0.0766921945363283,-0.057172086030244824,0.028670689091272652
1772019804676029400,5.459029541015625,0.05211304907500743,-0.09656447748094797,0.03459256255407817
1772019804695995600,5.47899560546875,-0.0841302355825901,-0.09936609089821577,0.06962539795525371
1772019804715961300,5.49896142578125,-0.08609773626327515,-0.04537964916676283,0.07484892302351072
1772019804735926500,5.518926513671875,-0.10554302596747875,-0.001287117201089859,0.07778297631456516
1772019804755892500,5.538892578125,-0.0413309582978487,0.0058937342137098305,0.08347431069081648
1772019804775857400,5.558857421875,-0.06536825196743011,0.013401917886734008,0.07529549774723127
1772019804795823600,5.57882373046875,0.11419102732539177,0.030540099692344665,0.07898405006686225
1772019804815788500,5.59878857421875,0.1701478923469782,0.024902386066317558,0.06171897221226245
1772019804835754800,5.618754638671875,0.05515665455460548,0.0262859493792057,0.04415642751473933
1772019804855720400,5.638720458984375,0.0832154588252306,0.000870060832798481,0.012036429086653515
1772019804875685400,5.658685302734375,0.040776831546425814,-0.03869096518307924,0.054282072810316453
1772019804895651600,5.678651611328125,-0.1436596983939409,-0.07088789217174053,-0.04177000730223954
1772019804915616500,5.698616455078125,-0.1906383071899414,-0.1474859786838293,-0.04475537065542303
1772019804935582700,5.718582763671875,-0.0214671509206295,-0.05936638120412826,0.0410177276302129
1772019804955548400,5.73854833984375,0.0293359845995903,0.006058861647546291,0.04665205285591073
1772019804975513300,5.758513427734375,0.029697803649306295,-0.013402794669568539,0.018480225798022002
1772019804995479600,5.7784794921875,0.015740005445480345,-0.06397124465107917,-0.0309892682319507
1772019805015444500,5.798444580078125,0.0357668944299221,-0.049587037728726864,0.004023976552765816
1772019805035411000,5.818410888671875,-0.08666706058382988,0.008857552455365658,0.0074122764173429456
1772019805055376000,5.8383759765625,-0.08549275610744952,0.00812017809152603,0.08691612170776351
1772019805075341800,5.858341796875,-0.06309387729465961,0.03509995495378971,0.089939780377876
1772019805095307800,5.878307861328125,-0.01087386071383953,-0.00988309611082077,0.048646852535475044
1772019805115272700,5.898272705078125,0.05431786564290523,-0.06018938802480697,-0.024610600045509634
1772019805135239000,5.918239013671875,0.10524375075995922,-0.08829641535133123,-0.02924896390326321
1772019805155203800,5.938203857421875,0.10850538290441035,-0.031498715591430665,-0.00779568624435924
1772019805175169800,5.958169677734375,0.09241466432511806,-0.048989364096522325,-0.008364727437123656
1772019805195135000,5.978135009765625,-0.09852525615990161,-0.05659954683929681,-0.042855208723060784
1772019805215100700,5.9981005859375,-0.10595160676836966,-0.021157062058150766,-0.026820987837668505
1772019805235067000,6.01806689453125,0.08698270240426063,0.006047755731642246,0.0516070083821658
1772019805255031800,6.03803173828125,0.048538113197684286,-0.08131926981508732,0.029131758131226523
1772019805274997800,6.057997802734375,-0.03484802601933479,-0.13195406303107737,-0.09024909292222
1772019805294963000,6.077962890625,0.03814882113039493,-0.126660048276186,-0.02673496265518479
1772019805314929000,6.097928955078125,0.035918285599350924,-0.11986936522275209,0.0019265613155206665
1772019805334893800,6.117893798828125,-0.05541501322984695,-0.06850158155709504,0.025956100936909206
1772019805354859800,6.13785986328125,-0.06470774223208427,-0.057951545970141884,0.018521375225740485
1772019805374825700,6.15782568359375,0.11494973673820495,-0.07152911268472671,0.08569268086003139
1772019805394791000,6.177791015625,0.008918634992837906,-0.06551993539780378,0.0443717416326981
1772019805414756900,6.1977568359375,-0.05653495717048645,-0.054946811196208,0.07344122991636395
1772019805434721800,6.2177216796875,-0.07282207510471343,-0.014248597843945025,0.04939241477234754
1772019805454687700,6.237687744140625,0.09280921660065651,0.001692190870642662,0.0451811583194416
1772019805474652700,6.257652587890625,0.1492541574001312,0.0092892218708992,-0.03123487245689612
1772019805494619000,6.277618896484375,0.22862404671311376,-0.001047170965373516,-0.028780328044784254
1772019805514584800,6.297584716796875,0.18567396278083323,0.01814268267303705,-0.042902107471553604
1772019805534549800,6.3175498046875,0.10561258407235145,0.04716945519298315,-0.021997488087799864
1772019805554515700,6.337515625,-0.02039572229683399,0.04654430903196335,-0.0912864183470141
1772019805574481000,6.35748095703125,-0.23814473925232885,-0.011109715296328067,-0.027214380202582104
1772019805594446800,6.37744677734375,-0.23560382259786128,0.001625263114273548,0.02517647203365341
1772019805614411800,6.397411865234375,-0.0678916329652071,-0.044692543685436244,0.05346918552485294
1772019805634377700,6.417377685546875,0.05669979234337806,-0.11015051976293325,0.0017346845845429924
1772019805654344000,6.437343994140625,0.07005728656649589,-0.18621552231162786,0.05674648102931678
1772019805674308900,6.457308837890625,-0.021387655943632126,-0.13730331510454416,0.04118433463508263
1772019805694274800,6.47727490234375,-0.02771218279004097,-0.1435237970545888,-0.011161019650235538
1772019805714239700,6.49723974609375,-0.03816811035275459,-0.21538871756494044,-0.017731320826592855
1772019805734205700,6.517205810546875,-0.16221709934771059,-0.13113894725590944,0.007544305299175903
1772019805754171000,6.5371708984375,-0.1951344495654106,-0.03598433657288551,0.07891039117560722
1772019805774136800,6.55713671875,-0.03606675415933132,0.0022387188374996185,0.06996989141083322
1772019805794101800,6.577101806640625,0.02871989852786064,-0.04685644372105598,0.061255555951595306
1772019805814068000,6.59706787109375,0.08959609977304935,-0.058065235477685925,-0.025431608988635706
1772019805834033700,6.61703369140625,0.12743337073624134,-0.009092822515964508,0.05736699668099172
1772019805853998800,6.636998779296875,0.10256547146141529,0.010041793803870677,0.05926121749633457
1772019805873964800,6.65696484375,0.1393552791982889,0.00933364553451538,0.027593986070738173
1772019805893929700,6.6769296875,0.14067162249386309,0.004525368469953537,0.10654070436847396
1772019805913896000,6.69689599609375,0.04778407995998859,0.0025116905599832534,0.14847773880069143
1772019805933860900,6.71686083984375,-0.07012158397436141,-0.05888911908119917,0.1015848537930753
1772019805953826800,6.736826904296875,-0.08789806368350982,-0.0942538624510169,0.043958854549448007
1772019805973792800,6.756792724609375,-0.05710661957859993,-0.03044014644920826,0.1105233807964716
1772019805993757700,6.7767578125,-0.06360241133868694,0.003064648267626762,0.09222685926859267
1772019806013724000,6.796723876953125,-0.03529576978683471,-0.04863982000648975,0.09162499351846054
1772019806033688800,6.816688720703125,-0.042054011875391005,-0.09192103558927774,0.01581588825986255
1772019806053654300,6.836654296875,0.017627426627278328,-0.07541209159791469,0.004452170803002082
1772019806073619200,6.856619140625,0.0537269140124321,-0.055823886291682716,0.037866170547401996
1772019806093585200,6.876585205078125,0.0721878688544035,-0.03801671918332577,0.008039538616102073
1772019806113550000,6.896550048828125,0.04271452161073684,-0.009922843599319458,0.032833727054856716
1772019806133516000,6.91651611328125,0.11225392178297042,-0.04460661896765232,0.0017618365967166027
1772019806153482200,6.936482177734375,0.051021162185072896,-0.07816606648117304,0.0032742495974292978
1772019806173447200,6.956447265625,-0.013327099084854126,-0.03605331015586853,0.03921466939677484
1772019806193413400,6.976413330078125,-0.03335164998173713,-0.039494682781398296,0.04591357338037341
1772019806213378300,6.99637841796875,-0.10203355654180049,-0.06223959855288267,0.026187126363941934
1772019806233344000,7.016343994140625,-0.13781155688762664,-0.04894669399857521,0.05543386862736661
1772019806253309200,7.03630908203125,-0.03014730098247528,-0.010104922167956828,0.12757975693698972
1772019806273275100,7.056275146484375,0.03374269512593746,-0.030258652402460572,0.10059088345281779
1772019806293240000,7.076239990234375,0.008870704197883605,-0.049451428650319575,0.011521909401478478
1772019806313206300,7.096206298828125,-0.04425473679006099,-0.04861147069483995,-0.018668690724961925
1772019806333172000,7.116171875,-0.012412906849384307,-0.011368073971569538,-0.012207451971736736
1772019806353137200,7.13613720703125,-0.03514437861740589,0.12477905683517455,0.06322972383508459
1772019806373103000,7.15610302734375,0.0879641146570444,0.020870061810314654,0.07001535625406541
1772019806393068000,7.176068115234375,0.059281625530123706,0.02217296110242605,-0.005521373220381792
1772019806413034200,7.1960341796875,-0.029562779092788694,0.03939706762582063,0.03117782905701315
1772019806432999200,7.215999267578125,-0.08322013500034808,0.027292496073246,0.029023537099955136
1772019806452965400,7.23596533203125,-0.10174655629396438,-0.05222440049499273,0.0004084027043776586
1772019806472930300,7.255930419921875,-0.054845688909292215,-0.08537877433896064,-0.013946886367455589
1772019806492896000,7.27589599609375,0.08822948759496212,-0.07409136438816785,0.026742084232426713
1772019806512862200,7.2958623046875,0.05615910959541797,-0.1068131920337677,0.04110764810310211
1772019806532827100,7.3158271484375,-0.07059329313933849,-0.11400398032069206,-0.01164475946301245
1772019806552793000,7.33579296875,-0.11023849030733107,-0.14784136799275874,-0.02637388795756269
1772019806572758300,7.35575830078125,-0.1118763206422329,-0.09725888948589563,0.009504715227015549
1772019806592724000,7.375723876953125,-0.058331777459383005,-0.02951251021027565,0.07831043425477109
1772019806612689200,7.395689208984375,-0.004472761499881744,0.01985416276603937,0.06270261752132791
1772019806632655000,7.415655029296875,0.017833178332448005,-0.031016485032439232,-0.015251366836944362
1772019806652620000,7.4356201171875,0.16720424011051654,-0.046051264818012715,-0.025820859467971604
1772019806672586200,7.455586181640625,0.19819968235492705,-0.036516543753445145,-0.07200591358335223
1772019806692552200,7.47555224609375,0.13909692052304745,-0.02319178275614977,-0.07192921791821717
1772019806712517400,7.495517333984375,0.14085165523588655,0.030996611288189885,-0.04780733297141269
1772019806732483000,7.515483154296875,0.12132453246712684,0.04025865289121866,0.01039880653101718
1772019806752448000,7.535447998046875,0.05381108516454696,0.035760756950080394,-0.045649396885698655
1772019806772414200,7.555414306640625,-0.06207739372849464,-0.061082829733192914,-0.022968011337099595
1772019806792379100,7.575379150390625,-0.15512158812880514,-0.06907938144505024,-0.012612315578735434
1772019806812345000,7.595344970703125,-0.20000877760350702,-0.03742547529190778,0.021314494809298774
1772019806832310300,7.615310302734375,-0.1970955205053091,-0.061675827190279954,0.07598202783982269
1772019806852276000,7.63527587890625,-0.15788637666702268,-0.07314677701443434,0.08225499802893027
1772019806872241200,7.6552412109375,0.0057435120880603785,-0.04752104510962963,0.10121058625373988
1772019806892207000,7.67520703125,0.00917290201485157,-0.11318974132835864,0.051279219466215
1772019806912173000,7.695173095703125,-0.009277531433105468,-0.16546674879342316,0.0002347540373681113
1772019806932138200,7.71513818359375,-0.05696750336885452,-0.10537234557569027,0.08588162756087257
1772019806952104200,7.735104248046875,-0.09597849428653717,-0.10840689096599816,0.08563147045839578
1772019806972069400,7.7550693359375,-0.192798700094223,-0.07512830622047185,0.047157312664040364
1772019806992035000,7.77503515625,-0.10584697735011576,-0.026769056721031664,0.17311284309979527
1772019807012000000,7.795,-0.10181143822371959,0.06397650534808635,0.14013271157788112
1772019807031966200,7.81496630859375,-0.08081716551184653,-0.023172201272845267,0.0395049256141996
1772019807051931600,7.834931640625,-0.11800035648047923,-0.06516250026226043,-0.06826525205057114
1772019807071897600,7.854897705078125,-0.07962766346633433,0.02620236274898052,-0.07720808990290388
1772019807091862500,7.874862548828125,0.18177929342985152,0.031105624620616435,0.011696483942028135
1772019807111828500,7.894828369140625,0.20541969673633576,-0.008625497265160082,-0.0037795048389816653
1772019807131794400,7.91479443359375,0.12259937470853328,-0.030469372543692586,-0.07393338364774826
1772019807151759600,7.934759521484375,0.20408172613084316,-0.07990531136393547,-0.06883055321655701
1772019807171725600,7.9547255859375,0.19258710317015645,-0.09340893605947494,-0.09375464422460644
1772019807191690500,7.9746904296875,0.07620411875844,-0.07499854236096143,-0.03994212515479885
1772019807211656400,7.994656494140625,0.04937573306560516,-0.00046703298985958095,0.053436708027357234
1772019807231621400,8.014621337890626,-0.0696954675167799,0.044968145756423474,0.036443757078447374
1772019807251587600,8.034587646484376,-0.09706921213269233,0.04992781399041414,0.025086916886945254
1772019807271552500,8.054552490234375,-0.036219898894429205,-0.004120294800400734,0.05240779880445916
1772019807291518500,8.0745185546875,0.08600713537037372,-0.02911766567379236,0.03878131948080845
1772019807311483600,8.094483642578124,0.15919102952480316,-0.05283844074010849,0.025251583096478132
1772019807331449600,8.11444970703125,0.07350713475942611,-0.05583937612175941,0.013597426759102381
1772019807351414500,8.13441455078125,-0.043082185879349706,-0.07678425673395395,-0.07142108573298901
1772019807371380500,8.15438037109375,0.03294716083407402,-0.04914338561445474,0.006633318800944835
1772019807391346400,8.174346435546875,0.12035305708646774,-0.023686288274824618,0.03267691992479376
1772019807411311600,8.1943115234375,0.07136953820884227,-0.07444821500182151,-0.04503634302127175
1772019807431277600,8.214277587890624,0.0724357061356306,-0.1442111947968602,-0.051286462057754396
1772019807451242500,8.234242431640626,0.13795418022871017,-0.15723346571624278,0.056906366032455115
1772019807471208400,8.25420849609375,0.013474398601055145,-0.0985062591984868,0.04376340047600679
1772019807491173600,8.274173583984375,-0.05837737016677856,-0.016279811410605905,0.02876770145865157
1772019807511139600,8.2941396484375,-0.03053717708289623,0.028224223965406418,0.0897351977164857
1772019807531104500,8.3141044921875,-0.05888415064513683,0.11271160242259502,0.10335078575336373
1772019807551070500,8.334070556640626,-0.07436638193726539,0.032006665113568304,-0.0029551508780103174
1772019807571035600,8.35403564453125,0.06310615225434303,-0.033872458985447884,-0.018412101598409936
1772019807591001600,8.374001708984375,0.20903379558026788,-0.060956280744075775,0.024930981973139567
1772019807610966500,8.393966552734375,0.12485036850571632,-0.02354366493374109,0.09147489012381993
1772019807630932500,8.413932373046874,-0.042839024773240086,0.054988019989430904,0.1176899205581285
1772019807650898400,8.4338984375,-0.07499708105623722,0.03377688965648413,0.08988937449804507
1772019807670863600,8.453863525390625,-0.08758768256008624,-0.011111468861997128,0.10204804172487929
1772019807690829600,8.47382958984375,-0.058204351687431335,-0.04106383179426193,0.08814503331505694
1772019807710794500,8.49379443359375,-0.06463818412721156,-0.096702424646914,-0.007671119149774312
1772019807730760400,8.513760498046874,-0.011442600512504578,-0.0926613325625658,-0.02379616925693117
1772019807750725600,8.5337255859375,0.09343874667584895,-0.07042845796644687,0.011140366162918507
1772019807770691600,8.553691650390626,0.21306991922855376,-0.10926818397045135,-0.02375662269783206
1772019807790656500,8.573656494140625,0.05524024118483066,-0.14671908596456051,-0.043214689685218036
1772019807810622500,8.59362255859375,-0.05138473480045795,-0.14735358447581529,-0.060708206000830975
1772019807830587600,8.613587646484374,-0.07863339173197746,-0.10263298373967408,-0.015776127071632073
1772019807850553600,8.6335537109375,-0.18323358389139174,-0.0656868163973093,0.0015856343567837029
1772019807870518500,8.6535185546875,-0.2467436407715082,-0.03754734810590744,0.05336787144169211
1772019807890484500,8.673484375,-0.08639116625189781,-0.016748597966134548,0.08355765072586946
1772019807910449400,8.693449462890625,0.07282441319227219,0.0027495909690856933,0.06719274571454152
1772019807930415600,8.71341552734375,0.14772621718049048,-0.07534077992737293,0.06412103751846589
1772019807950380500,8.733380615234376,0.027815643164515493,-0.048346974539756775,0.03426685599735938
1772019807970346500,8.753346435546876,0.06362696125805378,-0.04605301838368177,0.060753305517882106
1772019807990312700,8.773312744140625,-0.03170563634037971,-0.016812603113055227,0.02698680939124897
1772019808010277600,8.793277587890625,-0.027591186758875844,0.014066519275307655,0.03802587060416117
1772019808030243600,8.81324365234375,-0.023970073652267453,0.051501639178395266,0.06854188616801984
1772019808050208500,8.83320849609375,0.10005845707654952,0.011148586001992224,0.12876272877701558
1772019808070174500,8.853174560546876,-0.001202361527085304,0.005996317805349826,0.07672865408919752
1772019808090139600,8.8731396484375,-0.05265548538863658,-0.021175766758620738,0.0041293183570727705
1772019808110105600,8.893105712890625,-0.07652385223209858,-0.030490707592666148,0.028341621533688157
1772019808130070500,8.913070556640625,-0.05419102439284324,-0.006786299139261246,0.042399573910050094
1772019808150036500,8.933036376953124,-0.02398819383084774,-0.02169073054343462,-0.019301880911830813
1772019808170001400,8.95300146484375,0.09123977532684803,-0.09866846402287482,-0.017104681394807992
1772019808189967600,8.972967529296875,0.055768064451217646,-0.10688245787769556,-0.026396752809919415
1772019808209932500,8.9929326171875,0.02722586057782173,-0.13015198204517364,-0.0940168753573671
1772019808229898500,9.0128984375,0.046771688047051424,-0.11845686807632445,-0.02382847322449088
1772019808249863700,9.03286376953125,0.012802198427915572,-0.06735124247819185,0.016263116004131734
1772019808269829600,9.05282958984375,-0.057229953697323796,-0.005457680884003639,0.02492931973901577
1772019808289794600,9.072794677734375,-0.059921676999330514,-0.041509237474203105,0.0480727424419485
1772019808309760500,9.092760498046875,-0.07040624613463878,-0.04819558337032795,0.06434666296788491
1772019808329725400,9.112725341796875,-0.049804187610745426,-0.025764555853605268,0.0635385249227751
1772019808349691600,9.132691650390624,-0.07098784541487693,-0.002141688203811645,0.02525048711793497
1772019808369656600,9.152656494140626,0.02768821739256382,-0.04470949482023716,0.034785829237010325
1772019808389622500,9.17262255859375,0.10584463926255702,0.025646190170943734,0.14125356883397325
1772019808409588500,9.19258837890625,0.015410335099697112,0.08000760269463061,0.1334040974426083
1772019808429553400,9.212553466796875,0.04134031064808368,0.02422024902105331,0.027442992193531243
1772019808449519600,9.23251953125,0.013376783445477484,0.00949964975118637,0.03417980790156871
1772019808469484500,9.252484619140626,-0.07976385706663132,0.04136632187217474,0.030725959386955944
1772019808489450500,9.272450439453126,0.013106149810552596,0.007386310859024524,0.03940353389922529
1772019808509415700,9.292415771484375,0.07417991945445537,0.0053171033695340155,-0.033862878306349736
1772019808529381600,9.312381591796875,0.13987959533333777,-0.011213175670802593,-0.0894619611325208
1772019808549346600,9.3323466796875,0.12457505869567394,-0.02035743611305952,-0.07771325381291098
1772019808569312500,9.3523125,0.0034060090512037277,0.037275253166258335,-0.0405423012713436
1772019808589277400,9.37227734375,0.02172200246453285,0.057172086030244824,-0.005510388318775221
1772019808609243600,9.39224365234375,-0.044081718310713766,0.01036678797453642,-0.017014171833451837
1772019808629208600,9.41220849609375,-0.01128653316795826,-0.008002981452643871,-0.04018823626982048
1772019808649174500,9.432174560546875,-0.03848258312940597,-0.06618716713488101,-0.029285560453450307
1772019808669139700,9.4521396484375,-0.15018530077040196,-0.01977408326715231,-0.04372698658891022
1772019808689105400,9.47210546875,-0.02137304289638996,-0.05162234294861555,0.013996952037280425
1772019808709070300,9.4920703125,-0.05969254441857338,-0.008397533728182315,0.03883957074037753
1772019808729036500,9.51203662109375,0.04954524441361427,0.03199526693671942,-0.01171936249411665
1772019808749001500,9.53200146484375,0.0902560249865055,-0.05382043751478195,-0.03307411168199032
1772019808768967700,9.5519677734375,0.012274959683418274,-0.047048459161818025,-0.08004282927163876
1772019808788932600,9.5719326171875,-0.04098141420781612,-0.00967354501336813,-0.032845746286213395
1772019808808898600,9.591898681640625,-0.024480361261963842,0.05303425557315349,0.02127022184273228
1772019808828863700,9.61186376953125,-0.013871873486042022,0.01387801096588373,0.027704474407620725
1772019808848829400,9.631829345703125,-0.11396481735408305,-0.013033084574341772,-0.01979193858425133
1772019808868794400,9.65179443359375,-0.12943711177408695,0.04912205056548118,0.023578690581349655
1772019808888760600,9.671760498046876,-0.03200549606978893,0.057091129748523234,0.018497222598595545
1772019808908726500,9.6917265625,0.10529752677381038,0.03912555720806122,0.07177678556917234
1772019808928692500,9.7116923828125,-0.011930091768503188,0.05745791723430156,0.08702062326185404
1772019808948657400,9.731657470703125,-0.023024901756644248,-0.00597176788598299,0.03251132670007646
1772019808968623600,9.75162353515625,0.015827099207043647,-0.038298750995099544,0.044555345438141374
1772019808988588500,9.771588623046876,-0.008900514814257621,-0.07713789247721434,0.06190207369420677
1772019809008554500,9.791554443359376,0.0024602526336908338,-0.09463760107159613,0.02507679278515279
1772019809028519700,9.811519775390625,0.12412556136250495,-0.1390966282621026,-0.06243104773806408
1772019809048485600,9.831485595703125,-0.015813655203580856,-0.1641781702876091,-0.09538986247731372
1772019809068450800,9.851450927734374,-0.10989829856753348,-0.06708323919177055,-0.028486491630785166
1772019809088416800,9.871416748046874,-0.112202483856678,-0.049314066006243225,0.022050704695936292
1772019809108381700,9.891381591796875,-0.1188432370454073,-0.07353665311485529,0.01812350304853171
1772019809128348000,9.911347900390625,-0.09018938949108123,-0.10287994423806666,0.0058819707106798885
1772019809148312800,9.931312744140625,-0.0357797539114952,-0.0760346074104309,0.013990038239303976
1772019809168278800,9.95127880859375,0.08659691795706749,-0.04935848966985941,0.10290937126195057
1772019809188244000,9.971243896484374,0.1402010823726654,-0.10950900698900222,0.12208791805505752
1772019809208209700,9.991209716796876,0.0003723404437303543,-0.16442980696111917,0.10939794782996178
1772019809228174600,10.011174560546875,-0.24341303504407405,-0.009217910200357437,-0.03978420377988368
1772019809248140800,10.031140869140625,-0.0969184054851532,-0.022957389478385447,0.04955585713917389
1772019809268105700,10.051105712890624,0.04842997664809227,-0.05660188492685556,0.0511585796280764
1772019809288072000,10.071072021484374,0.002711597046256065,-0.08150222516655921,0.04387092510424554
1772019809308036900,10.091036865234376,-0.1760597467392683,0.07107786178588867,0.032883941138442604
1772019809328002800,10.1110029296875,0.01821370208263397,0.1564829396098852,0.10423521303823217
1772019809347967700,10.1309677734375,0.2683715352118015,-0.07154080312252044,0.14094174467213452
1772019809367933700,10.15093359375,0.3015776392430067,-0.1943580583654344,0.019750063070748
1772019809387898600,10.170898681640624,0.1940887399047613,-0.2054403011329472,-0.010437496856879442
1772019809407864800,10.19086474609375,0.3405442064970732,-0.10688421144336462,0.11846503311647101
1772019809427829800,10.210829833984375,0.08546411453485489,-0.11452858871668577,0.15496875392096116
1772019809447796000,10.2307958984375,0.07183306406736374,-0.09920037894248962,0.013086129935830831
1772019809467761000,10.250760986328125,0.27986849626004695,-0.23794234854802487,0.13140810131980105
1772019809487726600,10.2707265625,0.47370589175224304,-0.3270684927217662,0.1337317036954686
1772019809507691800,10.29069189453125,0.2185620869040489,-0.2720188056729734,0.17222228746823964
1772019809527657700,10.31065771484375,-0.19957213975191115,0.03596855448186397,0.04645747099872678
1772019809547622700,10.33062255859375,-0.24964286934435367,0.11085369959622621,-0.022608466442860662
1772019809567588900,10.3505888671875,-0.10251870971024035,0.08793547308444977,0.022492511912994086
1772019809587553800,10.3705537109375,-0.1748959636569023,0.03214768101945519,0.03033478637859225
1772019809607519700,10.390519775390626,-0.15241700534522531,0.04995338682308793,0.03545574612151831
1772019809627484700,10.410484619140625,-0.11192542048096656,0.06744023593589663,0.03589636602848768
1772019809647450600,10.43045068359375,-0.2390443184405565,0.010932459033280611,0.014078794234991072
1772019809667415800,10.450415771484375,-0.2725339155882597,0.07446312031000853,0.005641951409727335
1772019809687381800,10.4703818359375,-0.08017009977996349,-0.061611091390997165,0.07084208026863634
1772019809707346700,10.4903466796875,0.03207622321844101,-0.2208668567150831,0.04864464231207966
1772019809727313000,10.51031298828125,-0.1258306117147207,-0.1815866934671998,-0.0020656272929161787
1772019809747277800,10.53027783203125,-0.22380524825453757,-0.1296535310037434,-0.022717370177432892
1772019809767243800,10.550243896484375,-0.00006663549542427062,-0.14893018614277242,0.05986424772366881
1772019809787208700,10.570208740234374,0.2091688201367855,-0.10372545515149831,0.07956833449453116
1772019809807174700,10.590174560546876,0.12277356223165989,-0.14046791661530733,0.08113572994172573
1772019809827139800,10.610139892578125,0.004733458262681961,-0.041724049268662924,0.06463168132118881
1772019809847105800,10.630105712890625,-0.3113023299217224,0.0474688765309751,0.02747928734961897
1772019809867070700,10.65007080078125,-0.33824703547060486,0.04987316119372844,-0.05052749691661447
1772019809887037000,10.670036865234374,0.16555413481593131,-0.18028890874162315,0.12540354540906845
1772019809907001900,10.690001953125,0.12135960378050803,0.010805910044163465,0.39158626533970237
1772019809926967800,10.7099677734375,0.30275895798206326,0.07920110861733555,0.12290157252550124
1772019809946932700,10.7299326171875,0.46506724274456496,-0.04002294443920255,0.042002647014334794
1772019809966898700,10.749898681640625,-0.024290391647815702,-0.1150865148603916,-0.016575944812968372
