time,seconds_elapsed,z,y,x
1772018043932408600,0.07240869140625,0.26582886499166486,-0.09725625913739204,-0.05405990882646292
1772018043952375600,0.09237548828125,0.07945932116210461,-0.03565057457387447,0.0129252402856946
1772018043972343800,0.11234375,-0.0547375523597002,-0.016099778668582438,-0.004343947488442063
1772018043992310500,0.132310546875,-0.23310323795378207,-0.007577157256007194,-0.031408151231147347
1772018044012278500,0.152278564453125,-0.17986030806601047,-0.03895750716477632,-0.020340777239203453
1772018044032245800,0.172245849609375,-0.03501461475789547,-0.06406476815342903,-0.06098835638277232
1772018044052213800,0.1922138671875,0.18731062407195567,-0.06835282073616981,-0.007047580423951149
1772018044072180500,0.212180419921875,0.0818815798729658,-0.04433890794217586,-0.04602072354927659
1772018044092147700,0.232147705078125,-0.010053191980719566,0.021617665307223796,0.03009754355661571
1772018044112115700,0.25211572265625,-0.0839385124027729,0.02896832033097744,0.0013478709449991583
1772018044132082400,0.27208251953125,-0.060925301083922384,0.043127486325800414,-0.07348320589456707
1772018044152050400,0.292050537109375,0.023066987332701683,0.0005561725780367851,-0.033886341380327936
1772018044172017700,0.312017578125,0.07263502810001372,-0.01706745465695858,0.021716084180399775
1772018044191985700,0.331985595703125,-0.006445522877573967,-0.06726911715269088,-0.01914031540825963
1772018044211952600,0.35195263671875,-0.11767828491926192,-0.032737609736621376,-0.02507394324094057
1772018044231919600,0.371919677734375,-0.11202420468032359,-0.049263212601840495,-0.048954438913613556
1772018044251887600,0.3918876953125,-0.028815175595879552,0.010551204630732535,0.03058002984393388
1772018044271854600,0.4118544921875,-0.01595861663222313,-0.04973024559170008,0.003849405437149107
1772018044291822600,0.431822509765625,-0.09504325926303862,-0.04363426680415868,0.002742832434736192
1772018044311789600,0.45178955078125,-0.06110182669460773,-0.009971651177108288,-0.004450878461636602
1772018044331757600,0.471757568359375,0.044160044243931766,-0.041563305748999115,-0.029670002326928076
1772018044351724500,0.491724609375,0.07559212433993816,-0.026576456758379934,-0.015095752725191413
1772018044371691500,0.51169140625,-0.008656769186258316,0.007747837647795677,-0.0567526915743947
1772018044391659500,0.531659423828125,0.05842822357118129,0.034298867703974244,-0.04699738656170666
1772018044411626500,0.55162646484375,0.010006430229544639,-0.004095744881033897,-0.046250915575958784
1772018044431594500,0.571594482421875,-0.051010640791058534,-0.022702245673537253,-0.016403218594565987
1772018044451561700,0.591561767578125,-0.06252163036465644,-0.06505202562510967,-0.047528570828959345
1772018044471529500,0.611529541015625,-0.0599134936928749,-0.04350158033519983,-0.04084326611245051
1772018044491496400,0.631496337890625,0.06308861659765243,-0.044132279454171655,-0.032578327521681785
1772018044511463700,0.651463623046875,-0.0093371526658535,-0.0424658075466752,-0.04559307272173464
1772018044531431700,0.671431640625,0.009352350234985351,-0.004848024553060532,-0.002191244700271636
1772018044551398700,0.691398681640625,0.07300093880295754,-0.039788405030965805,-0.04218744726302102
1772018044571367000,0.711366943359375,0.04908288759887218,0.019238661216199396,-0.01421312467176467
1772018044591333600,0.731333740234375,0.08205927452743053,0.024471885694563388,-0.03247296745106577
1772018044611301600,0.751301513671875,0.025348960790038108,-0.0031970424756407735,-0.06720553213087842
1772018044631268900,0.771268798828125,0.048533437022566794,-0.0034323125362396237,-0.02919105970356613
1772018044651235800,0.79123583984375,0.06811550484895706,-0.11553688897639512,-0.10373942887792363
1772018044671203600,0.81120361328125,-0.09435235438942909,-0.08176905940920114,0.029642858591675758
1772018044691170800,0.8311708984375,-0.16528583926856516,-0.11122311743050813,-0.07055613946672529
1772018044711138800,0.851138916015625,-0.05026420633792877,-0.05826864909529686,-0.004829210254736245
1772018044731105800,0.871105712890625,0.009391513201594353,-0.06934884603619575,-0.05230440692864358
1772018044751073500,0.891073486328125,0.06746727007329463,-0.08280220184922218,-0.034495376656763256
1772018044771040800,0.911040771484375,0.035191140368580814,-0.03622720541805029,-0.0001150412144139409
1772018044791007700,0.9310078125,-0.02404956862926483,-0.06757131496965885,-0.05718595015881583
1772018044810975700,0.950975830078125,0.13670096529722212,-0.03212590757906437,-0.018805713159032164
1772018044830942700,0.970942626953125,0.009970774394273758,-0.08450286828726529,-0.11396496348455548
1772018044850910700,0.99091064453125,0.05143325011730194,-0.09941051456183195,-0.04442828499237075
1772018044870877700,1.010877685546875,-0.04819792145788669,-0.05158522580862045,-0.04876519995182752
1772018044890845700,1.030845703125,-0.08921265341341494,-0.04992576816380024,-0.0032213366666808724
1772018044910812700,1.050812744140625,0.05632862094342708,-0.0999348306968808,-0.036840843804366884
1772018044930779600,1.070779541015625,0.03231587719321251,-0.08904372658729552,0.012376556894369423
1772018044950747600,1.09074755859375,-0.056848845425248144,-0.10631517938375472,-0.026114647932909428
1772018044970715000,1.11071484375,-0.016323358291387556,-0.05917816515564918,0.03843244211105629
1772018044990682600,1.1306826171875,-0.018265724530816076,-0.08893442099392414,0.009019227556791156
1772018045010649600,1.150649658203125,0.027476620468497276,-0.05990326455980539,-0.001954732530657202
1772018045030617600,1.17061767578125,0.10707681140601634,-0.0579901244148612,0.01115050396444276
1772018045050584800,1.190584716796875,-0.029518355429172513,-0.047931963998079294,-0.01614955436075106
1772018045070551600,1.210551513671875,0.018865443989634512,0.01750701511800289,0.05736581850405782
1772018045090519600,1.23051953125,0.11273556782007217,0.0009776128605008124,-0.014542886349093169
1772018045110486800,1.25048681640625,0.09153437435925006,-0.0299982479006052,-0.03073396003032103
1772018045130454800,1.270454833984375,0.019824644410610198,-0.00046381811946630475,0.00943895080620423
1772018045150421500,1.29042138671875,-0.14913140780329703,-0.10246844082772731,-0.009017711453139782
1772018045170389800,1.3103896484375,-0.12299041985273361,-0.08481324941068888,0.046046351180877534
1772018045190356700,1.330356689453125,-0.060387540945410725,-0.08291764492243528,-0.031299393627047534
1772018045210323700,1.35032373046875,0.06802315039038657,-0.022155425445735455,0.021185064309928565
1772018045230291700,1.370291748046875,-0.08944880025684833,-0.11059855579137802,-0.13654909920375793
1772018045250258700,1.3902587890625,0.025633038428425788,0.06190349846631288,0.04770904196240008
1772018045270226700,1.410226806640625,0.11161328579187392,0.041353462390601635,-0.0057144686566665765
1772018045290194000,1.43019384765625,0.13661445605754852,-0.030335224770009515,-0.05165823624590411
1772018045310161700,1.45016162109375,0.11170271764099597,0.005428454789519309,-0.0014875899429433047
1772018045330128600,1.470128662109375,0.019812953972816467,-0.039509003567695614,0.019953275758959353
1772018045350096000,1.490095947265625,-0.12773323046565055,-0.011214636975526809,-0.01392661761427298
1772018045370064000,1.51006396484375,-0.007967033356428146,-0.0655558834940195,-0.009557316488865762
1772018045390030600,1.530030517578125,-0.031767011138796805,-0.07165332358628511,-0.05853842421369627
1772018045409998600,1.54999853515625,-0.14078618878424168,-0.09579027823805808,-0.053326790512632574
1772018045429965800,1.5699658203125,-0.11997896307706832,-0.01573328344374895,-0.0029958938803523777
1772018045449932800,1.589932861328125,-0.0676689301252365,0.013133037817478179,0.00831500654388219
1772018045469900500,1.609900634765625,0.010585106900334358,0.00805792651027441,-0.017212562216073275
1772018045489867800,1.62986767578125,0.020030980637669563,-0.03146247523427009,-0.03260634803976863
1772018045509836000,1.6498359375,0.023549217891693112,0.020141163013875484,0.024671408588346093
1772018045529803000,1.669802978515625,-0.08257073118090628,-0.029611878931522367,-0.07595893009202555
1772018045549771000,1.68977099609375,0.035808980005979534,0.016970424023270606,-0.05647305264910683
1772018045569738000,1.709738037109375,0.11966390577852726,-0.02845715593844652,-0.0588572809045203
1772018045589705000,1.729705078125,0.06142857443094253,-0.043761108054220677,-0.050711164654139426
1772018045609673000,1.7496728515625,-0.039192192703485486,-0.020691490373015403,0.000248695797752589
1772018045629640000,1.769639892578125,-0.0034609541088342663,-0.04910948334485292,-0.0083599599304609
1772018045649608000,1.78960791015625,-0.01488017374575138,-0.10250380440205335,-0.010098821220733224
1772018045669575000,1.809574951171875,-0.04152560408711433,-0.08836889606565236,-0.028006854887679216
1772018045689542100,1.829542236328125,-0.11094342370629309,-0.03380377766340971,-0.04880200656456873
1772018045709510000,1.849510009765625,-0.04823416181504726,0.004724398173391819,-0.020622023599687962
1772018045729476900,1.869476806640625,0.09442717319130897,0.0015320318728685378,-0.034074849689751864
1772018045749444900,1.88944482421875,0.1190086567401886,0.009498480707406998,-0.0023756613564677536
1772018045769412000,1.909412109375,0.01013970122039318,0.01561521002203226,-0.059604281613230704
1772018045789379800,1.9293798828125,-0.020270634612441062,0.0260921803727746,-0.02561922909878194
1772018045809346800,1.949346923828125,0.0078045362710952755,0.019029986901581288,-0.042701369868218896
1772018045829314000,1.96931396484375,0.023834464573860167,-0.013380875098705291,-0.09854622588269411
1772018045849282000,1.989281982421875,0.01769523116648197,-0.016797990065813062,-0.04696359388995915
1772018045869248800,2.009248779296875,0.003709375911951065,-0.04119622600227594,-0.04381110294209793
1772018045889217000,2.029217041015625,-0.1178279225230217,-0.0785182409197092,-0.022205584730394183
1772018045909184000,2.04918408203125,-0.09918284328579902,-0.11566606831401585,0.0035004276026971634
1772018045929151000,2.06915087890625,-0.10430793121457099,-0.10965309163480996,-0.0073985310197807845
1772018045949119000,2.089118896484375,-0.037951837253570556,-0.12213760241568088,-0.02603528082007542
1772018045969086000,2.1090859375,-0.03679682199954987,-0.05722235491275787,-0.015536938887741415
1772018045989054000,2.129053955078125,0.11955109305381774,-0.03593406769037247,0.0027477643381804227
1772018046009021000,2.14902099609375,0.027233459362387656,-0.018418284744024276,-0.00545735209044069
1772018046028989000,2.168989013671875,0.021553075638413428,0.03718406775146722,-0.036079083917941894
1772018046048956000,2.188955810546875,0.038164603221416474,0.04599018228054046,-0.005226392878778278
1772018046068923000,2.2089228515625,0.002173252385854721,0.012812427560985088,-0.049630036620236934
1772018046088891100,2.22889111328125,0.02357084520161152,0.03593874386548996,-0.057202079309709365
1772018046108857900,2.24885791015625,0.09165595491230487,-0.05088964475989342,-0.012297244580462574
1772018046128825900,2.268825927734375,0.02818798360824585,-0.043297582195699215,0.027296825188491494
1772018046148793000,2.28879296875,-0.07422258955240249,-0.05834492920190096,-0.03746368841044605
1772018046168760000,2.308760009765625,-0.040047932749986644,-0.03356909212470054,-0.06310755876014008
1772018046188727800,2.328727783203125,-0.02472059975862503,-0.061867842631042,-0.07750963013274595
1772018046208695000,2.348695068359375,0.048529929891228674,-0.06377981373220681,-0.027568573068268595
1772018046228663000,2.3686630859375,0.023822774136066434,-0.0578092148900032,0.003045048518013209
1772018046248630000,2.388630126953125,-0.015001754298806189,-0.06825257523208857,0.006495590830687433
1772018046268597000,2.408596923828125,-0.06538286501467228,-0.10571341409832238,-0.02829796505505219
1772018046288565000,2.42856494140625,-0.023143559700250626,-0.054551382137835024,0.034161030135862525
1772018046308532000,2.448531982421875,0.011381810235977173,-0.04400894533544779,-0.025137729192152618
1772018046328500000,2.4685,0.09609598318636417,-0.06207154850959778,-0.06728900916324929
1772018046348467000,2.488467041015625,0.010244330638647079,-0.022283143478631973,-0.015331168916262685
1772018046368435000,2.50843505859375,-0.05067395618259907,-0.0059290977880358696,-0.037972222454473376
1772018046388402000,2.52840185546875,-0.016794482934474945,-0.02745645446330309,-0.04503582243146374
1772018046408369200,2.548369140625,0.038602410116791726,-0.029344167906045913,-0.0573730884950608
1772018046428337000,2.5683369140625,0.033868367332220074,-0.025432839681208134,-0.02259169797115028
1772018046448303900,2.588303955078125,-0.0340764571249485,-0.04457534704655409,-0.05016900233514607
1772018046468271900,2.60827197265625,0.014532383221387862,-0.0696650723785162,-0.053253688743803644
1772018046488239000,2.628239013671875,-0.0005085340440273285,-0.053666415996849536,-0.013659600708540528
1772018046508204800,2.648204833984375,-0.04201017273366451,-0.06466448761224747,-0.04034200205942615
1772018046528172800,2.6681728515625,-0.02678571559488773,-0.05800561424493789,-0.01168267461238429
1772018046548139800,2.688139892578125,0.02982347585558891,-0.07351765615344047,-0.043284996708761896
1772018046568107500,2.708107421875,0.09984510658681392,-0.0432481900960207,-0.03763694435181096
1772018046588074800,2.72807470703125,0.09444120171666144,-0.06467939292043447,0.021824987914972005
1772018046608041700,2.748041748046875,-0.042454993891716,-0.1108800030812621,-0.010546564988233148
1772018046628009700,2.768009765625,-0.04055880488157272,-0.05296469746828079,0.00006681815851479768
1772018046647976700,2.787976806640625,0.011059154152870178,-0.03199906632900238,-0.03036899917544797
1772018046667944700,2.80794482421875,0.08332593346238136,-0.00507160417586565,-0.019379585790541023
1772018046687911700,2.82791162109375,-0.003989361897110939,0.03886223009675741,0.01714333290476352
1772018046707878700,2.847878662109375,0.06901917569041252,-0.007378419813513755,0.012738869134429842
1772018046727846700,2.8678466796875,0.043325931507349015,-0.01901975776851177,0.00774988347440958
1772018046747813600,2.887813720703125,0.04269114073514938,-0.0338104996651411,-0.001821443273499608
1772018046767781600,2.90778173828125,-0.012550269493460655,-0.05253975005447864,-0.03635165378162637
1772018046787748900,2.927748779296875,-0.02674187645316124,-0.06484890426844359,-0.04498054858027026
1772018046807715600,2.947715576171875,-0.00680091218650341,-0.0800128633916378,-0.024975378237292168
1772018046827683600,2.96768359375,-0.057903907436132426,-0.1294584468230605,-0.06341129094706847
1772018046847650800,2.98765087890625,0.006640168666839599,-0.09664251115322113,-0.0141059745028615
1772018046867618800,3.007618896484375,-0.06742635354101657,-0.04603197559565306,0.008122077787667513
1772018046887585500,3.02758544921875,-0.05348609099388122,-0.04326367992609739,0.02690884878421202
1772018046907553800,3.0475537109375,0.021139234140515325,-0.051150049261748785,-0.0024410547428764403
1772018046927520800,3.067520751953125,0.03401508232653141,-0.05588613787293434,-0.05240938340676948
1772018046947487500,3.087487548828125,0.042297172981500625,-0.023961013562977314,0.008109985491074622
1772018046967455700,3.107455810546875,-0.05406184505522251,-0.006867255420982837,0.002336461857240647
1772018046987422700,3.127422607421875,0.021344985845685005,-0.01766951220333576,-0.062009643988218156
1772018047007390700,3.147390625,0.10413082108199596,-0.049294192261993885,-0.019708032293617724
1772018047027357700,3.167357666015625,0.008583703950047492,-0.015116028328239916,0.02815497638778761
1772018047047324700,3.18732470703125,-0.10418167448639869,-0.017473989631235597,-0.05167069386867806
1772018047067292700,3.207292724609375,0.008069324687123298,-0.02755611544549465,-0.04256917658960446
1772018047087259600,3.227259765625,0.08220657404363155,-0.08539864808320999,-0.023995555153395978
1772018047107226600,3.2472265625,-0.032872926554083824,-0.04430062175840139,0.00217803815882653
1772018047127194600,3.267194580078125,-0.17784896824359891,-0.004675298334658145,-0.001733892854209989
1772018047147161600,3.28716162109375,-0.11812661320865153,-0.01026566568762064,-0.06743828144082799
1772018047167129900,3.3071298828125,0.06407353598177433,-0.03025134587883949,-0.0614212496410124
1772018047187096600,3.3270966796875,0.1459913562119007,-0.005842880809307098,-0.009058463588636368
1772018047207064600,3.347064697265625,0.019274609312415123,0.0049742812812328336,-0.036962442623730746
1772018047227031800,3.36703173828125,-0.07640227167904376,-0.018500117808580397,-0.03738013831283897
1772018047246998800,3.386998779296875,-0.03833119195997715,-0.0045317982107400895,-0.011592731306608766
1772018047266966800,3.406966796875,0.0343769013762474,0.013166647826135159,-0.02011962703550234
1772018047286933800,3.426933837890625,0.03413783192336559,-0.017303309239447114,-0.058306935279071326
1772018047306900700,3.446900634765625,0.0637000264942646,-0.01375730719566345,-0.026929544512368737
1772018047326868700,3.46686865234375,-0.0030430209577083584,-0.004653671024739742,-0.05066491435961797
1772018047346835700,3.486835693359375,-0.033632805010676385,-0.011759119115769863,-0.025117855447903275
1772018047366803700,3.5068037109375,-0.068514733299613,-0.009771744690835475,-0.05082163929129019
1772018047386770700,3.526770751953125,-0.047021863415837285,-0.03113192810565233,-0.007519837578199804
1772018047406738000,3.546738037109375,-0.053107905331254,-0.022269991736114023,-0.02502358302688226
1772018047426705700,3.56670556640625,-0.024834581527113913,-0.04116816895157099,-0.004452467630524188
1772018047446672600,3.586672607421875,-0.03385316976308823,-0.03472673772722482,-0.03857258123410866
1772018047466640600,3.606640625,-0.039033202749490736,-0.04837883098274469,-0.01167796190464869
1772018047486608000,3.62660791015625,-0.0021855273455381394,-0.005101414792239666,0.020504644297715275
1772018047506574600,3.64657470703125,0.009645780223608017,-0.01754588582366705,-0.011001268219482153
1772018047526542600,3.66654248046875,0.054936874324083326,-0.0055199324652552605,-0.05192238534111529
1772018047546509800,3.686509765625,0.035029812327027315,-0.04548573988974094,-0.07523971243938431
1772018047566477800,3.706477783203125,-0.022342180189490315,-0.02047989344894886,0.019494097281992435
1772018047586444500,3.726444580078125,-0.0526245057284832,-0.0378495459228754,-0.01546230274895206
1772018047606411800,3.746411865234375,-0.023430559948086738,-0.026811726818978785,-0.02427018911000341
1772018047626379800,3.7663798828125,-0.00037292496562004086,-0.029023849910497664,-0.026063940658979115
1772018047646346800,3.7863466796875,-0.0021603929042816163,-0.008281798394024372,-0.031542828727792946
1772018047666314500,3.806314453125,0.01201543196439743,-0.025080665242671964,0.005193860582355409
1772018047686281700,3.82628173828125,-0.08124152840375899,-0.029693419735133647,0.001763392943330109
1772018047706248700,3.846248779296875,-0.018262801921367644,-0.019734628039598464,-0.022425620689243076
1772018047726216700,3.866216796875,0.03207388513088226,-0.07011866136491299,-0.05985948021700605
1772018047746183700,3.88618359375,0.02664601486325264,-0.04556728069335222,-0.02145250134076923
1772018047766150700,3.906150634765625,-0.07259118895828723,-0.04298720107227563,-0.06333665480827912
1772018047786118700,3.92611865234375,-0.06319090792834758,-0.0361111778229475,-0.023636311653256414
1772018047806085600,3.946085693359375,0.04347381554543972,-0.05713379984647035,0.0016001286730170248
1772018047826053600,3.9660537109375,0.1251525663226843,-0.048854047279059884,0.016883805185742676
1772018047846020600,3.9860205078125,0.025257775375247,-0.033814006796479223,0.033466216272115705
1772018047865987800,4.00598779296875,-0.06296119082570076,-0.024468963085114953,0.03646320613101125
1772018047885955800,4.025955810546875,-0.14655074366033077,-0.060466743661463256,-0.026795396738685667
1772018047905922600,4.045922607421875,-0.06879997998178004,-0.0626414573520422,-0.03801039904039353
1772018047925890600,4.065890625,0.08302548921108245,-0.0456204721853137,-0.008692680749855936
1772018047945857800,4.08585791015625,0.10221300476193428,-0.050394554719328875,-0.011923095772136003
1772018047965824500,4.105824462890625,0.011074351722002029,-0.0020110475614666936,0.015599756724573671
1772018047985792500,4.12579248046875,-0.03579845861196518,-0.0087424016430974,0.006259169992618262
1772018048005759700,4.145759765625,-0.06236030232310295,0.00836421598047018,-0.0023360417321324346
1772018048025727700,4.165727783203125,0.10835106912553309,-0.021759704126417635,0.00191461971597746
1772018048045694500,4.185694580078125,0.1516594649761915,-0.033840894803404804,0.037871301096957175
1772018048065661700,4.20566162109375,0.01707914509475231,-0.0675514412254095,0.02280753267891705
1772018048085629700,4.225629638671875,-0.16532266414761543,-0.040465865901112556,-0.008404164398368448
1772018048105596700,4.2455966796875,-0.11745149042606354,-0.01367547413110733,-0.013089034278970211
1772018048125563600,4.265563720703125,0.02293430086374283,-0.025570786847174166,-0.028273762195557356
1772018048145531600,4.28553173828125,0.08768295962810516,-0.023064064723253248,0.0013861023298464715
1772018048165498600,4.30549853515625,-0.023004443490505216,-0.036623218998312945,-0.024503961333259938
1772018048185467000,4.325466796875,-0.0590291120737791,-0.001277180328965187,-0.006735464001167565
1772018048205433600,4.34543359375,0.04463467601835727,-0.05069938288480043,-0.055824945737607774
1772018048225400600,4.365400634765625,0.020875614768266677,-0.05265373182296752,-0.009264945946168154
1772018048245368800,4.385368896484375,-0.07562602660953999,-0.0638984716758132,-0.05517387968404218
1772018048265335800,4.405335693359375,-0.04598199897408485,-0.015036825612187384,-0.008357493978738785
1772018048285302500,4.425302490234375,0.04268120386302471,-0.06839519857317208,-0.053479569921549404
1772018048305270800,4.445270751953125,0.04336334090828895,-0.05923135664761066,-0.02095563946822658
1772018048325237800,4.46523779296875,-0.08815349974930285,-0.031066753914952276,-0.02631132128247991
1772018048345205800,4.485205810546875,-0.051803836995363235,-0.007840192106366157,-0.006656791008077562
1772018048365172700,4.5051728515625,-0.03342646878361702,-0.017710428735613824,-0.026246731613669545
1772018048385139700,4.5251396484375,0.08293430379629135,-0.026421266196668146,-0.010055877128150313
1772018048405107700,4.545107666015625,0.037331075006723405,-0.043918052181601525,-0.04596882896525785
1772018048425074700,4.56507470703125,-0.0846919611185789,-0.02326572477519512,-0.04518293928457424
1772018048445041700,4.585041748046875,-0.16929916656315325,-0.11357581803649663,-0.08587154455827549
1772018048465009700,4.605009765625,-0.20316694937348365,-0.18455489562302826,-0.04688641873421147
1772018048484977000,4.624976806640625,-0.3344692704975605,-0.2100552475824952,-0.16595140877151862
1772018048504945000,4.64494482421875,-0.09302665874361991,-0.02532265730500221,-0.04743674609335139
1772018048524911900,4.664911865234375,0.21252163769602775,-0.07221504912227392,-0.014762282987125216
1772018048544878800,4.68487890625,0.3617658582240343,0.019445289704203606,0.08599120714887976
1772018048564846800,4.704846923828125,0.002596446233987808,0.020564941383898257,0.011452080726902932
1772018048584813800,4.724813720703125,-0.04965162739753723,0.12903554523587227,-0.00023433847883716225
1772018048604780800,4.74478076171875,0.08687164324522018,0.10200228462070227,-0.05417111411597579
1772018048624749000,4.7647490234375,0.17954232815802096,0.06358019950687885,-0.03427804411165416
1772018048644715800,4.7847158203125,0.0708370387673378,0.07573240959346295,-0.05676388882184401
1772018048664683800,4.804683837890625,0.018466800060868264,0.09256517871171235,-0.03169242979893461
1772018048684651000,4.824651123046875,0.10900690268576145,0.017679449075460433,-0.017303893761336803
1772018048704618000,4.844617919921875,0.09192308141589164,-0.02439852819740772,-0.03493733000429347
1772018048724585700,4.864585693359375,-0.009290390914678573,-0.04762245965749025,-0.009864720203913747
1772018048744553000,4.884552978515625,-0.055824763074517246,-0.014550211139023304,0.013984302618261425
1772018048764520000,4.90452001953125,-0.05572422530949116,-0.02945318123847246,0.002641728414129466
1772018048784488000,4.924488037109375,0.029123218631744382,-0.05970803424865007,-0.04022591966539621
1772018048804455000,4.944454833984375,0.06893325097262859,-0.021605974869430063,0.04305500561147928
1772018048824423000,4.9644228515625,-0.057364978253841396,-0.0058536944642662994,-0.00036602030079811807
1772018048844390000,4.984389892578125,-0.02356850711405277,-0.033119887052476406,-0.048670690068788824
1772018048864356900,5.00435693359375,-0.001685176607966423,-0.07257482234537602,-0.025781488722097127
1772018048884324900,5.024324951171875,-0.06171732824444771,-0.06676467476189137,-0.0290585193650797
1772018048904291800,5.044291748046875,-0.020458850660920142,-0.06937602630406618,-0.023550039875600486
1772018048924259000,5.064259033203125,-0.0723012661010027,-0.07797054390907288,0.05992679156586527
1772018048944227000,5.08422705078125,-0.010031564670801163,-0.03420709776729345,0.06785815082071349
1772018048964193800,5.10419384765625,-0.016578794357180595,-0.019053952299058437,0.02396342471577227
1772018048984161800,5.124161865234375,0.0286737212985754,0.007471358793973922,-0.005792812856193631
1772018049004129000,5.14412890625,0.06427987220883369,-0.019274901573359964,0.06480999703016131
1772018049024095700,5.164095703125,0.011081365984678267,-0.013370645965635775,0.01954288659347221
1772018049044063700,5.184063720703125,-0.015339023429155349,0.006286825184524059,0.02943213845044374
1772018049064031000,5.204031005859375,-0.05700841990113258,-0.02735562443733215,-0.014860500930901617
1772018049083998000,5.223998046875,-0.06028583413660526,-0.0019134324058890343,-0.015298143429495393
1772018049103965700,5.243965576171875,0.023030746975541114,0.01028524717092514,-0.031161866586189715
1772018049123933000,5.263932861328125,0.1258060617953539,-0.03302081059217453,-0.02867426928784698
1772018049143900000,5.28389990234375,0.10325988346636295,-0.019952362443506715,0.008588288793619722
1772018049163868000,5.303867919921875,-0.06788111157119274,-0.017978139761090278,0.030069705701619386
1772018049183835000,5.3238349609375,-0.06275953077375888,-0.02108984204083681,-0.007047233364079147
1772018049203803000,5.343802978515625,-0.03556874150931835,-0.07056757417619228,-0.05119518531141802
1772018049223769900,5.363769775390625,0.05473053809702396,-0.053796179856359955,-0.04620177920460701
1772018049243737000,5.383737060546875,0.060793199136853215,-0.05267565139383077,-0.05176872914936393
1772018049263704800,5.403704833984375,-0.03998538890779018,-0.04305909726470709,-0.04116077109640464
1772018049283671800,5.423671875,-0.0989309143513441,-0.08395692484229803,-0.08422072687763721
1772018049303639000,5.44363916015625,-0.113161099755764,-0.07040390804708004,-0.061828168207779526
1772018049323607000,5.46360693359375,-0.005932312658429146,-0.0708735713854432,-0.06503372278343886
1772018049343573800,5.48357373046875,0.04554769921004772,-0.07102496255487203,-0.0728872858280316
1772018049363541000,5.503541015625,0.03153904760181904,-0.06301905849277972,-0.025069851587712765
1772018049383509000,5.523509033203125,-0.02002104376554489,-0.06387158366888761,-0.054060895207151766
1772018049403475700,5.543475830078125,0.03795651342868805,-0.06791910549402237,-0.07387932907268405
1772018049423443700,5.563443603515625,0.11444529434740543,-0.04057400245070457,0.008627798820100724
1772018049443411000,5.583410888671875,-0.024344752183556556,-0.004736673133075237,-0.03722496601743623
1772018049463378000,5.6033779296875,-0.015579846447706222,0.02974164279103279,-0.046232393538579344
1772018049483346000,5.623345947265625,0.14400748891830442,-0.043622576366364955,-0.021149061414785682
1772018049503313000,5.64331298828125,0.054070612883567806,-0.06843669962733984,-0.026966040597856043
1772018049523281400,5.663281494140625,-0.15685937170684336,-0.03277531139850616,-0.026018347951583563
1772018049543249400,5.68324951171875,-0.10876666418910026,-0.007433657132089138,-0.06745410006446763
1772018049563216400,5.70321630859375,0.11145371131598948,-0.0212950092241168,-0.00804179735938087
1772018049583183400,5.723183349609375,0.07081950311064719,-0.013668167607486247,0.0029143896093592045
1772018049603151400,5.7431513671875,0.010688567274808883,0.00500146154910326,0.012559767974168062
1772018049623118300,5.763118408203125,0.07820552170872688,0.014856792870163917,0.019665837119705973
1772018049643085300,5.783085205078125,0.10890753396451473,-0.039321664302051064,-0.0011334427430294454
1772018049663053300,5.80305322265625,-0.0026309330254793164,-0.0025759879678487778,-0.04629269062476232
1772018049683020300,5.823020263671875,-0.11559563342630863,-0.04666559732407331,-0.05049456276139244
1772018049702987500,5.842987548828125,-0.09628419923484324,-0.06479279016703367,-0.02186051588607952
1772018049722955300,5.862955322265625,-0.05918284133076667,-0.07298077279776334,-0.010620762735605239
1772018049742922200,5.882922119140625,-0.04139057953059673,-0.10755728839933872,-0.0318132066343911
1772018049762889500,5.902889404296875,0.04266717533767223,-0.07637567593306302,0.008081636179424822
1772018049782857500,5.922857421875,-0.06554243949055671,-0.0732087363347411,0.00034271249044686553
1772018049802824200,5.94282421875,-0.04252864364981651,-0.035869478021562096,0.001504084420017898
1772018049822792200,5.962792236328125,-0.0947352162271738,-0.049455812564492226,0.007252035221178084
1772018049842759400,5.982759521484375,-0.0400064316958189,-0.00921557211279869,0.012269863383192569
1772018049862726100,6.00272607421875,-0.06762216837406158,-0.0015539514437317846,-0.017450754886120558
1772018049882694100,6.022694091796875,0.0993663831591606,0.0035132688179612156,-0.040048151945695276
1772018049902661400,6.042661376953125,0.106420977845788,-0.0010986088916659354,-0.0029817374908365306
1772018049922628400,6.06262841796875,-0.0725274760723114,0.02247720474600792,-0.008923311167955398
1772018049942596400,6.082596435546875,-0.05708090061545372,-0.0002639116331934929,-0.02298763848617673
1772018049962563300,6.102563232421875,-0.0030868600994348526,-0.029074703314900398,0.027630751584284005
1772018049982530300,6.1225302734375,0.015921207231283187,-0.047938393738865846,0.0022226444855332375
1772018050002498300,6.142498291015625,-0.05653554169237613,-0.01569879665225744,0.008005867529474199
1772018050022465300,6.16246533203125,-0.00919160671532154,0.019064765954017637,-0.002503653384000063
1772018050042432300,6.182432373046875,0.019169395372271535,0.013052958318591117,-0.03417569798203185
1772018050062400300,6.202400146484375,-0.01723813504874706,0.020528116504848003,-0.017198588489647955
1772018050082367500,6.222367431640625,0.01736497629880905,-0.002838438296318054,-0.041696631538774814
1772018050102334200,6.242334228515625,0.00761047500371933,-0.028935002583265302,-0.033102260064240545
1772018050122302200,6.26230224609375,0.04806991116404533,-0.03315466610491276,-0.057823535676300525
1772018050142269400,6.28226953125,0.0727536860436201,-0.015702011522650716,-0.02439898485513404
1772018050162236200,6.302236083984375,-0.04352525347173214,0.007678571803867816,-0.03471353118577972
1772018050182204200,6.3222041015625,-0.020064882907271386,0.06990384957045316,0.005831537431385368
1772018050202171400,6.34217138671875,0.1264373454362154,0.015351882910728453,0.001233980508055538
1772018050222138400,6.362138427734375,0.13513853828608988,0.014113281026482582,-0.0025797142948955297
1772018050242106400,6.3821064453125,-0.04187164104580879,-0.0012310030996799469,-0.0053532158625312146
1772018050262073300,6.4020732421875,-0.09968260950148106,-0.014951777677237987,0.01919400009056553
1772018050282040300,6.422040283203125,-0.07194178513884544,-0.06479279016703367,-0.031477398808766155
1772018050302008300,6.44200830078125,-0.05710720410048961,-0.1018546928435564,-0.020408764441497623
1772018050321975300,6.461975341796875,-0.0881429783552885,-0.14206249233037233,-0.049310723271686584
1772018050341942300,6.4819423828125,-0.05677928732037544,-0.09955927538275718,-0.08548194245249033
1772018050361910300,6.50191015625,0.03076338705420494,-0.08472498660534619,-0.032298505933303384
1772018050381877500,6.52187744140625,-0.046130467534065245,-0.07463029357045889,-0.02631943152369931
1772018050401844200,6.54184423828125,-0.08583177880346775,-0.03361117770075798,-0.041562246303074056
1772018050421812200,6.561812255859375,0.016969254979491234,-0.009420154774188994,-0.021030933194141833
1772018050441779500,6.581779541015625,0.055260699450969696,-0.03470131102502346,0.014504326170682907
1772018050461747500,6.60174755859375,-0.0688327132076025,-0.05775076270103454,0.008416859483160078
1772018050481714200,6.621714111328125,-0.137038818949461,-0.04303980804234743,-0.03724849302349612
1772018050501681400,6.641681396484375,-0.0345686245560646,0.005369125817716121,-0.04826030090330168
1772018050521648600,6.661648681640625,0.09893032982945442,-0.010555004023015499,-0.041140824286919085
1772018050541615600,6.68161572265625,0.11342413460612297,-0.008361293371021747,-0.02486890392182395
1772018050561582800,6.701582763671875,0.025895488756895065,-0.060175359499454496,-0.0246329762740992
1772018050581550800,6.72155078125,-0.0691290658056736,-0.0628717589765787,-0.023661281697731462
1772018050601517600,6.741517578125,-0.023498949009180068,-0.040671909867227074,-0.0012074760936200619
1772018050621484800,6.76148486328125,0.0360544791996479,-0.05527092858403921,-0.012227010622154921
1772018050641452800,6.781452880859375,0.015151976424455642,-0.04907382750958204,-0.017400084144808352
1772018050661419500,6.80141943359375,-0.02345920152068138,-0.037699908319115634,-0.014589849029667675
1772018050681386800,6.82138671875,0.018218962779641152,-0.0213733351573348,-0.02673999502332881
1772018050701354800,6.841354736328125,0.10054419476687908,-0.04650017762929201,-0.009290537045150996
1772018050721321700,6.86132177734375,0.07635550992786884,-0.03386690602749586,-0.020977869566343725
1772018050741288700,6.881288818359375,-0.14982757337391375,-0.05116115517765283,-0.0610543342910707
1772018050761256700,6.901256591796875,-0.11365852788388728,-0.010648235264420509,-0.032366694064997134
1772018050781223700,6.9212236328125,0.052075639674067496,-0.05614975724518299,-0.009495229304395615
1772018050801191000,6.94119091796875,0.09838964708149432,-0.05037877262830734,0.020898191926255822
1772018050821158700,6.96115869140625,0.005603811356425285,-0.05127893633842468,-0.05373001928497106
1772018050841125600,6.981125732421875,0.011516834792494773,-0.027872341787815093,0.011736468892544507
1772018050861092900,7.0010927734375,-0.04246785337328911,-0.030791444104909894,-0.04185237008975819
1772018050881060900,7.021060791015625,-0.0024298574954271317,-0.042025370302796364,-0.030582294866256413
1772018050901027600,7.041027587890625,0.017854221120476722,-0.023062603418529032,0.03267070024656132
1772018050920994800,7.060994873046875,-0.041783378240466115,-0.08387479951679706,0.0005172653397545219
1772018050940962800,7.080962890625,-0.03133680302798748,-0.06832885533869267,0.030191487184073773
1772018050960929500,7.100929443359375,0.005562310302257538,-0.0870452462464571,-0.03439407170675695
1772018050980896800,7.120896728515625,-0.0010918868899345397,-0.04030453785955906,-0.08113921880675479
1772018051000864800,7.14086474609375,0.005882628297805786,-0.025211305885016917,-0.024326540673431006
1772018051020831700,7.160831787109375,0.006228665256500244,-0.010305413176119327,0.003072173986956477
1772018051040798700,7.180798828125,-0.04282441172599792,-0.028094460105895995,0.005836706796847283
1772018051060766700,7.2007666015625,0.010075403812527656,-0.04706307220906019,-0.029293899023532865
1772018051080733700,7.220733642578125,0.0718868400812149,-0.05952770924568176,0.018249485782068222
1772018051100701000,7.240700927734375,-0.04583879111111164,-0.058009413637220855,-0.037394112039264286
1772018051120667600,7.260667724609375,0.026238018584251403,-0.016798866848647592,0.01214214535029605
1772018051140635600,7.2806357421875,0.10193535686433315,-0.05905336973220109,-0.016669066456519065
1772018051160603000,7.300602783203125,-0.021097148564457893,-0.07772650602012872,-0.026035828809347003
1772018051180569600,7.320569580078125,-0.0826531487673521,-0.06349018313586711,-0.06600636720787734
1772018051200537600,7.34053759765625,-0.11171966877579688,-0.04073854536265135,-0.02251328070638701
1772018051220504800,7.3605048828125,-0.05265606991052627,-0.037379590323567385,-0.012903521644230932
1772018051240471800,7.380471923828125,0.002878770306706428,-0.04343640614449978,-0.027942849740758537
1772018051260439600,7.400439453125,0.08486088794469833,-0.05116816944032907,-0.018536906155012547
1772018051280406800,7.42040673828125,0.007891630032658576,-0.026738077060878274,-0.02005932994931936
1772018051300373800,7.440373779296875,0.006778115832805633,0.04616583110839128,0.0049071708617731925
1772018051320341800,7.460341796875,0.0160252521276474,-0.022454116131365297,-0.023543062145542352
1772018051340308700,7.480308837890625,0.10767828443050384,-0.01360620828717947,-0.03694172862926498
1772018051360275700,7.500275634765625,0.016190087300539016,-0.011880407407879828,-0.020566603618022053
1772018051380243700,7.52024365234375,-0.04785129997730255,-0.004590834921598434,0.03795938123920932
1772018051400211000,7.5402109375,-0.1294347736865282,-0.05850508819967508,0.04752150176735594
1772018051420177700,7.560177734375,-0.02420212884247303,-0.05191168128401041,-0.015166991330496966
1772018051440145700,7.580145751953125,-0.05467734660506248,-0.02553133161962032,-0.017829324141237883
1772018051460113000,7.60011279296875,-0.0175239662528038,-0.00845832400470972,-0.03917250162232667
1772018051480079600,7.62007958984375,0.009307342049479484,-0.006188040985167026,-0.04017338576056063
1772018051500047600,7.640047607421875,0.01244154842197895,-0.03903758666366339,-0.009180354668945073
1772018051520014800,7.660014892578125,-0.04080196598768234,-0.0042658407509326935,0.01573903733110055
1772018051539981800,7.67998193359375,-0.06868833630084992,-0.0020040332987904547,0.030546255438495425
1772018051559949800,7.69994970703125,0.030717209824919697,-0.0416273108959198,0.016540782168041914
1772018051579917000,7.7199169921875,0.0670551821410656,-0.06558861671984195,-0.00983436159826815
1772018051599883800,7.7398837890625,-0.09319850817918778,-0.014064181187748909,0.009415040207654237
1772018051619851800,7.759851806640625,-0.1128688388109207,-0.011418342854082584,-0.04010212888894602
1772018051639819000,7.779819091796875,0.0404243648469448,-0.030679800423979758,-0.034407223449274896
1772018051659786000,7.799785888671875,0.010140870264172553,-0.03426291960775852,-0.02804974418133497
1772018051679753700,7.819753662109375,-0.006084288349747657,0.016396131266653537,0.02639204010218382
1772018051699721000,7.839720947265625,-0.03799216926395893,-0.003523497951030731,-0.022532003673166035
1772018051719688000,7.85968798828125,0.022646131572127342,0.008643909704685211,-0.01666362309642136
1772018051739654700,7.879654541015625,0.039510757133364674,0.008623159177601336,-0.014791034157574176
1772018051759623000,7.899622802734375,-0.021968086180090902,0.02552928579300642,-0.0007918627637438475
1772018051779590000,7.91958984375,0.017353870382905007,0.020351883155107497,-0.03301374153057113
1772018051799556900,7.939556884765625,0.06025543899834156,-0.002859481084346771,-0.041453927090391515
1772018051819524900,7.95952490234375,0.014285714983940124,-0.0026832477346062657,-0.06016438144771382
1772018051839491800,7.979491943359375,-0.04536591290235519,-0.03139379391223192,-0.04138601295333355
1772018051859458800,7.999458740234375,-0.013473814079165458,-0.053658524951338764,0.029454222418088465
1772018051879427000,8.019427001953124,-0.12155541861355304,-0.0805462396159768,0.010245225687790661
1772018051899393800,8.039393798828126,-0.14010697434842587,-0.0501888030141592,-0.0037945151784457266
1772018051919360800,8.05936083984375,-0.021658289578557012,-0.027053134359419344,-0.011376987930387258
1772018051939329000,8.0793291015625,0.017045827347040174,0.0033498949497938156,-0.024041768915299324
1772018051959296000,8.0992958984375,0.07809796968102455,0.03127104431539774,-0.020932660451438278
1772018051979262700,8.1192626953125,-0.019159458500146866,0.019926351219415665,-0.029189470534678547
1772018051999231000,8.13923095703125,-0.030245500659942626,0.027522505436837673,-0.02174636972080916
1772018052019198000,8.159197998046874,0.06936638169288635,0.007952712570130825,-0.01256077262116596
1772018052039164700,8.17916455078125,0.07486731719672679,-0.007363514505326747,-0.01993363947672769
1772018052059132000,8.1991318359375,-0.005960954231023788,-0.00783785401880741,-0.02332419523047283
1772018052079100000,8.219099853515624,-0.0498532874494791,-0.02091331643015146,-0.05802662050034851
1772018052099067000,8.23906689453125,0.026987375646829605,-0.041053602661192415,-0.06781427514636888
1772018052119033900,8.259033935546874,-0.028331775993108748,-0.07307546534389257,-0.021021215517725796
1772018052139001900,8.279001953125,-0.12126608027815818,-0.06290946063846349,-0.041793753504008054
1772018052158968800,8.29896875,-0.12505845829844475,-0.09750351189672947,-0.06718476333748549
1772018052178935800,8.318935791015624,0.03678513156175613,-0.08710399069637059,-0.035198921816237266
1772018052198903800,8.33890380859375,0.0958376245111227,-0.07283288875967264,-0.0430740391055122
1772018052218870800,8.358870849609374,-0.009543488892912864,-0.056501931683719156,-0.012408285473193973
1772018052238838000,8.378838134765624,-0.07633914331495761,-0.04191255757808685,-0.04316568117802962
1772018052258805800,8.3988056640625,0.059926937696337695,-0.021012685151398182,-0.012039433894492685
1772018052278772700,8.418772705078124,0.12113164024353026,-0.060868894721567625,-0.008951459550205617
1772018052298740000,8.438739990234374,0.01748012711107731,-0.007618658310174942,-0.06458910255478695
1772018052318707000,8.45870703125,0.02594751120507717,-0.04282528850883245,-0.006398742860089987
1772018052338674700,8.4786748046875,0.0569639962375164,-0.07740414219796657,0.03595240706466138
1772018052358642000,8.498641845703125,-0.050505029356479644,-0.06797142020314932,-0.009247410289477556
1772018052378609000,8.51860888671875,-0.08118366073668003,-0.052450025944411754,-0.0403993400035426
1772018052398577000,8.538576904296875,0.03272211990654468,-0.03510404660701751,-0.0936081301596947
1772018052418543900,8.5585439453125,0.10295417851805687,-0.06967384020686149,-0.06310145781291648
1772018052438510800,8.5785107421875,-0.05496317780911922,-0.07251637015640736,0.0011110299818217753
1772018052458478800,8.598478759765625,-0.1360486388683319,-0.04817191023379564,0.014101480990834534
1772018052478445800,8.61844580078125,-0.02985620908141136,-0.07527268312722445,-0.06674673724640161
1772018052498412800,8.638412841796875,0.08331307398080826,-0.059901218733191486,-0.01886542572332546
1772018052518380300,8.65838037109375,0.05869359650909901,-0.047617491221427916,-0.03159804778005928
1772018052538348300,8.678348388671875,-0.007051087555289268,0.0013540449574589728,-0.011724084335006773
1772018052558315000,8.69831494140625,0.02627133633196354,-0.003534603866934776,-0.061124988374486565
1772018052578282200,8.7182822265625,0.08377659983932971,-0.025255437287688254,-0.01889439608948305
1772018052598250200,8.738250244140625,0.0032750761479139324,-0.07711451160162687,0.001233341187238693
1772018052618217000,8.758217041015625,-0.14402794718444348,-0.03326192587167025,0.03802205294556916
1772018052638184200,8.77818408203125,-0.10645488011538982,-0.02124795521199703,0.0129930996238254
1772018052658152200,8.798152099609375,0.023540450063347814,-0.03512245904654264,0.009616079205088317
1772018052678119200,8.818119140625,0.07866495591402053,-0.09589081600308418,-0.008800232777558266
1772018052698086100,8.838086181640625,0.04897592009305954,-0.04804331541806459,-0.00846082648904994
1772018052718053000,8.85805322265625,-0.03768880240321159,-0.019218202950060367,-0.005822495608404279
1772018052738021000,8.878021240234375,0.000827098473906517,-0.06043430269658565,0.007291289519332349
1772018052757988000,8.897988037109375,-0.039434184765815734,-0.04382715902775526,-0.04237073140805587
1772018052777955000,8.917955078125,0.05338204609751701,-0.03948474590927362,-0.05056826731842011
1772018052797923000,8.937923095703125,0.028739772272109984,-0.06961977193206548,-0.005324391626846045
1772018052817890000,8.95789013671875,-0.13982523479759693,-0.04937894793599844,0.013754877776559442
1772018052837857000,8.97785693359375,-0.00866787510216236,-0.04559621452689171,0.0010643412958830595
1772018052857825000,8.997824951171875,0.08902209927737713,-0.0228963069409132,0.006562756049074232
1772018052877792000,9.0177919921875,0.11817454400360583,-0.023756138640642164,-0.01233401466058567
1772018052897759000,9.037759033203125,-0.01082943705022335,0.030954817973077295,-0.032870990325324236
1772018052917726000,9.057725830078125,-0.07571487393677234,0.0376382412597537,0.007702190141472965
1772018052937694000,9.07769384765625,0.011936521509289741,-0.0016854688689112662,-0.017027086113952098
1772018052957661200,9.0976611328125,0.08436404433846473,-0.04911386725902557,-0.020712441829498857
1772018052977628000,9.1176279296875,-0.004994739547371864,-0.0496244471296668,0.009687080348376184
1772018052997596000,9.137595947265625,-0.0665928253263235,-0.044106560491025446,-0.01622899453882128
1772018053017563100,9.157563232421875,-0.01298749186694622,-0.05780132384449243,-0.028028372599743306
1772018053037530000,9.177530029296875,-0.0003039513826370239,-0.11025456465929746,-0.04912899176292121
1772018053057497000,9.1974970703125,-0.05035831436216831,-0.058306935279071326,-0.01633314903303981
1772018053077465000,9.217465087890625,-0.15708149002492428,-0.019893617993593214,-0.01121025306135416
1772018053097432000,9.23743212890625,-0.05635550895035266,-0.02371931376159191,-0.010348868725355714
1772018053117399000,9.25739892578125,0.026180735439062117,-0.06206482650786638,-0.048446982581820335
1772018053137367000,9.277366943359375,0.03513736435472965,-0.023281799127161502,-0.013146975011285394
1772018053157334000,9.297333984375,-0.03213701349496841,-0.019169103111326694,-0.017236527613550424
1772018053177300000,9.317300048828125,-0.032089082700014114,0.028090076191723344,-0.014216321275848895
1772018053197268000,9.33726806640625,0.08113222281038761,0.02128068843781948,0.0034340843682177363
1772018053217235200,9.357235107421875,0.03882452843487263,-0.010431669904291629,0.02537296272013336
1772018053237202200,9.3772021484375,-0.09732055654525756,0.009852116450667381,-0.03950628188764676
1772018053257169000,9.3971689453125,-0.016640169155597687,0.021483809794485567,-0.003389094449020922
1772018053277137200,9.41713720703125,0.037352702316641805,-0.05419891543835401,-0.003467493447475135
1772018053297104100,9.437104248046875,0.011816694521903991,-0.08346826454252004,0.004475245717912912
1772018053317070800,9.45707080078125,-0.07109422839879989,-0.042813013549149036,0.0018365129784680902
1772018053337039000,9.4770390625,-0.12618249389231204,-0.04248597355186939,-0.04556128934398293
1772018053357006000,9.497006103515625,-0.008173954105377197,-0.023512685273587703,-0.01741972042704001
1772018053376973000,9.51697314453125,0.05951309619843959,-0.013145312777161598,-0.015941720296349375
1772018053396940000,9.53693994140625,0.03577624678015709,-0.027227321882545945,-0.019601320516131816
1772018053416908000,9.556907958984375,-0.027480712121725082,-0.005116320100426674,-0.019500253028143195
1772018053436875000,9.576875,0.04660334574282169,-0.0020171850413084028,0.010348960056900978
1772018053456842200,9.59684228515625,0.06758768158257007,-0.0022699907585978507,-0.0012417254230938852
1772018053476809000,9.61680908203125,0.04998012869954109,-0.001490238557755947,-0.02745661886008456
1772018053496777000,9.63677685546875,-0.04385609286129474,-0.0197787594422698,-0.04177996244067326
1772018053516744400,9.656744384765625,0.0026928923457860943,-0.005383738864958286,-0.0364652702239342
1772018053536711200,9.676711181640625,-0.00208440505862236,-0.04822948563992977,-0.02860494864499196
1772018053556681500,9.696681396484376,-0.08210194462537765,-0.030749650789797304,-0.03108980599697679
1772018053576648200,9.716648193359376,-0.08325520631372928,-0.03448416114300489,-0.023886085163243115
1772018053596615400,9.736615478515626,-0.010555296283960342,-0.0030792613148689267,-0.035021026232372965
1772018053616582400,9.75658251953125,0.03550152149200439,-0.04502747472822666,0.013582078492920846
1772018053636550400,9.77655029296875,-0.012283727511763572,-0.02641717454344034,-0.007981719468906521
1772018053656517400,9.796517333984376,-0.04984159701168537,-0.046367783421277994,-0.050664074109401554
1772018053676484400,9.816484375,-0.0038040684580802914,-0.02331160974353552,-0.003783354463614523
1772018053696451300,9.836451416015626,-0.043722237348556514,-0.03570990354567766,-0.042219669032189995
1772018053716419300,9.85641943359375,0.01975216369628906,-0.015412088665366171,-0.04832540202876553
1772018053736386300,9.87638623046875,0.11234510719776153,-0.052287236598134036,-0.007987601220421492
1772018053756353300,9.896353271484376,-0.014891279661655425,-0.06857347774952649,0.01589139661490917
1772018053776321500,9.916321533203124,-0.17218728922009466,-0.06514496460556983,0.03192806518571451
1772018053796288300,9.936288330078124,-0.17449147450923919,-0.052285190771520135,0.006299228008370846
1772018053816255200,9.956255126953126,-0.012840776872634886,-0.05341565610617399,-0.06247276798794046
1772018053836222500,9.976222412109376,0.017396540480852127,-0.03585603401809931,-0.05245851977812126
1772018053856190500,9.9961904296875,-0.016935937231779098,-0.015505612167716025,-0.01966013803128153
1772018053876157200,10.0161572265625,-0.041222237226366996,0.012086743634939194,-0.00504142823331058
1772018053896124400,10.03612451171875,0.009739888247847557,-0.001733399663865566,-0.029313115180656314
1772018053916092400,10.056092529296874,0.10343056385815143,-0.025091478897631168,-0.020721501918789
1772018053936059100,10.07605908203125,0.0620487521559,-0.02680968099236488,-0.04519521424425765
1772018053956026400,10.0960263671875,0.026872809356451033,0.024433307249844074,-0.008161807009857148
1772018053975993300,10.115993408203124,-0.06500818648338318,0.004748071309924125,-0.03894002630701288
1772018053995961300,10.13596142578125,-0.008428221127390861,0.008631634745001792,-0.03273393820850178
1772018054015928300,10.15592822265625,0.006747136172652244,-0.03721241706311702,-0.027328097109589725
1772018054035895300,10.175895263671874,0.0016980360895395277,-0.036492578355967996,0.0032146877301856874
1772018054055862500,10.195862548828124,-0.0424117392718792,-0.03336597076803446,0.001697652497049421
1772018054075830300,10.215830322265624,-0.05637129104137421,-0.03688362350016832,-0.021543412760924547
1772018054095797200,10.23579736328125,0.06251403158009051,-0.06453823088407516,-0.019739176350552588
1772018054115764500,10.255764404296874,-0.02223871981501579,-0.05094400529563427,0.015860015095956623
1772018054135731200,10.275731201171874,-0.07103110003471375,-0.00013677812218666077,-0.043579102550819517
1772018054155699200,10.29569921875,0.02493453477025032,-0.0437578931838274,-0.04141920283688232
1772018054175666400,10.31566650390625,0.033522914895415305,-0.060336687541007995,-0.03427656454062089
1772018054195633400,10.33563330078125,-0.03686754914820194,-0.028096505932509896,-0.04629628908764571
1772018054215601400,10.355601318359374,-0.017083821269869803,-0.03246288444846868,-0.055679125792440026
1772018054235568400,10.375568359375,0.06636135465800762,-0.06010258652418851,-0.0025324776196852324
1772018054255535400,10.395535400390624,-0.06902735899686813,-0.11593348707854748,-0.00004053293978795409
1772018054275502300,10.41550244140625,-0.12016074938476085,-0.03244914818406105,-0.025245975339598953
1772018054295470300,10.43547021484375,-0.04208849866688251,-0.030420272704958912,-0.030902612861804662
1772018054315437300,10.455437255859374,0.01753799477815628,0.004364332689344883,-0.04148297052178532
1772018054335404300,10.475404296875,0.0013116671204566955,-0.023567045809328554,-0.0011259352900087833
1772018054355371300,10.495371337890624,-0.027587679627537727,0.00336363121420145,-0.038451457338780165
1772018054375339300,10.51533935546875,0.08525719378590584,-0.021808219443261622,-0.07199437384260818
1772018054395306200,10.53530615234375,0.05006722246110439,-0.04643821830898523,-0.07585817313129081
1772018054415273500,10.5552734375,-0.11798632795512676,-0.03221037099212408,-0.04542511400999501
1772018054435240200,10.575240234375,-0.05580664289593696,-0.06699614543020725,-0.041704997508320955
1772018054455208200,10.595208251953125,0.03849719617664814,-0.07249269701987504,-0.05554653065502643
1772018054475175400,10.615175537109375,0.05333060817122459,-0.09432166699022054,-0.038383342272322624
1772018054495142100,10.63514208984375,-0.06580781242847442,-0.02914952211678028,-0.03569136324198916
1772018054515110100,10.655110107421875,-0.07046703641116618,-0.009916121597588062,0.026195056225359437
1772018054535077400,10.675077392578125,-0.07512742943763732,-0.019093699787557122,-0.03265731104202568
1772018054555044400,10.69504443359375,0.04704115263819694,-0.00604366407841444,-0.039634164317324756
1772018054575011300,10.71501123046875,0.08978490034341811,-0.02569265966117382,-0.03825109419478103
1772018054594979300,10.734979248046875,0.04874620299041271,0.03349953401982784,-0.0121637543939054
1772018054614946300,10.7549462890625,-0.016950550279021263,0.008550386202335357,-0.0027376996018923815
1772018054634913500,10.77491357421875,-0.014263503152132033,0.011497253309190273,-0.021603161857835947
1772018054654880300,10.79488037109375,0.08289981700479984,-0.009316109877824783,0.003428878470137715
1772018054674848300,10.81484814453125,-0.04030629142522812,-0.03354074281305074,-0.094760588130448
1772018054694815500,10.8348154296875,-0.2584042679488659,0.06537175909876823,0.0398511680688709
1772018054714782200,10.8547822265625,-0.09114157564938068,-0.05833031615465879,0.1095328079896979
1772018054734749400,10.87474951171875,0.31394086173176766,-0.15464812539815903,0.04529960620049387
1772018054754717400,10.894717529296875,0.5009919580847024,-0.1950271897986531,-0.019805775313358753
1772018054774684400,10.914684326171875,0.11612111860513687,-0.035542438024282454,-0.125438050466869
1772018054794651400,10.9346513671875,-0.5055149884670973,-0.017062486220896244,-0.07515946854371577
