time,seconds_elapsed,z,y,x
1772019787267757800,0.0857578125,0.03742396831512451,0.10478650033473969,0.28885698318481445
1772019787287724000,0.10572412109375,0.059704456478357315,0.15329651534557343,0.22881253063678741
1772019787307690000,0.12568994140625,0.08761138468980789,0.10218220204114914,0.21241705119609833
1772019787327656000,0.145656005859375,0.10537329316139221,0.07529452443122864,0.28375741839408875
1772019787347622000,0.165621826171875,0.10419860482215881,0.04334364831447601,0.3425702452659607
1772019787367588000,0.185588134765625,0.07239525765180588,0.007708298973739147,0.3608396649360657
1772019787387554000,0.205553955078125,0.043817367404699326,0.06612060219049454,0.3631727397441864
1772019787407520000,0.22552001953125,0.01720745489001274,0.11525832116603851,0.31690216064453125
1772019787427486000,0.24548583984375,0.0253695547580719,0.05857493728399277,0.28376272320747375
1772019787447452200,0.2654521484375,0.02007140778005123,0.016136417165398598,0.2675941288471222
1772019787467417900,0.28541796875,-0.02182009443640709,-0.014718050137162209,0.21604906022548676
1772019787487384000,0.305384033203125,-0.034607622772455215,-0.04496103525161743,0.12264201045036316
1772019787507350000,0.32535009765625,-0.022745180875062943,-0.026037951931357384,0.03435157239437103
1772019787527316000,0.34531591796875,-0.018154093995690346,-0.014193812385201454,-0.01993003860116005
1772019787547282000,0.365281982421875,-0.03501179441809654,0.009535623714327812,-0.022818908095359802
1772019787567248100,0.385248046875,-0.060022834688425064,0.046136923134326935,0.014742170460522175
1772019787587214000,0.405214111328125,-0.06653566658496857,0.028918510302901268,0.052475977689027786
1772019787607180000,0.425179931640625,-0.05963374301791191,0.029400020837783813,0.06772762537002563
1772019787627145000,0.44514501953125,-0.016803625971078873,0.02151239849627018,0.05666099861264229
1772019787647111000,0.46511083984375,0.015311338007450104,0.016113776713609695,0.02959941327571869
1772019787667077000,0.4850771484375,0.00033801328390836716,0.0006292238831520081,0.013005925342440605
1772019787687043000,0.50504296875,-0.0203423909842968,0.018246177583932877,0.005169964861124754
1772019787707009000,0.525009033203125,-0.016790587455034256,0.028143392875790596,-0.007145934272557497
1772019787726975000,0.54497509765625,-0.004183171316981316,0.0058370316401124,-0.009288192726671696
1772019787746941200,0.564941162109375,0.026067351922392845,-0.015350256115198135,0.021747205406427383
1772019787766907000,0.584906982421875,0.0114821158349514,0.0008994117379188538,0.04204489290714264
1772019787786873000,0.604873046875,0.006237341556698084,0.04331396520137787,0.04884049668908119
1772019787806839000,0.624839111328125,0.029279520735144615,0.04592294245958328,0.03786066919565201
1772019787826805000,0.644804931640625,0.034979283809661865,0.025224320590496063,0.019899513572454453
1772019787846771000,0.66477099609375,0.026575559750199318,-0.0007009059190750122,0.008901876397430897
1772019787866737000,0.68473681640625,0.005924686323851347,-0.008008347824215889,-0.011151468381285667
1772019787886703000,0.704703125,0.0030993707478046417,-0.01162958238273859,-0.02497340552508831
1772019787906668800,0.724668701171875,-0.003795705270022154,-0.0029914616607129574,-0.0024972790852189064
1772019787926635000,0.744635009765625,-0.011185654439032078,-0.005259696394205093,0.015166950412094593
1772019787946601000,0.76460107421875,-0.010234629735350609,-0.029233457520604134,0.005451460834592581
1772019787966566100,0.784566162109375,-0.004192129708826542,-0.026400137692689896,0.0019563434179872274
1772019787986532000,0.804531982421875,-0.004330039955675602,-0.013541985303163528,-0.010161182843148708
1772019788006498000,0.824498046875,-0.002982085570693016,-0.008291304111480713,-0.02498992532491684
1772019788026462500,0.84446240234375,-0.01419268548488617,0.004541289061307907,0.001990679884329438
1772019788046428400,0.864428466796875,-0.02210983633995056,-0.012145156972110271,0.021465718746185303
1772019788066394600,0.88439453125,-0.009445568546652794,-0.02250244840979576,0.02094746194779873
1772019788086360600,0.904360595703125,-0.006066348869353533,-0.012927046045660973,0.029151326045393944
1772019788106326500,0.924326416015625,-0.006494149100035429,-0.01604972779750824,0.03687009587883949
1772019788126292500,0.94429248046875,0.010367583483457565,-0.04324354976415634,0.013699537143111229
1772019788146258700,0.9642587890625,0.006634354591369629,-0.01865619607269764,0.0071218074299395084
1772019788166224400,0.984224365234375,-0.011832227930426598,0.01721060462296009,0.010093219578266144
1772019788186190600,1.004190673828125,0.0036705322563648224,0.006579668261110783,0.00041036331094801426
1772019788206156500,1.024156494140625,0.016695212572813034,-0.022306988015770912,-0.003881176933646202
1772019788226122500,1.04412255859375,0.004906440153717995,-0.017374396324157715,0.005781156942248344
1772019788246088400,1.06408837890625,-0.0009552286937832832,-0.02045237086713314,0.008842349983751774
1772019788266053400,1.084053466796875,0.023645401000976562,-0.017360158264636993,0.0011431366438046098
1772019788286019600,1.10401953125,0.02978159859776497,-0.01506156474351883,-0.011835791170597076
1772019788305985500,1.123985595703125,0.02295522578060627,-0.016213197261095047,-0.004880833439528942
1772019788325951500,1.143951416015625,0.011171890422701836,-0.0021340646781027317,0.009949941188097
1772019788345917400,1.16391748046875,0.013506053015589714,0.02249632030725479,0.017117168754339218
1772019788365883600,1.183883544921875,0.009002121165394783,0.012756369076669216,0.021482344716787338
1772019788385849600,1.203849609375,0.0009161611087620258,0.016105273738503456,0.03215204179286957
1772019788405815600,1.223815673828125,-0.00033711688593029976,-0.013140734285116196,0.018740616738796234
1772019788425781500,1.243781494140625,0.007578362710773945,-0.017018701881170273,-0.006112933624535799
1772019788445747700,1.263747802734375,0.005676968488842249,-0.01456950418651104,-0.031572893261909485
1772019788465713400,1.28371337890625,-0.0001558973453938961,-0.0038692443631589413,-0.0340069979429245
1772019788485679400,1.303679443359375,-0.01601225510239601,0.007305793464183807,-0.012758043594658375
1772019788505645600,1.3236455078125,0.01546154823154211,-0.014123468659818172,-0.0009944604244083166
1772019788525611500,1.343611572265625,0.03933049738407135,-0.026629524305462837,0.0010855937143787742
1772019788545577500,1.363577392578125,0.02564200572669506,-0.02533060312271118,-0.008615615777671337
1772019788565542400,1.38354248046875,0.033210620284080505,-0.008314971812069416,-0.02980201132595539
1772019788585508600,1.403508544921875,0.04114750400185585,-0.0029132943600416183,-0.031314678490161896
1772019788605474600,1.423474609375,0.01711936667561531,-0.01413571834564209,-0.020938873291015625
1772019788625440500,1.4434404296875,0.0019135796464979649,-0.00816305447369814,0.002477505709975958
1772019788645406500,1.463406494140625,0.01864253170788288,-0.009260387159883976,0.00984792597591877
1772019788665372700,1.48337255859375,0.025678563863039017,-0.010438991710543633,-0.0002602237509563565
1772019788685338600,1.503338623046875,-0.005876094568520784,0.002866446040570736,-0.012247653678059578
1772019788705304300,1.52330419921875,-0.023158105090260506,-0.005022970959544182,-0.03195120766758919
1772019788725270500,1.5432705078125,-0.014070505276322365,-0.00928714033216238,-0.03804836422204971
1772019788745236500,1.563236572265625,-0.0034915064461529255,0.02676110342144966,-0.017136938869953156
1772019788765202400,1.583202392578125,0.00010323431342840195,0.02710733562707901,0.0018487239722162485
1772019788785168400,1.60316845703125,0.0044132983312010765,0.0007029250264167786,0.013270476832985878
1772019788805134600,1.623134521484375,0.01097935065627098,0.0089303283020854,0.009471091441810131
1772019788825099500,1.643099609375,0.019698675721883774,0.04436183720827103,0.0033492776565253735
1772019788845065500,1.6630654296875,0.028893426060676575,0.04994511231780052,-0.0035387002862989902
1772019788865031400,1.683031494140625,0.009296901524066925,0.06062363088130951,0.0038861706852912903
1772019788884997600,1.70299755859375,-0.007186665199697018,0.08399182558059692,-0.018195172771811485
1772019788904963600,1.722963623046875,-0.0039904797449707985,0.02748349867761135,-0.05672656372189522
1772019788924929500,1.742929443359375,-0.0007192762568593025,0.0069251954555511475,-0.08172876387834549
1772019788944895500,1.7628955078125,0.015648342669010162,-0.013007422909140587,-0.10117687284946442
1772019788964861400,1.782861328125,0.011202528141438961,-0.017584340646862984,-0.0977025106549263
1772019788984827400,1.802827392578125,-0.003632973413914442,0.019556555896997452,-0.062494341284036636
1772019789004793300,1.82279345703125,-0.011726089753210545,0.03193715959787369,-0.037507086992263794
1772019789024759800,1.842759765625,0.006589433643966913,0.044226959347724915,-0.025619395077228546
1772019789044726000,1.86272607421875,0.022780220955610275,0.048948630690574646,-0.022106559947133064
1772019789064691000,1.88269091796875,0.02510056644678116,0.04510460048913956,-0.0045161060988903046
1772019789084656600,1.90265673828125,0.03329458087682724,0.060289181768894196,0.027585890144109726
1772019789104622800,1.922622802734375,0.050965357571840286,0.03744420036673546,0.040936179459095
1772019789124588800,1.9425888671875,0.05330394580960274,0.024351557716727257,0.03378985822200775
1772019789144554800,1.9625546875,0.04825834929943085,0.039855509996414185,0.03274524584412575
1772019789164520700,1.982520751953125,0.03777794912457466,0.054661355912685394,0.02504418045282364
1772019789184487000,2.00248681640625,0.01681664027273655,0.03376292064785957,0.016461193561553955
1772019789204452900,2.022452880859375,0.009047368541359901,0.042908892035484314,0.00911046750843525
1772019789224418800,2.042418701171875,0.022559277713298798,0.04706136882305145,0.011951679363846779
1772019789244384800,2.062384765625,0.032063864171504974,0.029807645827531815,0.018553005531430244
1772019789264351000,2.08235107421875,0.01791113242506981,0.012535102665424347,0.024082105606794357
1772019789284316700,2.102316650390625,0.0050506917759776115,0.01876673474907875,0.024586118757724762
1772019789304281900,2.12228173828125,0.016350148245692253,0.026882432401180267,0.0075791822746396065
1772019789324247800,2.142247802734375,0.025808732956647873,0.02607271447777748,-0.021523715928196907
1772019789344213800,2.1622138671875,0.0034332245122641325,0.04808766022324562,-0.025445375591516495
1772019789364180000,2.182179931640625,-0.006864422000944614,0.09255868196487427,-0.005767264869064093
1772019789384145700,2.202145751953125,-0.006109252572059631,0.05821546912193298,-0.010732321068644524
1772019789404112000,2.22211181640625,-0.019753962755203247,0.022466501221060753,-0.02187497355043888
1772019789424077800,2.242077880859375,-0.01710135117173195,0.04195113480091095,-0.028576960787177086
1772019789444043800,2.262043701171875,0.019105559214949608,0.039493218064308167,-0.014699112623929977
1772019789464009700,2.282009765625,0.029131198301911354,0.02599193900823593,0.028598155826330185
1772019789483976000,2.301975830078125,0.010259704664349556,0.03519290313124657,0.0778794139623642
1772019789503942000,2.32194189453125,0.002271051751449704,0.021811405196785927,0.0735042616724968
1772019789523907000,2.341906982421875,0.0025174603797495365,0.01957966759800911,0.04484784975647926
1772019789543872800,2.361872802734375,-0.007292324211448431,0.04204844683408737,0.03534366562962532
1772019789563838700,2.381838623046875,-0.02156350575387478,0.036535538733005524,0.009049084037542343
1772019789583805000,2.401804931640625,-0.014175462536513805,0.01907254382967949,-0.023432033136487007
1772019789603770600,2.4217705078125,0.016702823340892792,0.01162816770374775,-0.026354573667049408
1772019789623736800,2.44173681640625,0.03116615116596222,-0.015820585191249847,-0.02142387628555298
1772019789643702800,2.461702880859375,0.04873908683657646,-0.04728983715176582,-0.02978327125310898
1772019789663669000,2.4816689453125,0.07595659047365189,-0.029788609594106674,-0.03531865030527115
1772019789683634700,2.501634765625,0.0655587837100029,-0.012744240462779999,-0.029989801347255707
1772019789703601000,2.521600830078125,0.03235921636223793,-0.0033520585857331753,-0.02352871000766754
1772019789723565800,2.54156591796875,0.033646587282419205,0.015606674365699291,-0.03279703110456467
1772019789743532000,2.561531982421875,0.05197435989975929,-0.006092613562941551,-0.04628554359078407
1772019789763497700,2.581497802734375,0.057035163044929504,-0.010110564529895782,-0.05031329393386841
1772019789783463700,2.601463623046875,0.06060030683875084,0.000024273991584777832,-0.040677331387996674
1772019789803430000,2.621429931640625,0.06168371066451073,0.004453818313777447,-0.027795763686299324
1772019789823395800,2.641395751953125,0.05110613629221916,0.012893514707684517,-0.015501681715250015
1772019789843361800,2.66136181640625,0.03802958130836487,0.012742681428790092,-0.012851978652179241
1772019789863327700,2.68132763671875,0.030269797891378403,0.02542968839406967,-0.0019141025841236115
1772019789883294000,2.7012939453125,0.03266115114092827,0.02720208838582039,0.0016408365918323398
1772019789903259600,2.721259765625,0.0171717070043087,0.01800445467233658,-0.0014815848553553224
1772019789923224800,2.741224853515625,-0.005199444945901632,0.007186706177890301,0.00516459671780467
1772019789943190800,2.761190673828125,-0.025062205269932747,0.019675858318805695,0.019117264077067375
1772019789963157000,2.781156982421875,-0.06343618780374527,0.013576546683907509,-0.001166034722700715
1772019789983123000,2.801123046875,-0.07498804479837418,0.015439831651747227,-0.040872931480407715
1772019790003089000,2.8210888671875,-0.04878580570220947,0.0008407076820731163,-0.06836076825857162
1772019790023055000,2.84105517578125,-0.009099478833377361,-0.0235177930444479,-0.05124049261212349
1772019790043021000,2.86102099609375,-0.0023130117915570736,-0.03204815089702606,-0.001839125994592905
1772019790062986800,2.88098681640625,-0.008390145376324654,-0.022660762071609497,0.03640758991241455
1772019790082953000,2.900952880859375,0.008814874105155468,-0.01699891872704029,0.029668206349015236
1772019790102919000,2.9209189453125,0.02150147408246994,-0.017284026369452477,0.003095323918387294
1772019790122884000,2.940884033203125,0.007516844198107719,-0.047983091324567795,-0.02675381675362587
1772019790142850000,2.96085009765625,-0.029130844399333,-0.054170750081539154,-0.03014613501727581
1772019790162816000,2.98081591796875,-0.02776866964995861,-0.0097291124984622,-0.01257420051842928
1772019790182782000,3.000781982421875,-0.054523952305316925,0.039021752774715424,0.01921689324080944
1772019790202748200,3.020748046875,-0.05336844176054001,0.05457129329442978,0.04854109138250351
1772019790222713900,3.0407138671875,-0.030045773833990097,0.033143408596515656,0.0527612566947937
1772019790242680000,3.06068017578125,-0.00006147660315036774,-0.012528613209724426,0.05156723037362099
1772019790262646000,3.08064599609375,0.012447390705347061,-0.024131208658218384,0.06404787302017212
1772019790282612000,3.100612060546875,0.0014216378331184387,-0.006384167820215225,0.05176670104265213
1772019790302578000,3.120577880859375,-0.024362390860915184,0.027028802782297134,0.02892250195145607
1772019790322542800,3.14054296875,-0.021047018468379974,0.03811868652701378,-0.006924698129296303
1772019790342509000,3.160509033203125,0.013932568021118641,0.012815904803574085,-0.02683490328490734
1772019790362475000,3.18047509765625,0.031932976096868515,-0.018045807257294655,-0.026110636070370674
1772019790382441000,3.20044091796875,0.02706298790872097,-0.051857542246580124,-0.019708937034010887
1772019790402407000,3.220406982421875,0.01657765544950962,-0.05198991298675537,-0.010076546110212803
1772019790422373000,3.240373046875,-0.009373584762215614,0.013479339890182018,-0.013031579554080963
1772019790442338800,3.2603388671875,0.04475848749279976,-0.004796475172042847,0.010310727171599865
1772019790462305000,3.280304931640625,0.03621383756399155,0.01128619909286499,0.029201731085777283
1772019790482271000,3.30027099609375,0.02679985947906971,0.018044156953692436,0.025065431371331215
1772019790502236000,3.32023583984375,0.022106410935521126,-0.007743762340396643,0.008563052862882614
1772019790522202000,3.3402021484375,0.02405393496155739,-0.009904070757329464,0.0016114929458126426
1772019790542167800,3.360167724609375,0.04023001715540886,0.0038492949679493904,0.016524026170372963
1772019790562134000,3.380134033203125,0.05208348110318184,0.006729028187692165,0.034364793449640274
1772019790582100000,3.400099853515625,0.03295299783349037,0.0018063699826598167,0.056564655154943466
1772019790602066000,3.42006591796875,-0.006634932477027178,-0.008127227425575256,0.06490684300661087
1772019790622032000,3.440031982421875,-0.023228449746966362,-0.0053268661722540855,0.04885905608534813
1772019790641998000,3.459998046875,-0.016483165323734283,0.02077442966401577,0.020605169236660004
1772019790661964000,3.479964111328125,-0.011341163888573647,0.01646604761481285,0.007135311607271433
1772019790681929000,3.499928955078125,-0.02042018063366413,0.01286719273775816,0.02156738005578518
1772019790701895000,3.51989501953125,-0.011297192424535751,0.014748228713870049,0.037221960723400116
1772019790721860900,3.53986083984375,0.008354810066521168,0.00771475862711668,0.03164665028452873
1772019790741827000,3.5598271484375,0.004875225014984608,0.009832085110247135,0.028621967881917953
1772019790761793000,3.57979296875,0.0029956158250570297,0.02711910754442215,0.027678372338414192
1772019790781759000,3.599759033203125,0.014424210414290428,0.014475837349891663,0.005644584074616432
1772019790801725000,3.619724853515625,0.003412510734051466,0.0074788648635149,-0.013867853209376335
1772019790821691100,3.639691162109375,-0.02091466635465622,0.016111500561237335,-0.012717900797724724
1772019790841656800,3.65965673828125,-0.015793737024068832,0.007970971055328846,-0.02126530557870865
1772019790861621800,3.679621826171875,0.010315759107470512,0.004017537459731102,-0.024205975234508514
1772019790881588000,3.699587890625,0.019817017018795013,-0.004416269715875387,-0.020462509244680405
1772019790901554000,3.719553955078125,0.01713903620839119,-0.03540889918804169,-0.009917598217725754
1772019790921519900,3.739519775390625,0.006974188610911369,-0.023006731644272804,0.002782360650599003
1772019790941485800,3.75948583984375,0.003015665803104639,0.007659833878278732,-0.010066592134535313
1772019790961452000,3.7794521484375,0.01713360846042633,0.006332051008939743,-0.03717732056975365
1772019790981418000,3.79941796875,0.030131569132208824,-0.024242404848337173,-0.04968724772334099
1772019791001384000,3.819384033203125,0.03229372203350067,-0.04481930285692215,-0.027877025306224823
1772019791021349000,3.83934912109375,0.043924614787101746,-0.0443977415561676,0.008375524543225765
1772019791041315300,3.8593154296875,0.03670712187886238,-0.013863642700016499,0.04504088684916496
1772019791061281300,3.87928125,0.01009477861225605,0.000637236051261425,0.0480106882750988
1772019791081247000,3.8992470703125,0.01289629377424717,0.016395926475524902,0.017541468143463135
1772019791101213200,3.919213134765625,0.014392031356692314,0.03914656490087509,0.0004020485794171691
1772019791121179100,3.93917919921875,-0.007203183602541685,0.03205160051584244,0.008060610853135586
1772019791141145300,3.959145263671875,-0.016847912222146988,0.014622845686972141,0.010338302701711655
1772019791161111000,3.979111083984375,-0.01948356069624424,0.00020692311227321625,0.006324748042970896
1772019791181076200,3.999076171875,-0.03231266140937805,-0.002072578761726618,-0.0024964185431599617
1772019791201042200,4.019042236328125,-0.031273432075977325,-0.020930107682943344,-0.030865220353007317
1772019791221008400,4.03900830078125,-0.01565609872341156,-0.022263091057538986,-0.04498278349637985
1772019791240974000,4.05897412109375,-0.019170697778463364,-0.015231741592288017,-0.02600148878991604
1772019791260940300,4.078940185546875,0.000044541433453559875,0.001917150802910328,-0.02048315294086933
1772019791280906200,4.09890625,0.025544125586748123,-0.006143450271338224,-0.019459858536720276
1772019791300872400,4.11887255859375,0.0069023785181343555,-0.004786007571965456,0.00247249286621809
1772019791320838100,4.138838134765625,0.009863538667559624,0.006324241869151592,0.013221528381109238
1772019791340803000,4.158802978515625,0.042626362293958664,-0.0023671393282711506,-0.011460082605481148
1772019791360769300,4.178769287109375,0.0430045910179615,0.010984400287270546,-0.005659462418407202
1772019791380735200,4.1987353515625,0.026439815759658813,0.02859107404947281,0.02614065445959568
1772019791400701200,4.218701171875,0.038369860500097275,0.026919033378362656,0.023654883727431297
1772019791420667100,4.238667236328125,0.03165468946099281,0.007247930392622948,0.0015679410425946116
1772019791440633300,4.25863330078125,0.025648824870586395,0.0032493751496076584,-0.013345903716981411
1772019791460599300,4.278599365234375,0.04012667015194893,-0.007593314163386822,-0.01989687606692314
1772019791480565200,4.298565185546875,0.02185259945690632,-0.028085878118872643,-0.025343023240566254
1772019791500530200,4.3185302734375,-0.011228697374463081,-0.014988770708441734,-0.016771525144577026
1772019791520496000,4.33849609375,-0.008184920996427536,0.004299425520002842,-0.010987239889800549
1772019791540462300,4.35846240234375,0.004084582440555096,-0.009442633017897606,-0.025795239955186844
1772019791560428000,4.378427978515625,-0.01296771690249443,-0.01662055030465126,-0.04499984532594681
1772019791580394200,4.398394287109375,0.0006682793609797955,-0.0001575220376253128,-0.04446905851364136
1772019791600360200,4.418360107421875,0.019184980541467667,0.005811616778373718,-0.01415002066642046
1772019791620326400,4.438326416015625,0.0028975317254662514,-0.01493317261338234,0.011259431950747967
1772019791640291300,4.458291259765625,0.0017073068302124739,-0.03550109267234802,0.006613824516534805
1772019791660257000,4.478257080078125,0.013285709545016289,-0.0057607246562838554,-0.00040052528493106365
1772019791680223200,4.49822314453125,0.007177427411079407,0.031125951558351517,-0.00017085950821638107
1772019791700189200,4.518189208984375,-0.011271804571151733,0.032447315752506256,0.0009197238832712173
1772019791720155100,4.538155029296875,-0.01693924516439438,0.004055209457874298,0.00028256443329155445
1772019791740121000,4.55812109375,-0.012196062132716179,-0.005399096757173538,-0.003760789055377245
1772019791760087300,4.57808740234375,-0.005251266993582249,-0.014527900144457817,-0.016114922240376472
1772019791780052200,4.59805224609375,0.005709632765501738,-0.0035061012022197247,-0.011323370970785618
1772019791800018400,4.618018310546875,0.01063753291964531,0.01754680462181568,0.003503229469060898
1772019791819984100,4.637984130859375,0.007561826147139072,0.0080561563372612,0.005308733321726322
1772019791839950300,4.657950439453125,0.008713293820619583,0.0073430705815553665,0.014014854095876217
1772019791859916300,4.677916259765625,0.03302382305264473,0.006843661889433861,0.04253295063972473
1772019791879882000,4.697882080078125,0.015026899054646492,0.03811326622962952,0.11087630689144135
1772019791899848200,4.71784814453125,-0.033546194434165955,0.0657399594783783,0.16474871337413788
1772019791919813000,4.737813232421875,-0.07967500388622284,0.05870066583156586,0.15009868144989014
1772019791939779300,4.757779296875,-0.1116625964641571,0.054745160043239594,0.08112801611423492
1772019791959745300,4.777745361328125,-0.10195405036211014,0.09005209803581238,0.022837789729237556
1772019791979711200,4.797711181640625,-0.08081921190023422,0.08792299032211304,0.010319054126739502
1772019791999677200,4.81767724609375,-0.09224625676870346,0.08218847960233688,0.03867797926068306
1772019792019643400,4.837643310546875,-0.09250222891569138,0.05058857798576355,0.05913720652461052
1772019792039608800,4.85760888671875,-0.06877660006284714,-0.0066168541088700294,0.03452000394463539
1772019792059573800,4.87757373046875,-0.09244588762521744,-0.0031061149202287197,0.0035186954773962498
1772019792079539700,4.897539794921875,-0.10025838017463684,0.0357370525598526,-0.0135728120803833
1772019792099505700,4.917505615234375,-0.06315959990024567,0.04321492835879326,-0.0348937027156353
1772019792119471900,4.937471923828125,-0.05612623319029808,0.012439288198947906,-0.055736374109983444
1772019792139437600,4.9574375,-0.0473276749253273,-0.016794731840491295,-0.058836184442043304
1772019792159403800,4.97740380859375,0.0006352108903229237,0.01486000046133995,-0.020330317318439484
1772019792179369700,4.99736962890625,0.008042121306061745,0.0033139074221253395,0.02812189608812332
1772019792199335000,5.0173349609375,-0.0057072690688073635,0.003388269804418087,0.06501800566911697
1772019792219300900,5.03730078125,0.004153870977461338,0.008859552443027496,0.047773491591215134
1772019792239266600,5.0572666015625,-0.0028376560658216476,0.007272819057106972,-0.00958113931119442
1772019792259232800,5.077232666015625,-0.04196659103035927,0.008263170719146729,-0.037776701152324677
1772019792279198700,5.09719873046875,-0.05070126801729202,0.02342093735933304,-0.03383360058069229
1772019792299164700,5.11716455078125,-0.048452697694301605,0.02218974009156227,-0.006220076233148575
1772019792319130600,5.137130615234375,-0.04815167561173439,-0.0023297197185456753,0.009140079841017723
1772019792339095800,5.157095703125,-0.012777566909790039,-0.011514471843838692,0.005142150446772575
1772019792359061800,5.177061767578125,0.010254429653286934,-0.0245894156396389,0.007801830302923918
1772019792379028000,5.197028076171875,-0.0036282786168158054,-0.0132777513936162,0.021448418498039246
1772019792398993700,5.21699365234375,-0.030489202588796616,0.009301682002842426,0.0150592140853405
1772019792418960000,5.2369599609375,-0.03616718202829361,0.03565020114183426,0.006338005885481834
1772019792438925800,5.25692578125,-0.0019811620004475117,0.0213150791823864,0.004974753595888615
1772019792458890800,5.276890869140625,0.02156047336757183,-0.021724339574575424,0.018017973750829697
1772019792478856700,5.296856689453125,0.0022284265141934156,-0.06058269366621971,0.03469429537653923
1772019792498821600,5.316821533203125,-0.0008893716149032116,-0.01802922785282135,0.041795212775468826
1772019792518787800,5.336787841796875,-0.025699272751808167,0.054928429424762726,0.053142547607421875
1772019792538753800,5.35675390625,-0.06022428721189499,0.06896215677261353,0.04927458614110947
1772019792558719700,5.3767197265625,-0.0681023895740509,0.011090671643614769,0.017039937898516655
1772019792578685700,5.396685791015625,-0.0457167811691761,-0.007878489792346954,0.004193759523332119
1772019792598650600,5.416650634765625,-0.037909191101789474,0.01146218553185463,0.035675518214702606
1772019792618616800,5.436616943359375,-0.05175144970417023,-0.026785582304000854,0.05929391458630562
1772019792638582800,5.456582763671875,-0.05172645300626755,-0.06734644621610641,0.03958399221301079
1772019792658548700,5.476548828125,-0.03559066727757454,-0.04730444774031639,0.004567977041006088
1772019792678514700,5.4965146484375,-0.04819801449775696,-0.02444807067513466,-0.005621554795652628
1772019792698481000,5.51648095703125,-0.060815468430519104,0.019312746822834015,0.012965552508831024
1772019792718446800,5.53644677734375,-0.061227597296237946,0.005785004235804081,0.029179401695728302
1772019792738411800,5.556411865234375,-0.05763751640915871,0.0051489900797605515,0.054861072450876236
1772019792758377700,5.576377685546875,-0.07758168131113052,0.011094545014202595,0.06760098040103912
1772019792778343700,5.59634375,-0.10981013625860214,-0.00508887879550457,0.0531165711581707
1772019792798310000,5.616309814453125,-0.11701592803001404,0.010664808563888073,0.030377961695194244
1772019792818275600,5.636275634765625,-0.09903641045093536,0.0258302241563797,0.005938281305134296
1772019792838241800,5.65624169921875,-0.0927978977560997,0.02879093773663044,0.009321549907326698
1772019792858206700,5.676206787109375,-0.07910966128110886,0.038625508546829224,0.023582501336932182
1772019792878172700,5.696172607421875,-0.052139755338430405,0.026552308350801468,0.029016686603426933
1772019792898140700,5.716140625,-0.043377142399549484,0.00943559966981411,0.031009381636977196
1772019792918107000,5.73610693359375,-0.0472833588719368,0.000049647875130176544,0.017091842368245125
1772019792938071800,5.75607177734375,-0.044479671865701675,-0.014218969270586967,-0.014268866740167141
1772019792958037800,5.776037841796875,-0.0376599058508873,0.013985756784677505,-0.04223646968603134
1772019792978003700,5.796003662109375,-0.028840098530054092,0.0390140637755394,-0.045120660215616226
1772019792997970000,5.815969970703125,-0.022476408630609512,0.017335714772343636,-0.026696009561419487
1772019793017936000,5.835935791015625,-0.00802229717373848,-0.023306814953684807,-0.021261556074023247
1772019793037901600,5.855901611328125,0.009781702421605587,-0.03511306643486023,-0.030741317197680473
1772019793057866800,5.87586669921875,0.0083738649263978,-0.03633692115545273,-0.05106205493211746
1772019793077832700,5.895832763671875,-0.014846110716462135,-0.02391541749238968,-0.06418436020612717
1772019793097799000,5.915798828125,-0.01262645609676838,0.005096391774713993,-0.04155842959880829
1772019793117764600,5.9357646484375,-0.0036920118145644665,0.008695836178958416,0.0025111944414675236
1772019793137730600,5.95573046875,-0.027637381106615067,0.02457239478826523,0.04699688032269478
1772019793157696800,5.97569677734375,-0.051291078329086304,0.050302669405937195,0.07216521352529526
1772019793177661700,5.99566162109375,-0.05322728678584099,0.04857920855283737,0.0637890174984932
1772019793197628000,6.0156279296875,-0.06565438210964203,0.0379331149160862,0.03554142266511917
1772019793217593600,6.035593505859375,-0.08567753434181213,0.016290070489048958,0.01282211858779192
1772019793237559800,6.055559814453125,-0.12157367914915085,-0.0009052478708326817,-0.0060563297010958195
1772019793257525800,6.07552587890625,-0.13291598856449127,-0.01241410244256258,-0.03123229742050171
1772019793277491700,6.09549169921875,-0.12012801319360733,-0.04040981084108353,-0.06411822885274887
1772019793297456600,6.11545654296875,-0.1061810851097107,-0.04498501867055893,-0.09416436403989792
1772019793317422600,6.135422607421875,-0.0749857947230339,-0.03248412907123566,-0.09542913734912872
1772019793337388800,6.155388916015625,-0.011752954684197903,-0.030218683183193207,-0.04921647161245346
1772019793357354800,6.175354736328125,0.03222029656171799,-0.024112239480018616,0.020284529775381088
1772019793377320700,6.19532080078125,0.0672530010342598,-0.02084388956427574,0.07276841998100281
1772019793397285600,6.21528564453125,0.07718577235937119,-0.006026746705174446,0.10469730943441391
1772019793417251800,6.235251953125,0.012036582455039024,0.022998813539743423,0.10158980637788773
1772019793437217800,6.2552177734375,-0.05084104835987091,0.01714308001101017,0.05639980360865593
1772019793457183500,6.27518359375,-0.05515293404459953,-0.006144814193248749,-0.030004456639289856
1772019793477149700,6.295149658203125,-0.0064169797115027905,-0.017329202964901924,-0.08330215513706207
1772019793497115600,6.31511572265625,0.032601840794086456,-0.017105940729379654,-0.064239002764225
1772019793517080800,6.335080810546875,0.05350605770945549,-0.023729488253593445,0.0038851932622492313
1772019793537046800,6.355046875,0.07538510859012604,-0.03853984922170639,0.06344283372163773
1772019793557012700,6.3750126953125,0.07441068440675735,-0.023524219170212746,0.06307875365018845
1772019793576978700,6.394978759765625,0.06275274604558945,0.0036084232851862907,0.025497274473309517
1772019793596945000,6.41494482421875,0.04852811619639397,-0.002088789362460375,-0.02035396359860897
1772019793616909800,6.434909912109375,0.042682282626628876,-0.012413096614181995,-0.03923417255282402
1772019793636875500,6.45487548828125,0.046906307339668274,0.013808684423565865,-0.007415643893182278
1772019793656841700,6.474841796875,0.040789149701595306,0.018642114475369453,0.019859112799167633
1772019793676807700,6.4948076171875,0.03533884510397911,-0.04833952337503433,0.0074975090101361275
1772019793696774000,6.51477392578125,0.03730319067835808,-0.07603026926517487,-0.03705611079931259
1772019793716739600,6.534739501953125,0.03863382712006569,-0.05486580729484558,-0.07837959378957748
1772019793736704800,6.554704833984375,0.04497724771499634,-0.04173843562602997,-0.08228124678134918
1772019793756670700,6.574670654296875,0.05348667502403259,-0.03722851723432541,-0.0358857698738575
1772019793776636700,6.59463671875,0.05708906054496765,-0.002537006512284279,0.014564836397767067
1772019793796602600,6.6146025390625,0.06950826942920685,0.009766124188899994,0.03112960048019886
1772019793816568600,6.634568603515625,0.06379690766334534,-0.026188146322965622,0.023836420848965645
1772019793836533800,6.65453369140625,0.012053762562572956,-0.03152672201395035,0.021645817905664444
1772019793856499700,6.674499755859375,-0.030841615051031113,-0.004931949079036713,-0.0013989201979711652
1772019793876466000,6.6944658203125,-0.03629367798566818,-0.0034020813181996346,-0.028739599511027336
1772019793896431600,6.714431640625,-0.029813257977366447,-0.006593408063054085,-0.04130198806524277
1772019793916397800,6.734397705078125,-0.022645829245448112,-0.02886270172894001,-0.025579260662198067
1772019793936362800,6.75436279296875,-0.014284125529229641,-0.037567976862192154,0.002699807286262512
1772019793956328700,6.77432861328125,-0.004359021782875061,-0.027294717729091644,0.016408564522862434
1772019793976294700,6.794294677734375,0.0023859303910285234,-0.027173925191164017,-0.0018818951211869717
1772019793996260600,6.814260498046875,0.011395936831831932,-0.017855793237686157,-0.013760925270617008
1772019794016226800,6.834226806640625,0.022021176293492317,-0.010922376066446304,-0.010009046643972397
1772019794036192800,6.85419287109375,0.0357789546251297,-0.03618254512548447,-0.001916638808324933
1772019794056158000,6.874157958984375,0.04712224006652832,-0.03695172071456909,0.0042830565944314
1772019794076124000,6.8941240234375,0.03031027503311634,-0.04531686007976532,0.012178399600088596
1772019794096090000,6.914090087890625,0.0030875722877681255,-0.04120542109012604,-0.00272320955991745
1772019794116056000,6.93405615234375,0.0024177415762096643,-0.024554111063480377,-0.029562532901763916
1772019794136021800,6.954021728515625,-0.009045930579304695,-0.0011056982912123203,-0.021957319229841232
1772019794155987000,6.973987060546875,-0.019075527787208557,0.034405194222927094,-0.0005861406098119915
1772019794175953000,6.993952880859375,-0.001302208285778761,0.04023251309990883,0.01290184911340475
1772019794195919000,7.013919189453125,0.02243969775736332,0.008673720061779022,0.0038606571033596992
1772019794215884800,7.033884765625,0.04287530854344368,-0.005554668605327606,-0.007262960076332092
1772019794235851000,7.05385107421875,0.06653954088687897,-0.006066744215786457,-0.020710714161396027
1772019794255816000,7.07381591796875,0.08534906059503555,-0.08448198437690735,-0.04845738038420677
1772019794275782000,7.093781982421875,0.09910864382982254,-0.08817319571971893,-0.06448777765035629
1772019794295748000,7.113748046875,0.11186430603265762,-0.010952663607895374,-0.052151333540678024
1772019794315713800,7.1337138671875,0.1147974282503128,0.048528023064136505,-0.0066819763742387295
1772019794335680000,7.153679931640625,0.1264209896326065,0.03505086153745651,0.03300897032022476
1772019794355645000,7.17364501953125,0.12773765623569489,0.018465230241417885,0.04924013838171959
1772019794375611100,7.193611083984375,0.09991717338562012,0.027932902798056602,0.026627754792571068
1772019794395576800,7.213576904296875,0.05603710189461708,0.011906130239367485,-0.01143359299749136
1772019794415542800,7.233542724609375,0.020147819072008133,-0.025066550821065903,-0.05535299330949783
1772019794435509000,7.253509033203125,0.03997871279716492,-0.04442983493208885,-0.06390456110239029
1772019794455474000,7.273473876953125,0.0466778539121151,-0.04853200912475586,-0.019602062180638313
1772019794475440000,7.293440185546875,0.02207024209201336,-0.039070598781108856,0.01976078934967518
1772019794495405800,7.31340576171875,0.008799051865935326,-0.015653476119041443,0.03158431500196457
1772019794515372000,7.3333720703125,-0.004588309675455093,0.017480991780757904,0.013204100541770458
1772019794535338000,7.353337890625,-0.014290353283286095,0.01437661238014698,-0.009963811375200748
1772019794555303000,7.373302978515625,-0.0208682119846344,0.02065228298306465,-0.021220453083515167
1772019794575268900,7.393268798828125,-0.013454120606184006,0.003647269681096077,-0.021842576563358307
1772019794595234800,7.41323486328125,-0.0005009514279663563,-0.02118622325360775,-0.01748007722198963
1772019794615201000,7.433200927734375,0.014222829602658749,-0.026478039100766182,0.007684527896344662
1772019794635167000,7.4531669921875,-0.009196667931973934,-0.016528774052858353,0.008130878210067749
1772019794655132200,7.473132080078125,-0.02403954416513443,-0.011218946427106857,-0.02007090114057064
1772019794675097900,7.493097900390625,-0.044777072966098785,-0.011894183233380318,-0.05692613869905472
1772019794695064000,7.51306396484375,-0.06433644145727158,0.0035168910399079323,-0.07972704619169235
1772019794715030000,7.533030029296875,-0.05092581734061241,0.01024562492966652,-0.09375779330730438
1772019794734996000,7.552995849609375,-0.023919880390167236,0.012055696919560432,-0.07138551771640778
1772019794754961000,7.5729609375,-0.010044172406196594,0.028969254344701767,-0.012886496260762215
1772019794774926800,7.5929267578125,0.02791774645447731,0.014475185424089432,0.02495368756353855
1772019794794893000,7.61289306640625,0.06536213308572769,-0.0006683915853500366,0.055139411240816116
1772019794814859000,7.63285888671875,0.04262692481279373,0.011391236446797848,0.07832766324281693
1772019794834824000,7.652823974609375,-0.004565325099974871,0.02366826683282852,0.06264873594045639
1772019794854790000,7.672789794921875,-0.02988094836473465,0.03557426482439041,0.022093579173088074
1772019794874755800,7.692755859375,-0.04302166402339935,0.050100550055503845,0.010858610272407532
1772019794894722000,7.71272216796875,-0.04011315479874611,0.05340816080570221,0.02674078941345215
1772019794914687700,7.732687744140625,-0.018345344811677933,0.017785221338272095,0.028948398306965828
1772019794934653000,7.75265283203125,-0.009900961071252823,-0.026746977120637894,0.01691013015806675
1772019794954619000,7.772618896484375,0.016248047351837158,-0.03789455443620682,0.01106382254511118
1772019794974585000,7.792585205078125,0.05054929479956627,-0.015087774023413658,0.015891334041953087
1772019794994551000,7.812551025390625,0.055694110691547394,0.006462336517870426,0.03301263600587845
1772019795014517000,7.83251708984375,0.060028284788131714,0.025472966954112053,0.04622740298509598
1772019795034482200,7.852482177734375,0.07862445712089539,0.032350122928619385,0.05169219896197319
1772019795054448400,7.872448486328125,0.10947953164577484,0.007877958938479424,0.03332013264298439
1772019795074414300,7.892414306640625,0.10530170798301697,-0.03340696543455124,0.02171807736158371
1772019795094380000,7.912380126953125,0.06639684736728668,-0.048512380570173264,-0.0010479592019692063
1772019795114345200,7.93234521484375,0.051840394735336304,-0.026312997564673424,-0.04053918644785881
1772019795134311200,7.952311279296875,0.06648644804954529,-0.011772937141358852,-0.0590745210647583
1772019795154277400,7.97227734375,0.06431027501821518,0.008865953423082829,-0.04029472917318344
1772019795174243300,7.992243408203125,0.053229920566082,-0.0034836591221392155,-0.016652368009090424
1772019795194209300,8.012209228515625,0.052161380648612976,-0.02560969442129135,-0.008794566616415977
1772019795214174200,8.03217431640625,0.060995884239673615,-0.013033981435000896,-0.00652129203081131
1772019795234140200,8.05214013671875,0.06516408175230026,0.0016221553087234497,0.004349437542259693
1772019795254106400,8.0721064453125,0.0657467395067215,0.009260250255465508,0.016445795074105263
1772019795274072000,8.092072021484375,0.047003984451293945,0.017068490386009216,0.03901100903749466
1772019795294037200,8.112037353515625,0.039763420820236206,0.01875811070203781,0.03388829156756401
1772019795314003200,8.132003173828124,0.026578564196825027,0.0008577117696404457,0.005854936316609383
1772019795333969400,8.151969482421874,-0.010802359320223331,-0.03267041966319084,-0.03087020292878151
1772019795353935400,8.171935302734376,-0.027667056769132614,-0.03099464252591133,-0.04793986678123474
1772019795373901300,8.1919013671875,-0.02681332267820835,0.00010578706860542297,-0.03445373848080635
1772019795393866200,8.2118662109375,-0.020116614177823067,-0.005978698376566172,-0.01388508640229702
1772019795413832200,8.231832275390625,-0.017755910754203796,-0.02595270797610283,0.0010066329268738627
1772019795433798400,8.25179833984375,-0.011185359209775925,-0.036461275070905685,0.004904968198388815
1772019795453764000,8.27176416015625,-0.010901660658419132,-0.008740738965570927,-0.005340324714779854
1772019795473729000,8.29172900390625,-0.021671555936336517,0.026005297899246216,-0.008667565882205963
1772019795493695200,8.3116953125,-0.02670668065547943,0.01315428875386715,0.0010160940000787377
1772019795513661200,8.3316611328125,-0.025530174374580383,-0.012861829251050949,0.007217941805720329
1772019795533627400,8.35162744140625,-0.033630937337875366,-0.0013051838614046574,0.015983305871486664
1772019795553593000,8.371593017578125,-0.034586936235427856,0.003874901682138443,0.010278671979904175
1772019795573558300,8.391558349609374,-0.025328341871500015,-0.012849945574998856,0.00090821273624897
1772019795593524200,8.411524169921876,-0.02785918302834034,-0.006400680635124445,-0.005038228817284107
1772019795613490400,8.431490478515625,-0.029888473451137543,0.01868533343076706,0.008025660179555416
1772019795633456000,8.4514560546875,-0.019517438486218452,0.0037704939022660255,0.010686550289392471
1772019795653421000,8.471421142578125,-0.00248047336935997,-0.0025771097280085087,-0.00831723865121603
1772019795673387300,8.49138720703125,0.010423758067190647,0.0051920488476753235,-0.0395694226026535
1772019795693353200,8.511353271484374,0.0304447952657938,-0.015805603936314583,-0.05491509661078453
1772019795713319400,8.5313193359375,0.011733347550034523,0.02557329460978508,-0.0553961843252182
1772019795733285000,8.55128515625,0.00513570848852396,0.04632144793868065,-0.08487808704376221
1772019795753250300,8.571250244140625,0.010446394793689251,0.017958709970116615,-0.09720102697610855
1772019795773216300,8.59121630859375,0.013394933193922043,0.03882531821727753,-0.07207093387842178
1772019795793182200,8.61118212890625,0.04614108428359032,0.05044049024581909,-0.027809349820017815
1772019795813148200,8.631148193359374,0.08018225431442261,0.02317909151315689,0.037774477154016495
1772019795833113000,8.651113037109376,0.07035922259092331,-0.012053086422383785,0.07197199761867523
1772019795853079300,8.671079345703125,0.06155652552843094,-0.003377220593392849,0.04552839696407318
1772019795873045200,8.691045166015625,0.06380746513605118,0.010585331358015537,-0.0064330860041081905
1772019795893011500,8.711011474609375,0.0558914914727211,0.021304000169038773,-0.023230822756886482
1772019795912976400,8.730976318359374,0.008568714372813702,0.033237095922231674,0.003541934071108699
1772019795932942000,8.750942138671874,-0.02049797587096691,0.03404330462217331,0.022895265370607376
1772019795952908300,8.770908203125,-0.011040178127586842,0.010198509320616722,0.006354362703859806
1772019795972874200,8.790874267578126,0.016320226714015007,0.007766159251332283,-0.011064298450946808
1772019795992839400,8.81083935546875,0.020153198391199112,-0.01696588844060898,-0.021864356473088264
1772019796012805000,8.83080517578125,0.024957654997706413,-0.014166019856929779,-0.02145077846944332
1772019796032771300,8.850771240234375,0.021516354754567146,0.02689976803958416,-0.008988911285996437
1772019796052737300,8.8707373046875,0.006779029034078121,0.03515900671482086,0.00069899030495435
1772019796072702500,8.890702392578126,0.002383665880188346,0.016524411737918854,-0.0064027500338852406
1772019796092668400,8.91066845703125,0.009795630350708961,0.024382900446653366,-0.015974393114447594
1772019796112634400,8.93063427734375,0.009983043186366558,0.022204726934432983,-0.012471924535930157
1772019796132600300,8.950600341796875,0.010391609743237495,0.008762266486883163,0.008130958303809166
1772019796152565200,8.970565185546874,0.0246211476624012,0.0023099593818187714,0.022566355764865875
1772019796172531500,8.990531494140624,0.0188827533274889,0.014789598993957043,0.029876310378313065
1772019796192497200,9.0104970703125,0.0009616613388061523,0.008638539351522923,0.009653622284531593
1772019796212463400,9.03046337890625,-0.0015627127140760422,-0.0015489840880036354,-0.010791745968163013
1772019796232429300,9.05042919921875,-0.013699280098080635,-0.00587363401427865,-0.012125492095947266
1772019796252394500,9.07039453125,-0.020211152732372284,-0.0036894287914037704,-0.007412306033074856
1772019796272360400,9.0903603515625,-0.008681798353791237,-0.029804635792970657,-0.03143922984600067
1772019796292326400,9.110326416015624,0.00016996869817376137,-0.03862534463405609,-0.058837201446294785
1772019796312292400,9.130292236328126,-0.01288993563503027,-0.010938490740954876,-0.05099908635020256
1772019796332257300,9.15025732421875,-0.006607578136026859,-0.00003588758409023285,-0.0017517812084406614
1772019796352223500,9.170223388671875,0.0011856651399284601,-0.027873506769537926,0.04306014999747276
1772019796372189200,9.190189208984375,0.012261596508324146,-0.04041716828942299,0.05203232914209366
1772019796392155400,9.2101552734375,0.03227415308356285,-0.04395052045583725,0.0183849036693573
1772019796412120300,9.230120361328124,0.06468620151281357,-0.05033671483397484,-0.004692816641181707
1772019796432086300,9.250086181640626,0.05105080083012581,-0.042743172496557236,-0.00017920928075909615
1772019796452052500,9.270052490234375,0.029429370537400246,-0.023579780012369156,0.03127942606806755
1772019796472018200,9.29001806640625,0.031232597306370735,0.022270532324910164,0.05709291622042656
1772019796491983400,9.3099833984375,0.04267166554927826,0.0181376151740551,0.04702853038907051
1772019796511947500,9.329947509765624,0.03010481968522072,-0.011807279661297798,0.012176812626421452
1772019796531913200,9.349913330078126,0.00948604941368103,-0.002707605715841055,-0.0021345021668821573
1772019796551879400,9.36987939453125,-0.0036186734214425087,0.008162499405443668,-0.0040848408825695515
1772019796571845400,9.389845458984375,-0.011059743352234364,0.0037286123260855675,-0.004996470641344786
1772019796591810300,9.409810302734375,-0.026398729532957077,-0.011453083716332912,-0.005086119286715984
1772019796611776300,9.4297763671875,-0.015082026831805706,-0.0012079174630343914,-0.012604579329490662
1772019796631742200,9.4497421875,0.0015165461227297783,-0.006475476082414389,-0.005103776231408119
1772019796651707400,9.469707275390626,-0.0052025713957846165,-0.011631244793534279,0.006349549628794193
1772019796671673300,9.48967333984375,-0.004142250865697861,0.008098050020635128,0.01699594408273697
1772019796691639300,9.509639404296875,0.0057472772896289825,0.016794566065073013,0.007421587593853474
1772019796711605200,9.529605224609375,-0.011674368754029274,0.01941131427884102,-0.0029961855616420507
1772019796731570200,9.549570068359374,-0.04066602513194084,0.015478963032364845,-0.0015109204687178135
1772019796751536400,9.569536376953126,-0.034033313393592834,-0.0236627496778965,-0.021694496273994446
1772019796771502300,9.58950244140625,-0.03297968953847885,-0.02545963227748871,-0.027853582054376602
1772019796791468300,9.60946826171875,-0.040481775999069214,-0.00537289772182703,-0.015535528771579266
1772019796811433200,9.62943310546875,-0.02088540606200695,-0.013719633221626282,-0.0022732678335160017
1772019796831399400,9.6493994140625,-0.012641401961445808,-0.014163533225655556,-0.007432881277054548
1772019796851365400,9.669365478515624,-0.00622709421440959,-0.022659633308649063,-0.020775161683559418
1772019796871331300,9.689331298828124,0.0009255465120077133,-0.05800319463014603,-0.011875415220856667
1772019796891298300,9.70929833984375,0.000977860763669014,-0.016864750534296036,0.0018418687395751476
1772019796911264500,9.729264404296876,0.001002682140097022,0.014580058865249157,-0.00040575413731858134
1772019796931230200,9.749230224609375,0.007164063863456249,-0.006179651245474815,-0.003001526929438114
1772019796951195100,9.769195068359375,-0.0036022979766130447,-0.013157399371266365,0.0069549670442938805
1772019796971161300,9.789161376953125,-0.012509379535913467,0.0015946682542562485,0.008351287804543972
1772019796991127300,9.809127197265624,-0.01828581653535366,0.011010165326297283,-0.006384650710970163
1772019797011092500,9.829092529296876,-0.019212869927287102,0.001737344078719616,-0.018771430477499962
1772019797031057700,9.8490576171875,-0.011442063376307487,-0.00913702417165041,-0.014246704056859016
1772019797051023600,9.869023681640625,0.002467775484547019,0.0036287792026996613,-0.0030674277804791927
1772019797070989600,9.888989501953125,0.0033587119542062283,0.013465797528624535,0.006739653181284666
1772019797090954500,9.90895458984375,-0.004041532054543495,0.010824150405824184,0.026011211797595024
1772019797110920700,9.928920654296874,-0.030516311526298523,0.02284311130642891,0.04634685814380646
1772019797130886700,9.94888671875,-0.07853808254003525,0.02306806668639183,0.02724842168390751
1772019797150852600,9.9688525390625,-0.074986532330513,0.015787173062562943,-0.023011041805148125
1772019797170817500,9.988817626953125,-0.03661465644836426,0.017854098230600357,-0.05015866085886955
1772019797190783700,10.00878369140625,-0.0036337142810225487,-0.010866855271160603,-0.03115391731262207
1772019797210749700,10.028749755859375,0.02548549510538578,-0.03799942508339882,-0.008941994979977608
1772019797230715400,10.04871533203125,0.04445904120802879,-0.050303973257541656,-0.001591529231518507
1772019797250680600,10.0686806640625,0.04951183870434761,-0.03691808879375458,0.003751621348783374
1772019797270646500,10.088646484375,0.04305291175842285,-0.011548939161002636,0.004116725642234087
1772019797290612700,10.10861279296875,0.016261085867881775,0.0003381771966814995,-0.0014719278551638126
1772019797310577700,10.12857763671875,-0.01726946420967579,0.010761615820229053,-0.008405237458646297
1772019797330543600,10.148543701171874,-0.048911258578300476,0.036692455410957336,-0.013700364157557487
1772019797350509600,10.168509521484374,-0.057926177978515625,0.02549593895673752,-0.04386000707745552
1772019797370475500,10.1884755859375,-0.054910849779844284,-0.004640510771423578,-0.05726252496242523
1772019797390440700,10.208440673828125,-0.04652375727891922,-0.04555465281009674,-0.08192498981952667
1772019797410406700,10.22840673828125,-0.0386296845972538,-0.08343812078237534,-0.09871288388967514
1772019797430372600,10.24837255859375,-0.07159073650836945,-0.04176401346921921,-0.0800674557685852
1772019797450337500,10.268337646484374,-0.0939822643995285,-0.029762208461761475,-0.06710727512836456
1772019797470303500,10.288303466796876,-0.10551193356513977,0.0020824801176786423,-0.028419556096196175
1772019797490269700,10.308269775390626,-0.10273116827011108,0.00034120213240385056,-0.02681072987616062
1772019797510235600,10.328235595703125,-0.07932212948799133,-0.0682484582066536,-0.03844061493873596
1772019797530200800,10.348200927734375,-0.05073149874806404,0.014040025882422924,-0.011377038434147835
1772019797550166500,10.36816650390625,-0.03611873462796211,0.004107500426471233,-0.005429932847619057
1772019797570132700,10.3881328125,-0.018662169575691223,-0.0292329303920269,0.009324783459305763
1772019797590097700,10.40809765625,-0.011765481904149055,-0.07130301743745804,0.011578777804970741
1772019797610063600,10.428063720703125,0.001595127396285534,-0.10623034834861755,0.0011370251886546612
1772019797630029600,10.448029541015625,-0.015265021473169327,-0.10727399587631226,-0.012463769875466824
1772019797649995500,10.46799560546875,-0.045827992260456085,-0.0915331169962883,-0.03144971281290054
1772019797669960700,10.487960693359375,0.0034483815543353558,-0.0034215226769447327,-0.015357132069766521
1772019797689926700,10.5079267578125,0.048434142023324966,-0.021534111350774765,-0.0045363325625658035
1772019797709892600,10.527892578125,0.04387987032532692,-0.07024625688791275,0.016767889261245728
1772019797729858600,10.547858642578126,0.055262431502342224,-0.07597343623638153,0.026866042986512184
1772019797749823500,10.567823486328125,0.04653393477201462,-0.04302406311035156,0.016413021832704544
1772019797769789700,10.587789794921875,0.018871575593948364,-0.03288178890943527,-0.029284682124853134
1772019797789755600,10.607755615234375,-0.0013963724486529827,-0.0439780056476593,-0.09706012904644012
1772019797809720600,10.627720458984374,-0.03606133162975311,-0.05742781609296799,-0.13371646404266357
1772019797829686500,10.6476865234375,-0.0965016633272171,-0.10393503308296204,-0.15004532039165497
1772019797849652500,10.667652587890625,-0.15849904716014862,-0.19183669984340668,-0.19778111577033997
1772019797869617700,10.68761767578125,-0.18436408042907715,-0.3433409631252289,-0.275762140750885
1772019797889583600,10.70758349609375,-0.18996348977088928,-0.4192515015602112,-0.3078266978263855
1772019797909549800,10.7275498046875,-0.16292499005794525,-0.3044952154159546,-0.3106338381767273
1772019797929515500,10.747515625,-0.09492028504610062,-0.18588075041770935,-0.3514871597290039
1772019797949480400,10.76748046875,-0.018265539780259132,-0.09874282032251358,-0.35023316740989685
1772019797969446700,10.78744677734375,-0.0016962969675660133,-0.05637427419424057,-0.3040703237056732
1772019797989412600,10.80741259765625,-0.045374657958745956,-0.060867082327604294,-0.2711567282676697
1772019798009377800,10.827377685546875,-0.06711792200803757,0.03004373610019684,-0.29974061250686646
1772019798029343500,10.847343505859374,-0.01482633501291275,0.18938510119915009,-0.3448359966278076
1772019798049309700,10.867309814453124,0.027649391442537308,0.21030408143997192,-0.3697441816329956
1772019798069275600,10.887275634765626,0.029687795788049698,0.15497389435768127,-0.37258365750312805
1772019798089240800,10.90724072265625,-0.07243501394987106,0.005298524163663387,-0.09857484698295593
1772019798109206800,10.927206787109375,-0.14199307560920715,-0.20209051668643951,0.07076173275709152
1772019798129172700,10.9471728515625,-0.09279276430606842,-0.06594306975603104,0.04377032816410065
1772019798149137700,10.9671376953125,-0.03093186765909195,0.06288494914770126,-0.0698586255311966
1772019798169103600,10.987103515625,-0.016704555600881577,0.06785691529512405,-0.05113568902015686
