time,seconds_elapsed,z,y,x
1772019799305278500,0.088278564453125,0.13872934877872467,0.1348525732755661,0.1828828603029251
1772019799325244700,0.10824462890625,0.10956062376499176,0.13979239761829376,0.09934978187084198
1772019799345210600,0.128210693359375,0.06798218935728073,0.10809027403593063,0.024382438510656357
1772019799365175800,0.14817578125,0.015194915235042572,0.06202434375882149,-0.012668653391301632
1772019799385141500,0.1681416015625,-0.004403696395456791,0.02019144967198372,-0.004185544792562723
1772019799405107700,0.188107666015625,0.051742248237133026,0.02061547338962555,0.012499397620558739
1772019799425072600,0.20807275390625,0.11097759753465652,0.039188168942928314,0.025278858840465546
1772019799445038600,0.22803857421875,0.14552555978298187,0.05651695281267166,0.09198490530252457
1772019799465004800,0.2480048828125,0.1617623120546341,0.11894863098859787,0.16552330553531647
1772019799484969700,0.2679697265625,0.16692955791950226,0.11827173084020615,0.20022429525852203
1772019799504935700,0.287935791015625,0.1364176720380783,0.11411256343126297,0.2045280784368515
1772019799524901600,0.307901611328125,0.10955123603343964,0.10240133851766586,0.1831052005290985
1772019799544866600,0.327866455078125,0.10223947465419769,0.07380242645740509,0.15136845409870148
1772019799564832800,0.347832763671875,0.09553312510251999,0.06993090361356735,0.1419128030538559
1772019799584798500,0.367798583984375,0.08522491902112961,0.029927708208560944,0.11272569745779037
1772019799604763600,0.387763671875,0.06733505427837372,0.06463805586099625,0.1063595786690712
1772019799624729600,0.4077294921875,0.0585501492023468,0.06245748698711395,0.0957704409956932
1772019799644695800,0.42769580078125,0.061049528419971466,0.08967044949531555,0.09818609058856964
1772019799664660700,0.44766064453125,0.0581398531794548,0.0918613150715828,0.11951596289873123
1772019799684626700,0.467626708984375,0.07056337594985962,0.050627291202545166,0.13930204510688782
1772019799704592600,0.487592529296875,0.07992459088563919,-0.0274164080619812,0.13119260966777802
1772019799724557600,0.5075576171875,0.057818058878183365,-0.04020770266652107,0.11926215887069702
1772019799744523500,0.5275234375,0.03760986775159836,-0.0062417807057499886,0.10614835470914841
1772019799764489700,0.54748974609375,0.056856419891119,0.011334219947457314,0.08397063612937927
1772019799784454700,0.56745458984375,0.09522462636232376,-0.008889193646609783,0.11024126410484314
1772019799804420600,0.587420654296875,0.08511317521333694,0.01498454064130783,0.14760571718215942
1772019799824386600,0.607386474609375,0.0650300681591034,0.02336953952908516,0.12384121119976044
1772019799844351500,0.6273515625,0.05815669521689415,0.04120240360498428,0.06344980001449585
1772019799864317700,0.647317626953125,0.04825139790773392,0.04011799395084381,0.019339442253112793
1772019799884283600,0.66728369140625,0.04884735122323036,0.06085413694381714,0.03170251473784447
1772019799904248800,0.687248779296875,0.06005004048347473,0.07528966665267944,0.0647755041718483
1772019799924214500,0.707214599609375,0.07848602533340454,0.013445240445435047,0.08394689857959747
1772019799944180700,0.7271806640625,0.0722208321094513,-0.004570581018924713,0.10402343422174454
1772019799964145700,0.747145751953125,0.05448763445019722,-0.0004986077547073364,0.07611909508705139
1772019799984111600,0.767111572265625,0.04995063319802284,-0.0008787414990365505,0.005250913091003895
1772019800004077600,0.78707763671875,0.043742984533309937,0.02539847046136856,-0.06921160966157913
1772019800024042500,0.80704248046875,0.04122772812843323,0.014513200148940086,-0.09235582500696182
1772019800044008200,0.82700830078125,0.037926483899354935,0.015743549913167953,-0.05031711980700493
1772019800063974100,0.84697412109375,0.038126617670059204,0.036451224237680435,0.02758961357176304
1772019800083939000,0.86693896484375,0.039834462106227875,0.010618996806442738,0.07568030804395676
1772019800103905300,0.8869052734375,0.03640725463628769,0.017822276800870895,0.08051970601081848
1772019800123871000,0.90687109375,0.028047829866409302,0.0279010608792305,0.04355254024267197
1772019800143836200,0.926836181640625,0.030011236667633057,0.051659733057022095,0.024434590712189674
1772019800163802000,0.946802001953125,0.021837925538420677,0.06280666589736938,0.023172762244939804
1772019800183768000,0.96676806640625,0.0007753893733024597,0.04170937091112137,-0.002779696136713028
1772019800203733200,0.986733154296875,-0.007613284979015589,0.020693762227892876,-0.007731328718364239
1772019800223699200,1.00669921875,-0.016859402880072594,0.03413054719567299,0.03536924347281456
1772019800243665200,1.0266650390625,-0.019270991906523705,0.0044580018147826195,0.04852287098765373
1772019800263630000,1.046630126953125,-0.007592947222292423,0.014808574691414833,0.029738005250692368
1772019800283596000,1.066595947265625,-0.010083802044391632,0.04372198134660721,0.023508338257670403
1772019800303562200,1.086562255859375,0.00217877933755517,0.055776555091142654,0.033697180449962616
1772019800323527200,1.106527099609375,0.02062460221350193,0.0535326823592186,0.03422805666923523
1772019800343493000,1.1264931640625,0.022492123767733574,0.06996127963066101,0.012243824079632759
1772019800363458000,1.1464580078125,0.07927905768156052,0.03627541661262512,0.02238461561501026
1772019800383424000,1.166424072265625,0.1231599897146225,0.04474654793739319,0.0667634904384613
1772019800403390200,1.18639013671875,0.11213984340429306,0.06182002276182175,0.10703013092279434
1772019800423355100,1.206355224609375,0.08368782699108124,0.07447699457406998,0.11656039208173752
1772019800443321300,1.2263212890625,0.050115734338760376,0.05818568915128708,0.09057442843914032
1772019800463287000,1.246287109375,0.008324556052684784,0.06499508023262024,0.061728816479444504
1772019800483252000,1.266251953125,-0.04714730754494667,0.08467377722263336,0.036513734608888626
1772019800503218200,1.28621826171875,-0.07746966928243637,0.06395947933197021,-0.022466622292995453
1772019800523184000,1.30618408203125,-0.09030444175004959,0.05029211938381195,-0.0744016245007515
1772019800543149300,1.3261494140625,-0.0824100598692894,0.062462616711854935,-0.09391883760690689
1772019800563115000,1.346114990234375,-0.08173595368862152,0.09683128446340561,-0.08643282949924469
1772019800583081200,1.366081298828125,-0.07604216039180756,0.08290630578994751,-0.0886354073882103
1772019800603046100,1.386046142578125,-0.05639531463384628,0.042050354182720184,-0.06998900324106216
1772019800623012000,1.40601220703125,-0.035161808133125305,0.017223864793777466,-0.04748621582984924
1772019800642978300,1.425978271484375,0.009974118322134018,-0.0019053868018090725,-0.03890085592865944
1772019800662943200,1.445943115234375,0.04173924773931503,0.015915893018245697,-0.018034210428595543
1772019800682909200,1.4659091796875,0.050401926040649414,0.03758573159575462,-0.006884206086397171
1772019800702874000,1.4858740234375,0.06132546812295914,0.016742538660764694,-0.0142890065908432
1772019800722840000,1.505840087890625,0.05226029083132744,0.015497148036956787,-0.02924545481801033
1772019800742806300,1.52580615234375,0.016102667897939682,0.029201064258813858,-0.025254283100366592
1772019800762771200,1.545771240234375,-0.00452166423201561,0.03400786966085434,-0.020472027361392975
1772019800782737200,1.565737060546875,0.002445022575557232,0.023680943995714188,-0.024567484855651855
1772019800802703000,1.585703125,-0.002663017250597477,0.03020528331398964,-0.025434596464037895
1772019800822668000,1.60566796875,0.008511541411280632,0.03747248277068138,-0.0068961079232394695
1772019800842634200,1.62563427734375,0.04064851254224777,0.046220678836107254,0.01734187640249729
1772019800862600200,1.64560009765625,0.0681353211402893,0.04097451642155647,0.02949824370443821
1772019800882565400,1.6655654296875,0.05187796428799629,0.028302045539021492,0.019358742982149124
1772019800902531000,1.685531005859375,0.027281353250145912,0.06483627110719681,0.000978486961685121
1772019800922497000,1.7054970703125,0.017094679176807404,0.11743457615375519,-0.0034112073481082916
1772019800942462200,1.725462158203125,0.015182964503765106,0.1382955014705658,0.0029295249842107296
1772019800962428200,1.74542822265625,0.008192716166377068,0.1425197720527649,0.004492438863962889
1772019800982393000,1.76539306640625,0.004937995690852404,0.1324215978384018,-0.012276977300643921
1772019801002359000,1.785359130859375,0.0015986375510692596,0.07696851342916489,-0.030360011383891106
1772019801022325000,1.805324951171875,-0.00424257991835475,-0.014544976875185966,-0.039800889790058136
1772019801042290000,1.8252900390625,0.0004634372889995575,-0.01069648191332817,-0.040315527468919754
1772019801062255900,1.845255859375,0.01571592502295971,-0.0010112598538398743,-0.040949415415525436
1772019801082222000,1.86522216796875,0.04917526990175247,-0.01492651179432869,-0.020651891827583313
1772019801102187000,1.88518701171875,0.0723566859960556,-0.004612310323864222,0.008893934078514576
1772019801122152700,1.905152587890625,0.07057236135005951,0.003113841637969017,0.02109655551612377
1772019801142119000,1.925118896484375,0.06932371854782104,0.002427583560347557,0.01251553650945425
1772019801162083800,1.945083740234375,0.09065774828195572,-0.017313795164227486,-0.01582871563732624
1772019801182050000,1.965050048828125,0.10059136152267456,-0.017901966348290443,-0.03888428956270218
1772019801202015000,1.985014892578125,0.07801724970340729,-0.011676976457238197,-0.043881967663764954
1772019801221981000,2.00498095703125,0.0589776374399662,-0.007331423461437225,-0.04768559709191322
1772019801241947000,2.02494677734375,0.03709785267710686,-0.002903963439166546,-0.058232635259628296
1772019801261911800,2.044911865234375,0.04371127858757973,-0.010164272971451283,-0.06663969904184341
1772019801281878000,2.0648779296875,0.042555827647447586,-0.02915167063474655,-0.07029356807470322
1772019801301844000,2.084843994140625,0.01804068498313427,-0.04449222981929779,-0.059216562658548355
1772019801321809000,2.104808837890625,0.02254846878349781,-0.03647177666425705,-0.053526829928159714
1772019801341774800,2.12477490234375,0.028044870123267174,-0.00806211307644844,-0.045443855226039886
1772019801361739800,2.14473974609375,0.019476747140288353,0.0008498793467879295,-0.03343423083424568
1772019801381706000,2.1647060546875,0.037860848009586334,-0.010004216805100441,-0.02881721965968609
1772019801401672000,2.184671875,0.055287156254053116,-0.023254437372088432,-0.025937017053365707
1772019801421636900,2.204636962890625,0.0642186626791954,-0.009217452257871628,-0.011267692781984806
1772019801441603000,2.22460302734375,0.05559898167848587,-0.020636964589357376,-0.012431216426193714
1772019801461568800,2.24456884765625,0.053103476762771606,-0.031991686671972275,-0.006621956825256348
1772019801481534000,2.264533935546875,0.055427778512239456,-0.022504011169075966,-0.011262218467891216
1772019801501500000,2.2845,0.05727464705705643,-0.02335396781563759,-0.04340353235602379
1772019801521465900,2.3044658203125,0.06309106200933456,-0.024712421000003815,-0.06321235001087189
1772019801541431000,2.32443115234375,0.056096553802490234,-0.026283254846930504,-0.04321976751089096
1772019801561396700,2.344396728515625,0.04060941934585571,-0.01783522218465805,-0.011235853657126427
1772019801581362000,2.36436181640625,0.048073410987854004,-0.015037352219223976,-0.004344243090599775
1772019801601327900,2.384327880859375,0.052282992750406265,-0.010332323610782623,-0.005144014488905668
1772019801621293800,2.4042939453125,0.04143909737467766,-0.0284627303481102,-0.016307607293128967
1772019801641259000,2.424259033203125,0.03276827558875084,-0.038435570895671844,-0.03448924422264099
1772019801661225000,2.444224853515625,0.021302979439496994,-0.0050286827608942986,-0.026137199252843857
1772019801681191000,2.46419091796875,0.03142537176609039,-0.00561554916203022,-0.0028845705091953278
1772019801701155800,2.48415576171875,0.05291358381509781,0.002619330771267414,0.023215850815176964
1772019801721121800,2.504121826171875,0.039054811000823975,-0.006696887314319611,0.029848305508494377
1772019801741087000,2.5240869140625,0.011563180014491081,-0.01831218972802162,0.029150284826755524
1772019801761053000,2.544052978515625,0.002187341218814254,-0.009533952921628952,0.020754674449563026
1772019801781019000,2.564018798828125,-0.004749573767185211,0.012760626152157784,0.011268768459558487
1772019801800983800,2.58398388671875,-0.00947907567024231,0.012684683315455914,0.021520057693123817
1772019801820949800,2.60394970703125,0.0009629493579268456,0.0072458479553461075,0.023261385038495064
1772019801840916000,2.623916015625,0.00821047555655241,-0.011581103317439556,0.025516284629702568
1772019801860881000,2.643880859375,-0.002412420231848955,-0.037085097283124924,0.020194465294480324
1772019801880847000,2.66384716796875,-0.01985865831375122,-0.01806771010160446,0.012022431008517742
1772019801900812000,2.68381201171875,-0.03328845277428627,0.012184510007500648,0.003844148013740778
1772019801920777700,2.70377783203125,-0.03838077187538147,-0.0025189947336912155,-0.007811714895069599
1772019801940744000,2.723743896484375,-0.04296818748116493,-0.0033148075453937054,-0.0037537510506808758
1772019801960708900,2.743708984375,-0.033570561558008194,0.00414818711578846,0.006041497923433781
1772019801980675000,2.763675048828125,-0.02684692293405533,-0.01990850642323494,0.004743336699903011
1772019802000640800,2.783640869140625,-0.04115121066570282,-0.03418073058128357,0.007359898649156094
1772019802020605700,2.803605712890625,-0.05647370219230652,-0.021168828010559082,0.0014934688806533813
1772019802040572400,2.823572509765625,-0.046315159648656845,-0.007307797204703093,-0.012485469691455364
1772019802060537300,2.843537353515625,-0.023380639031529427,-0.004241587594151497,-0.009974096901714802
1772019802080503600,2.863503662109375,-0.01250652875751257,-0.00025649555027484894,0.018388617783784866
1772019802100469200,2.88346923828125,-0.014686217531561852,0.0026634568348526955,0.04495839402079582
1772019802120434200,2.90343408203125,0.0019557010382413864,0.01621643640100956,0.03575476258993149
1772019802140400400,2.923400390625,0.023899158462882042,0.029073648154735565,0.011035346426069736
1772019802160366300,2.943366455078125,0.018245849758386612,0.015336052514612675,0.003975157625973225
1772019802180331500,2.96333154296875,0.011251144111156464,-0.001757522113621235,0.018357563763856888
1772019802200297500,2.98329736328125,0.017133811488747597,-0.0045275501906871796,0.040568023920059204
1772019802220262400,3.003262451171875,0.0026507670991122723,-0.00346872815862298,0.037080008536577225
1772019802240228400,3.023228271484375,-0.00911699514836073,0.0027393195778131485,0.02110358700156212
1772019802260194300,3.0431943359375,-0.019089218229055405,0.014376537874341011,0.011156469583511353
1772019802280159500,3.063159423828125,-0.019618436694145203,0.0003195134922862053,0.0011303500505164266
1772019802300125400,3.08312548828125,-0.012163225561380386,0.026766203343868256,0.0021802980918437243
1772019802320091400,3.10309130859375,-0.0012222104705870152,0.03868592530488968,0.03493626415729523
1772019802340056300,3.123056396484375,-0.0027244635857641697,-0.007072904147207737,0.05385338142514229
1772019802360022300,3.143022216796875,0.0016658441163599491,-0.020314747467637062,0.04075942561030388
1772019802379987500,3.162987548828125,0.015933513641357422,-0.005134942941367626,0.008091611787676811
1772019802399953400,3.182953369140625,0.006341476924717426,0.00937793217599392,-0.0025167004205286503
1772019802419919600,3.202919677734375,-0.02618096023797989,0.011761653237044811,0.005465066060423851
1772019802439884500,3.222884521484375,-0.029149487614631653,0.006361409090459347,-0.0027763834223151207
1772019802459850200,3.242850341796875,0.009526802226901054,0.013657672330737114,-0.008053170517086983
1772019802479815400,3.2628154296875,0.03748568147420883,-0.0012110816314816475,0.002221453469246626
1772019802499781400,3.282781494140625,0.028358768671751022,-0.0058775064535439014,0.026234092190861702
1772019802519747600,3.30274755859375,0.02425062097609043,-0.012226922437548637,0.021077018231153488
1772019802539712500,3.32271240234375,0.027079734951257706,-0.003805076703429222,-0.01143629476428032
1772019802559678200,3.34267822265625,0.020096223801374435,0.019259881228208542,-0.020080149173736572
1772019802579644400,3.36264453125,-0.00031162286177277565,0.003967917524278164,0.001709965174086392
1772019802599609300,3.382609375,-0.005264622624963522,0.008558914996683598,0.01900523342192173
1772019802619575600,3.402575439453125,0.004162490367889404,0.021978314965963364,0.03404684737324715
1772019802639540500,3.42254052734375,0.015230532735586166,0.00303631741553545,0.036426302045583725
1772019802659506400,3.44250634765625,0.01485823281109333,-0.028547802940011024,0.02458822727203369
1772019802679472400,3.462472412109375,0.010885462164878845,-0.03666723519563675,0.009517275728285313
1772019802699437300,3.482437255859375,-0.0019208360463380814,-0.018469229340553284,-0.0029528397135436535
1772019802719403500,3.502403564453125,-0.006749191787093878,-0.005873901769518852,0.00041672156658023596
1772019802739368400,3.522368408203125,-0.019204003736376762,0.00016434676945209503,0.03081035055220127
1772019802759334400,3.54233447265625,-0.026235636323690414,0.02825304865837097,0.059330932796001434
1772019802779300400,3.56230029296875,-0.022111743688583374,0.031779419630765915,0.05727314576506615
1772019802799265300,3.582265380859375,-0.011371779255568981,0.013553105294704437,0.03363688662648201
1772019802819231500,3.6022314453125,-0.01618775725364685,-0.008116808719933033,0.0030561003368347883
1772019802839196400,3.622196533203125,-0.019512390717864037,-0.027681995183229446,-0.027402658015489578
1772019802859162400,3.642162353515625,-0.008612604811787605,-0.016735870391130447,-0.02092665061354637
1772019802879128600,3.662128662109375,0.0034181736409664154,0.0031786831095814705,-0.001693932106718421
1772019802899093500,3.682093505859375,0.02460908517241478,-0.0005660355091094971,0.019129162654280663
1772019802919059200,3.70205908203125,0.02031664177775383,0.00033130869269371033,0.031510353088378906
1772019802939024400,3.7220244140625,0.011068684980273247,0.008526904508471489,0.024779338389635086
1772019802958990300,3.741990234375,0.006268467754125595,0.01598110795021057,0.008748316206037998
1772019802978956500,3.76195654296875,0.01845673844218254,0.010088660754263401,-0.018971877172589302
1772019802998921500,3.78192138671875,0.01149403490126133,-0.008776091039180756,-0.031283263117074966
1772019803018887200,3.80188720703125,-0.02205202728509903,0.003929927945137024,-0.03186490386724472
1772019803038853000,3.82185302734375,-0.0113667668774724,0.005862102843821049,-0.04102601483464241
1772019803058818000,3.841818115234375,0.013029394671320915,-0.000888011883944273,-0.03588748350739479
1772019803078784000,3.861783935546875,0.013266017660498619,-0.016236621886491776,-0.012718924321234226
1772019803098749200,3.881749267578125,0.0055514187552034855,-0.02330191805958748,-0.0029234341345727444
1772019803118715100,3.901715087890625,0.005650918930768967,-0.006184515543282032,-0.005757501348853111
1772019803138681000,3.92168115234375,0.00821773149073124,-0.013563897460699081,-0.00923472922295332
1772019803158646000,3.94164599609375,-0.0035296520218253136,-0.01995660364627838,-0.014395643956959248
1772019803178612000,3.961612060546875,-0.02018856443464756,-0.009983183816075325,-0.017378274351358414
1772019803198577200,3.9815771484375,-0.02367313764989376,0.002596123144030571,-0.039093125611543655
1772019803218543000,4.001543212890625,-0.025241605937480927,-0.0003003450110554695,-0.06636829674243927
1772019803238509000,4.021509033203125,-0.030491534620523453,-0.00439027976244688,-0.07784188538789749
1772019803258474000,4.041473876953125,-0.020157765597105026,0.030784618109464645,-0.05849851295351982
1772019803278440000,4.06143994140625,-0.013512476347386837,-0.00562517624348402,-0.03686162829399109
1772019803298405000,4.081405029296875,0.026442229747772217,-0.03850103169679642,-0.0293465256690979
1772019803318371000,4.10137109375,0.03495968133211136,-0.03376559913158417,-0.020137934014201164
1772019803338337000,4.1213369140625,0.021575605496764183,-0.026370953768491745,0.005686752498149872
1772019803358302200,4.14130224609375,0.00724079180508852,-0.03135288506746292,0.034281887114048004
1772019803378268000,4.161267822265625,-0.003890867345035076,-0.010744089260697365,0.048621151596307755
1772019803398233000,4.181233154296875,-0.008326760493218899,0.013254704885184765,0.044297102838754654
1772019803418199000,4.201198974609375,-0.009271425195038319,0.024968765676021576,0.021216128021478653
1772019803438165000,4.2211650390625,-0.021703151986002922,0.040088437497615814,0.022824956104159355
1772019803458130200,4.241130126953125,-0.03936656564474106,0.05600399151444435,0.03400888293981552
1772019803478096100,4.26109619140625,-0.02146972343325615,0.024971766397356987,0.04445498809218407
1772019803498061000,4.28106103515625,-0.006022146437317133,0.01297592744231224,0.066381074488163
1772019803518027000,4.301027099609375,-0.01269509643316269,-0.0031737368553876877,0.05943462625145912
1772019803537993000,4.320992919921875,-0.02074601501226425,-0.007498495280742645,0.032142575830221176
1772019803557958100,4.340958251953125,-0.028454624116420746,-0.0007366188801825047,0.0019181069219484925
1772019803577924000,4.360924072265625,-0.0336105041205883,0.00122788455337286,-0.02876107208430767
1772019803597889000,4.380888916015625,-0.03537542372941971,0.016396168619394302,-0.04304952174425125
1772019803617855000,4.40085498046875,-0.025785066187381744,0.019227975979447365,-0.053135596215724945
1772019803637821000,4.420821044921875,0.002697397954761982,0.0260761808604002,-0.020282994955778122
1772019803657786000,4.4407861328125,0.037592798471450806,0.005900854244828224,0.02969013713300228
1772019803677752000,4.460751953125,0.057600945234298706,-0.015520631335675716,0.0533565916121006
1772019803697717000,4.480717041015625,0.04326585680246353,-0.02814386785030365,0.037445053458213806
1772019803717683200,4.50068310546875,0.012557529844343662,-0.017642978578805923,0.009106719866394997
1772019803737649000,4.52064892578125,-0.01433382835239172,0.0021230848506093025,-0.01555761881172657
1772019803757614000,4.540614013671875,-0.018918149173259735,0.015207286924123764,-0.026559533551335335
1772019803777580000,4.560580078125,-0.01216038130223751,0.008582455106079578,-0.01566317304968834
1772019803797545000,4.580544921875,-0.019866328686475754,0.012271575629711151,0.026408126577734947
1772019803817511200,4.60051123046875,-0.004872460849583149,0.0011916859075427055,0.05180716887116432
1772019803837476900,4.620476806640625,0.020910445600748062,-0.03643469512462616,0.030504148453474045
1772019803857442000,4.640442138671875,0.019899819046258926,-0.0440373457968235,-0.0023476332426071167
1772019803877408000,4.660407958984375,0.0023787948302924633,0.0007320446893572807,0.0032745404168963432
1772019803897373000,4.680373046875,-0.005853968672454357,0.00011789146810770035,0.005509569309651852
1772019803917339100,4.700339111328125,-0.004871217999607325,-0.014570149593055248,-0.008669496513903141
1772019803937304000,4.720303955078125,0.0027768034487962723,-0.008678223937749863,-0.007078355178236961
1772019803957270300,4.740270263671875,0.02090911567211151,-0.013602860271930695,-0.005800044629722834
1772019803977236000,4.760236083984375,0.04570353776216507,-0.03110804408788681,-0.004142597783356905
1772019803997201000,4.780200927734375,0.035764798521995544,-0.0431385301053524,-0.012099595740437508
1772019804017167000,4.8001669921875,0.021897856146097183,-0.02244715578854084,-0.01178579032421112
1772019804037132500,4.820132568359375,0.03565472736954689,-0.0074119227938354015,-0.02870658040046692
1772019804057098800,4.8400986328125,0.037423551082611084,-0.00965918879956007,-0.030396759510040283
1772019804077064400,4.860064453125,0.022610072046518326,-0.0005749170668423176,-0.0029600304551422596
1772019804097029400,4.880029296875,0.014936708845198154,-0.007807289715856314,0.003992398735135794
1772019804116995600,4.89999560546875,0.004422143567353487,-0.028587985783815384,-0.0069017293862998486
1772019804136960500,4.91996044921875,-0.00863643828779459,-0.012834375724196434,-0.0043840548023581505
1772019804156926700,4.9399267578125,-0.012246042490005493,0.005453910678625107,0.0009858134435489774
1772019804176892400,4.959892333984375,-0.011473992839455605,0.007495205849409103,-0.001930100959725678
1772019804196857300,4.979857421875,-0.021023113280534744,-0.0012667770497500896,0.008112406358122826
1772019804216823600,4.999823486328125,-0.029151655733585358,0.0028099147602915764,0.029480427503585815
1772019804236788500,5.01978857421875,-0.01749318093061447,0.01983647607266903,0.03445560857653618
1772019804256754700,5.039754638671875,-0.003549003042280674,0.019294781610369682,0.036252569407224655
1772019804276719600,5.0597197265625,-0.014653452672064304,-0.0013002343475818634,0.04248157888650894
1772019804296685600,5.079685546875,-0.02073558047413826,-0.03544089198112488,0.020589329302310944
1772019804316651500,5.099651611328125,-0.004438546486198902,-0.025835782289505005,0.005420197732746601
1772019804336616400,5.119616455078125,0.0034312745556235313,-0.04116084426641464,0.010918572545051575
1772019804356582400,5.13958251953125,-0.0127166248857975,-0.04323270171880722,0.01568455994129181
1772019804376547600,5.159547607421875,-0.015885967761278152,0.0006675515323877335,0.01968754455447197
1772019804396513500,5.179513427734375,0.009479224681854248,-0.004341494292020798,0.0023953854106366634
1772019804416479500,5.1994794921875,0.01962342858314514,-0.020164193585515022,-0.014010582119226456
1772019804436444400,5.2194443359375,0.015408353880047798,-0.02516287937760353,-0.0054402900859713554
1772019804456410400,5.239410400390625,0.013383463025093079,0.003297608345746994,0.01448920276015997
1772019804476375600,5.25937548828125,0.0028351247310638428,-0.001958854030817747,0.014639665372669697
1772019804496341500,5.279341552734375,0.003945085220038891,0.0006014173850417137,0.007875632494688034
1772019804516306400,5.299306396484375,-0.009049228392541409,0.01745695061981678,0.01256030797958374
1772019804536270600,5.3192705078125,-0.009307783097028732,0.011203369125723839,0.014590512961149216
1772019804556236500,5.339236572265625,0.0014360800851136446,-0.011761837638914585,-0.004859169013798237
1772019804576202800,5.35920263671875,0.0010946618858724833,-0.007996676489710808,-0.0017467520665377378
1772019804596167700,5.379167724609375,-0.0016418742015957832,-0.0024125748313963413,0.024529162794351578
1772019804616133400,5.39913330078125,0.0007226192392408848,0.000748894177377224,0.02017081528902054
1772019804636098600,5.4190986328125,0.0032768528908491135,0.007803049869835377,0.006842987611889839
1772019804656064500,5.439064453125,0.0036072663497179747,-0.008630143478512764,-0.000139521318487823
1772019804676029400,5.459029541015625,-0.0036011580377817154,-0.02692749723792076,-0.0017269214149564505
1772019804695995600,5.47899560546875,-0.014187358319759369,-0.009097637608647346,-0.0038237711414694786
1772019804715961300,5.49896142578125,-0.00894208624958992,0.007685690186917782,-0.01305748987942934
1772019804735926500,5.518926513671875,-0.0027730469591915607,0.015071358531713486,-0.00020824384409934282
1772019804755892500,5.538892578125,0.002186202211305499,0.000372924841940403,0.017211485654115677
1772019804775857400,5.558857421875,0.004637731239199638,0.015330217778682709,0.024481922388076782
1772019804795823600,5.57882373046875,0.012271368876099586,0.0038561541587114334,0.006182121112942696
1772019804815788500,5.59878857421875,0.019220536574721336,-0.007154311053454876,-0.007334187626838684
1772019804835754800,5.618754638671875,0.018106795847415924,-0.0015561021864414215,-0.011714328080415726
1772019804855720400,5.638720458984375,0.02547469362616539,-0.020674940198659897,-0.021560318768024445
1772019804875685400,5.658685302734375,0.027958985418081284,-0.02858833782374859,-0.026301786303520203
1772019804895651600,5.678651611328125,0.02251472882926464,-0.010434543713927269,-0.003679694142192602
1772019804915616500,5.698616455078125,-0.0011895312927663326,0.01798538863658905,0.008717606775462627
1772019804935582700,5.718582763671875,0.002437293529510498,0.014756300486624241,-0.0013455568114295602
1772019804955548400,5.73854833984375,0.0216045044362545,-0.0006191092543303967,0.0017871131421998143
1772019804975513300,5.758513427734375,0.02054545283317566,-0.011647085659205914,0.014411281794309616
1772019804995479600,5.7784794921875,0.0021526378113776445,-0.009386775083839893,0.002082294784486294
1772019805015444500,5.798444580078125,-0.004313291050493717,-0.0052379220724105835,-0.014963651075959206
1772019805035411000,5.818410888671875,-0.0015496802516281605,0.011932908557355404,-0.007503980305045843
1772019805055376000,5.8383759765625,0.0061950101517140865,0.0042442623525857925,0.0005772256990894675
1772019805075341800,5.858341796875,0.025380585342645645,0.0035745669156312943,0.006938405334949493
1772019805095307800,5.878307861328125,0.03192432224750519,-0.0021907291375100613,0.02084781602025032
1772019805115272700,5.898272705078125,0.020548870787024498,-0.003813220653682947,0.020814184099435806
1772019805135239000,5.918239013671875,0.0028001375030726194,-0.006032613106071949,0.007285298779606819
1772019805155203800,5.938203857421875,0.009249748662114143,-0.010094272904098034,-0.01577429100871086
1772019805175169800,5.958169677734375,0.00913273822516203,-0.017673291265964508,-0.01702708750963211
1772019805195135000,5.978135009765625,-0.00009338138625025749,-0.008078453131020069,0.0043041761964559555
1772019805215100700,5.9981005859375,-0.0003534369170665741,-0.00031933002173900604,0.014944447204470634
1772019805235067000,6.01806689453125,0.018537521362304688,-0.00958109088242054,-0.004686505533754826
1772019805255031800,6.03803173828125,0.020377058535814285,-0.01355806365609169,-0.002074717078357935
1772019805274997800,6.057997802734375,0.003846192266792059,-0.022352013736963272,0.004758128896355629
1772019805294963000,6.077962890625,-0.009207211434841156,-0.0259468425065279,-0.003664950141683221
1772019805314929000,6.097928955078125,-0.011710265651345253,-0.01753941923379898,-0.01960301399230957
1772019805334893800,6.117893798828125,-0.002378464210778475,-0.005863146856427193,-0.013417302630841732
1772019805354859800,6.13785986328125,-0.002781536430120468,-0.01812380738556385,0.007844699546694756
1772019805374825700,6.15782568359375,0.0007720552384853363,-0.044747695326805115,-0.0026781056076288223
1772019805394791000,6.177791015625,0.0037859941367059946,-0.02613956853747368,-0.01161049772053957
1772019805414756900,6.1977568359375,0.006309259682893753,-0.003357198089361191,-0.014609450474381447
1772019805434721800,6.2177216796875,0.019817780703306198,0.00829182006418705,0.00023684720508754253
1772019805454687700,6.237687744140625,0.023355472832918167,-0.0012975088320672512,0.0029581745620816946
1772019805474652700,6.257652587890625,0.027265135198831558,-0.01451984141021967,-0.00034557946491986513
1772019805494619000,6.277618896484375,0.02534770593047142,-0.03926558047533035,-0.012545117177069187
1772019805514584800,6.297584716796875,0.020142607390880585,-0.0442863404750824,-0.03001556359231472
1772019805534549800,6.3175498046875,0.02068663388490677,-0.04827052354812622,-0.038923218846321106
1772019805554515700,6.337515625,0.011421848088502884,-0.04720374941825867,-0.03457082435488701
1772019805574481000,6.35748095703125,0.000393575057387352,-0.016512418165802956,-0.02092941850423813
1772019805594446800,6.37744677734375,0.013122724369168282,0.005785786546766758,-0.009474779479205608
1772019805614411800,6.397411865234375,0.01885121315717697,-0.005555715411901474,0.005336220376193523
1772019805634377700,6.417377685546875,0.003331658896058798,-0.023333661258220673,0.00277057196944952
1772019805654344000,6.437343994140625,-0.004399633966386318,-0.02758166752755642,-0.011544328182935715
1772019805674308900,6.457308837890625,-0.006988235283643007,-0.012629609555006027,-0.018294131383299828
1772019805694274800,6.47727490234375,-0.016965266317129135,-0.012909604236483574,-0.01394581701606512
1772019805714239700,6.49723974609375,-0.04378063231706619,-0.018348312005400658,-0.004069217946380377
1772019805734205700,6.517205810546875,-0.04678494110703468,-0.00034134648740291595,0.0015194456791505218
1772019805754171000,6.5371708984375,-0.03466547280550003,0.0253404900431633,0.014681982807815075
1772019805774136800,6.55713671875,-0.018660809844732285,0.010184438899159431,0.017775367945432663
1772019805794101800,6.577101806640625,-0.021434538066387177,-0.0036981748417019844,0.02440543659031391
1772019805814068000,6.59706787109375,-0.041717592626810074,-0.0029684542678296566,0.014620797708630562
1772019805834033700,6.61703369140625,-0.03186698257923126,0.0049570100381970406,-0.015996716916561127
1772019805853998800,6.636998779296875,-0.024896975606679916,0.008566135540604591,-0.021070346236228943
1772019805873964800,6.65696484375,-0.036520421504974365,-0.01927100494503975,-0.009966015815734863
1772019805893929700,6.6769296875,-0.022470036521553993,-0.04088716581463814,-0.016035107895731926
1772019805913896000,6.69689599609375,-0.004916501231491566,-0.032162219285964966,-0.027398236095905304
1772019805933860900,6.71686083984375,-0.005365608260035515,-0.01031994353979826,-0.026011021807789803
1772019805953826800,6.736826904296875,-0.013851362280547619,0.001657353714108467,-0.019769208505749702
1772019805973792800,6.756792724609375,-0.0022779395803809166,0.0044046733528375626,-0.007902858778834343
1772019805993757700,6.7767578125,0.010599270462989807,0.006540369242429733,-0.0026281061582267284
1772019806013724000,6.796723876953125,0.013296635821461678,0.0015633441507816315,0.001136872684583068
1772019806033688800,6.816688720703125,-0.0016073486767709255,0.006421748548746109,0.000993451103568077
1772019806053654300,6.836654296875,-0.012581094168126583,0.012463314458727837,-0.010225148871541023
1772019806073619200,6.856619140625,-0.010611383244395256,0.007357600145041943,-0.022636694833636284
1772019806093585200,6.876585205078125,-0.00555868074297905,0.001458415761590004,-0.018402617424726486
1772019806113550000,6.896550048828125,-0.0022216737270355225,0.0040602535009384155,-0.007173186633735895
1772019806133516000,6.91651611328125,0.0008667211513966322,-0.013255013152956963,-0.010245375335216522
1772019806153482200,6.936482177734375,-0.005212062504142523,-0.016332028433680534,-0.01504580583423376
1772019806173447200,6.956447265625,-0.0027361405082046986,-0.001286232378333807,-0.026148317381739616
1772019806193413400,6.976413330078125,-0.002394183073192835,-0.0021136822178959846,-0.026797575876116753
1772019806213378300,6.99637841796875,-0.010704044252634048,0.01226206123828888,-0.009870524518191814
1772019806233344000,7.016343994140625,-0.010615309700369835,0.01052763219922781,0.016250448301434517
1772019806253309200,7.03630908203125,0.011971699073910713,-0.002291575539857149,0.022964099422097206
1772019806273275100,7.056275146484375,0.02246255986392498,-0.004743018187582493,0.001089571276679635
1772019806293240000,7.076239990234375,0.01472874078899622,0.012822658754885197,-0.016342680901288986
1772019806313206300,7.096206298828125,0.0045093148946762085,0.030377238988876343,-0.010617917403578758
1772019806333172000,7.116171875,0.004992885515093803,0.0131856519728899,0.016594085842370987
1772019806353137200,7.13613720703125,0.036475930362939835,0.0047489358112216,0.02439514733850956
1772019806373103000,7.15610302734375,0.04579244554042816,-0.029481712728738785,0.033112961798906326
1772019806393068000,7.176068115234375,0.030366426333785057,-0.03576298803091049,0.020781394094228745
1772019806413034200,7.1960341796875,0.03896317631006241,-0.016802676022052765,0.0019988631829619408
1772019806432999200,7.215999267578125,0.046052079647779465,0.005473228171467781,-0.003648342564702034
1772019806452965400,7.23596533203125,0.034672390669584274,0.016433734446763992,0.010287446901202202
1772019806472930300,7.255930419921875,0.019699621945619583,0.00810770783573389,0.02432991936802864
1772019806492896000,7.27589599609375,0.019192665815353394,-0.011736012995243073,0.01928144507110119
1772019806512862200,7.2958623046875,0.019865216687321663,-0.005616973154246807,-0.006827358156442642
1772019806532827100,7.3158271484375,0.006361428182572126,0.020244017243385315,-0.02143840864300728
1772019806552793000,7.33579296875,-0.010974603705108166,0.02092251181602478,-0.0032429073471575975
1772019806572758300,7.35575830078125,-0.012742260470986366,0.014688298106193542,0.023647991940379143
1772019806592724000,7.375723876953125,0.004470977932214737,0.008494689129292965,0.024295911192893982
1772019806612689200,7.395689208984375,0.017640192061662674,0.014881731942296028,0.017567867413163185
1772019806632655000,7.415655029296875,0.012230869382619858,0.021654324606060982,0.007839079946279526
1772019806652620000,7.4356201171875,0.01017017662525177,-0.0013770111836493015,-0.005388363730162382
1772019806672586200,7.455586181640625,0.0003141770139336586,-0.016498267650604248,-0.01180950365960598
1772019806692552200,7.47555224609375,-0.00967193953692913,-0.028062190860509872,-0.004223967902362347
1772019806712517400,7.495517333984375,0.000038607046008110046,-0.03105185180902481,-0.013748906552791595
1772019806732483000,7.515483154296875,0.009362379088997841,-0.028274884447455406,-0.017092635855078697
1772019806752448000,7.535447998046875,0.012643696740269661,-0.03968856483697891,-0.014520704746246338
1772019806772414200,7.555414306640625,-0.0000657527707517147,-0.0393509641289711,-0.01418022345751524
1772019806792379100,7.575379150390625,-0.008492609485983849,-0.022913850843906403,-0.016066525131464005
1772019806812345000,7.595344970703125,-0.00011245021596550941,-0.01095491461455822,-0.005091393366456032
1772019806832310300,7.615310302734375,0.0026654470711946487,-0.01597852259874344,0.020288661122322083
1772019806852276000,7.63527587890625,0.008319255895912647,-0.0002676555886864662,0.03525377810001373
1772019806872241200,7.6552412109375,0.02439001016318798,-0.0227678120136261,0.040470369160175323
1772019806892207000,7.67520703125,0.010838302783668041,-0.028947332873940468,0.0493210107088089
1772019806912173000,7.695173095703125,-0.01003720611333847,-0.021163523197174072,0.0353698804974556
1772019806932138200,7.71513818359375,-0.010419324040412903,-0.0010600327514111996,0.007131191436201334
1772019806952104200,7.735104248046875,-0.011758976615965366,0.016305457800626755,0.00908436719328165
1772019806972069400,7.7550693359375,-0.020528150722384453,0.01872432418167591,0.03688642382621765
1772019806992035000,7.77503515625,0.005168285686522722,0.011874680407345295,0.048333875834941864
1772019807012000000,7.795,0.033711157739162445,0.009802567772567272,0.053499605506658554
1772019807031966200,7.81496630859375,0.02538721263408661,-0.008745711296796799,0.07282281666994095
1772019807051931600,7.834931640625,-0.0012938049621880054,0.01077127456665039,0.07512018084526062
1772019807071897600,7.854897705078125,-0.007958296686410904,0.047269679605960846,0.05386274680495262
1772019807091862500,7.874862548828125,0.007790782023221254,0.01693088188767433,0.036699045449495316
1772019807111828500,7.894828369140625,0.006024547386914492,-0.005463596433401108,0.040443409234285355
1772019807131794400,7.91479443359375,0.0028305728919804096,-0.02022334560751915,0.05616678670048714
1772019807151759600,7.934759521484375,-0.008035505190491676,-0.04628917574882507,0.05546579509973526
1772019807171725600,7.9547255859375,-0.032986756414175034,-0.044930603355169296,0.027727100998163223
1772019807191690500,7.9746904296875,-0.04437738284468651,-0.035948947072029114,-0.0041997674852609634
1772019807211656400,7.994656494140625,-0.035574838519096375,-0.03087828867137432,-0.015522196888923645
1772019807231621400,8.014621337890626,-0.02716977149248123,-0.015981093049049377,0.003280908800661564
1772019807251587600,8.034587646484376,-0.02662619948387146,-0.020170915871858597,0.03932609036564827
1772019807271552500,8.054552490234375,-0.02969815582036972,-0.02049875259399414,0.04575895518064499
1772019807291518500,8.0745185546875,-0.02826552465558052,-0.010314957238733768,0.011797841638326645
1772019807311483600,8.094483642578124,-0.024748357012867928,-0.017623253166675568,-0.0256772730499506
1772019807331449600,8.11444970703125,-0.03112388774752617,-0.026074066758155823,-0.016460619866847992
1772019807351414500,8.13441455078125,-0.04690830036997795,-0.02410200983285904,0.007724487688392401
1772019807371380500,8.15438037109375,-0.050664737820625305,-0.020357422530651093,-0.00390247767791152
1772019807391346400,8.174346435546875,-0.047787271440029144,-0.024467939510941505,-0.034417230635881424
1772019807411311600,8.1943115234375,-0.06892166286706924,-0.02249659225344658,-0.05775342881679535
1772019807431277600,8.214277587890624,-0.10022508352994919,-0.02671946957707405,-0.08496642112731934
1772019807451242500,8.234242431640626,-0.11132878065109253,-0.04191343113780022,-0.11556266993284225
1772019807471208400,8.25420849609375,-0.10476689040660858,-0.034710101783275604,-0.10167602449655533
1772019807491173600,8.274173583984375,-0.09263148158788681,-0.03410149738192558,-0.056853946298360825
1772019807511139600,8.2941396484375,-0.06422442942857742,-0.046516526490449905,-0.010734925977885723
1772019807531104500,8.3141044921875,-0.032483648508787155,-0.04967677965760231,0.019062088802456856
1772019807551070500,8.334070556640626,-0.028522290289402008,-0.012439992278814316,0.020189877599477768
1772019807571035600,8.35403564453125,-0.0392761193215847,0.0022823642939329147,-0.00849948264658451
1772019807591001600,8.374001708984375,-0.046031251549720764,-0.013655180111527443,-0.05206676200032234
1772019807610966500,8.393966552734375,-0.045835115015506744,-0.018404122442007065,-0.06539522856473923
1772019807630932500,8.413932373046874,-0.024474147707223892,-0.027407875284552574,-0.047214001417160034
1772019807650898400,8.4338984375,-0.01113858725875616,-0.02447165548801422,-0.028561081737279892
1772019807670863600,8.453863525390625,-0.0012318948283791542,-0.01120360754430294,-0.026433410122990608
1772019807690829600,8.47382958984375,0.00724151823669672,-0.008239311166107655,-0.01568911038339138
1772019807710794500,8.49379443359375,-0.0009176135063171387,0.006759803742170334,-0.004350363276898861
1772019807730760400,8.513760498046874,-0.012828662060201168,0.011778918094933033,0.0014140119310468435
1772019807750725600,8.5337255859375,-0.00985102728009224,0.001496635377407074,-0.010176734998822212
1772019807770691600,8.553691650390626,-0.007997434586286545,-0.0299069844186306,-0.031686171889305115
1772019807790656500,8.573656494140625,-0.021177498623728752,-0.03594350069761276,-0.025982731953263283
1772019807810622500,8.59362255859375,-0.033621445298194885,-0.02596575766801834,-0.022707201540470123
1772019807830587600,8.613587646484374,-0.034868136048316956,-0.02572549507021904,-0.019869035109877586
1772019807850553600,8.6335537109375,-0.03530356287956238,-0.003358935471624136,-0.003769694361835718
1772019807870518500,8.6535185546875,-0.025238772854208946,0.029744518920779228,0.012779980897903442
1772019807890484500,8.673484375,-0.002900631632655859,0.03139125928282738,0.01807759888470173
1772019807910449400,8.693449462890625,0.0039978958666324615,-0.0004214588552713394,0.020405005663633347
1772019807930415600,8.71341552734375,-0.006621645763516426,-0.021395787596702576,0.016081882640719414
1772019807950380500,8.733380615234376,-0.011191975325345993,-0.003936298657208681,0.004169045016169548
1772019807970346500,8.753346435546876,-0.007586704101413488,-0.0032220669090747833,-0.017323831096291542
1772019807990312700,8.773312744140625,-0.007239765487611294,0.01563999243080616,-0.006534745916724205
1772019808010277600,8.793277587890625,-0.0031340010464191437,0.007845781743526459,0.009949645027518272
1772019808030243600,8.81324365234375,0.010625079274177551,0.009808638133108616,0.021096356213092804
1772019808050208500,8.83320849609375,0.0200274009257555,-0.01568116433918476,0.007579331286251545
1772019808070174500,8.853174560546876,0.023088907822966576,-0.0055532148107886314,0.0032792333513498306
1772019808090139600,8.8731396484375,0.013230277225375175,0.002355685457587242,0.00087897595949471
1772019808110105600,8.893105712890625,0.010138677433133125,-0.0023126136511564255,0.007452154997736216
1772019808130070500,8.913070556640625,0.024993570521473885,0.007511071860790253,-0.0006011076038703322
1772019808150036500,8.933036376953124,0.03316812589764595,0.012503732927143574,0.0006875745020806789
1772019808170001400,8.95300146484375,0.026430625468492508,-0.018169904127717018,0.0006259044166654348
1772019808189967600,8.972967529296875,0.023393776267766953,-0.016093434765934944,0.0029588905163109303
1772019808209932500,8.9929326171875,0.011138161644339561,-0.007887142710387707,-0.00017061131075024605
1772019808229898500,9.0128984375,-0.0009565064683556557,-0.013873197138309479,-0.019023675471544266
1772019808249863700,9.03286376953125,0.0017850613221526146,-0.01600705087184906,-0.02590818516910076
1772019808269829600,9.05282958984375,0.010642092674970627,-0.026239052414894104,-0.011654442176222801
1772019808289794600,9.072794677734375,0.0012740318197757006,-0.021480532363057137,-0.00945745687931776
1772019808309760500,9.092760498046875,-0.0019256309606134892,-0.004968917462974787,-0.022379523143172264
1772019808329725400,9.112725341796875,0.0014748654793947935,-0.0016726222820580006,-0.022457562386989594
1772019808349691600,9.132691650390624,-0.00024277949705719948,0.01909194327890873,-0.012102119624614716
1772019808369656600,9.152656494140626,-0.006734767463058233,0.0010053515434265137,-0.010714612901210785
1772019808389622500,9.17262255859375,0.0069744642823934555,-0.01620832085609436,-0.027552196756005287
1772019808409588500,9.19258837890625,0.0235118567943573,0.0033079395070672035,-0.04643591493368149
1772019808429553400,9.212553466796875,0.02179044485092163,0.006856483407318592,-0.05638595297932625
1772019808449519600,9.23251953125,0.016218580305576324,-0.002737288363277912,-0.03682450205087662
1772019808469484500,9.252484619140626,0.023196186870336533,0.0014340374618768692,-0.00963776744902134
1772019808489450500,9.272450439453126,0.021394699811935425,0.004503580741584301,-0.004020750522613525
1772019808509415700,9.292415771484375,0.017014002427458763,-0.0018570725806057453,-0.017183387652039528
1772019808529381600,9.312381591796875,-0.0035273502580821514,0.007629798725247383,-0.04722709208726883
1772019808549346600,9.3323466796875,-0.015594649128615856,0.014836013317108154,-0.06824500113725662
1772019808569312500,9.3523125,-0.010930625721812248,0.013473656959831715,-0.053954366594552994
1772019808589277400,9.37227734375,0.0036522657610476017,-0.011755350045859814,-0.02880680374801159
1772019808609243600,9.39224365234375,0.00011242134496569633,-0.013592545874416828,-0.010437269695103168
1772019808629208600,9.41220849609375,-0.008186550810933113,-0.01407629530876875,-0.021906288340687752
1772019808649174500,9.432174560546875,-0.01681937649846077,0.0059705860912799835,-0.05484667420387268
1772019808669139700,9.4521396484375,-0.02091865800321102,0.012587761506438255,-0.04005588963627815
1772019808689105400,9.47210546875,-0.021994680166244507,-0.022288519889116287,-0.010449628345668316
1772019808709070300,9.4920703125,-0.012497611343860626,-0.026057805866003036,0.012531738728284836
1772019808729036500,9.51203662109375,-0.006266991142183542,-0.02261527255177498,-0.00353514077141881
1772019808749001500,9.53200146484375,-0.02058878168463707,-0.012823143973946571,-0.03517306223511696
1772019808768967700,9.5519677734375,-0.03914673998951912,-0.018030183389782906,-0.037090517580509186
1772019808788932600,9.5719326171875,-0.0455639585852623,-0.017528574913740158,-0.019244229421019554
1772019808808898600,9.591898681640625,-0.034160178154706955,-0.03209923952817917,-0.017685623839497566
1772019808828863700,9.61186376953125,-0.03374974802136421,-0.04151226207613945,-0.029731592163443565
1772019808848829400,9.631829345703125,-0.04626607149839401,-0.022008337080478668,-0.03169513866305351
1772019808868794400,9.65179443359375,-0.031744226813316345,-0.0035485848784446716,-0.019871706143021584
1772019808888760600,9.671760498046876,-0.028893161565065384,-0.018835097551345825,-0.005047413054853678
1772019808908726500,9.6917265625,-0.0157863087952137,-0.03858344256877899,-0.007172515615820885
1772019808928692500,9.7116923828125,-0.003596249036490917,-0.03077011927962303,-0.012124777771532536
1772019808948657400,9.731657470703125,-0.008053753525018692,-0.03978981450200081,-0.011811583302915096
1772019808968623600,9.75162353515625,-0.009149519726634026,-0.05785321816802025,-0.01475105807185173
1772019808988588500,9.771588623046876,-0.006191748660057783,-0.0547412671148777,-0.028927704319357872
1772019809008554500,9.791554443359376,-0.012430431321263313,-0.06533956527709961,-0.053997427225112915
1772019809028519700,9.811519775390625,-0.040455322712659836,-0.06400452554225922,-0.10384789109230042
1772019809048485600,9.831485595703125,-0.0576244555413723,-0.037756938487291336,-0.12440510094165802
1772019809068450800,9.851450927734374,-0.05709334462881088,-0.029494013637304306,-0.11815787851810455
1772019809088416800,9.871416748046874,-0.04898883029818535,-0.026185525581240654,-0.11180385947227478
1772019809108381700,9.891381591796875,-0.055403634905815125,-0.03207864984869957,-0.09413126111030579
1772019809128348000,9.911347900390625,-0.061566147953271866,-0.0014292094856500626,-0.1101679727435112
1772019809148312800,9.931312744140625,-0.054743245244026184,0.04364706575870514,-0.14916573464870453
1772019809168278800,9.95127880859375,-0.044561684131622314,0.023430250585079193,-0.1681022047996521
1772019809188244000,9.971243896484374,-0.05085505172610283,-0.010536236688494682,-0.17888690531253815
1772019809208209700,9.991209716796876,-0.04924364760518074,-0.0245145782828331,-0.13775889575481415
1772019809228174600,10.011174560546875,-0.05761396512389183,0.0122833838686347,-0.06918888539075851
1772019809248140800,10.031140869140625,-0.05478338524699211,-0.020367398858070374,-0.019760090857744217
1772019809268105700,10.051105712890624,-0.07118310034275055,-0.06613262742757797,0.0033650510013103485
1772019809288072000,10.071072021484374,-0.08490100502967834,-0.06552471965551376,0.0011674545239657164
1772019809308036900,10.091036865234376,-0.07955213636159897,0.009444871917366982,-0.016848212108016014
1772019809328002800,10.1110029296875,-0.03985351324081421,0.02865666151046753,-0.07002536952495575
1772019809347967700,10.1309677734375,-0.05634048208594322,0.009489026851952076,-0.11682062596082687
1772019809367933700,10.15093359375,-0.1002860814332962,-0.07515081018209457,-0.15267369151115417
1772019809387898600,10.170898681640624,-0.16026325523853302,-0.07406586408615112,-0.21564744412899017
1772019809407864800,10.19086474609375,-0.17002134025096893,-0.1077626571059227,-0.31552761793136597
1772019809427829800,10.210829833984375,-0.15341433882713318,-0.1157153770327568,-0.33849528431892395
1772019809447796000,10.2307958984375,-0.16667595505714417,-0.15320679545402527,-0.29868176579475403
1772019809467761000,10.250760986328125,-0.17964665591716766,-0.26516324281692505,-0.2653529942035675
1772019809487726600,10.2707265625,-0.2073734998703003,-0.4196728765964508,-0.2507307827472687
1772019809507691800,10.29069189453125,-0.2041734755039215,-0.4225737154483795,-0.22339487075805664
1772019809527657700,10.31065771484375,-0.1626560240983963,-0.30954158306121826,-0.2029484361410141
1772019809547622700,10.33062255859375,-0.11584995687007904,-0.18525484204292297,-0.2160702347755432
1772019809567588900,10.3505888671875,-0.08321088552474976,-0.14997078478336334,-0.19770774245262146
1772019809587553800,10.3705537109375,-0.0618734173476696,-0.1818481683731079,-0.11532370001077652
1772019809607519700,10.390519775390626,-0.04879826307296753,-0.22967271506786346,-0.022377869114279747
1772019809627484700,10.410484619140625,-0.03834647685289383,-0.21187585592269897,-0.010414381511509418
1772019809647450600,10.43045068359375,-0.025004137307405472,-0.10349708795547485,-0.04290122538805008
1772019809667415800,10.450415771484375,0.01732267066836357,0.0017159022390842438,-0.07761487364768982
1772019809687381800,10.4703818359375,0.04258308932185173,0.0016440339386463165,-0.07247188687324524
1772019809707346700,10.4903466796875,0.019045373424887657,-0.04843318089842796,-0.022853367030620575
1772019809727313000,10.51031298828125,-0.0021199509501457214,-0.03622136265039444,0.05729523301124573
1772019809747277800,10.53027783203125,-0.020475376397371292,-0.010212427005171776,0.06292875856161118
1772019809767243800,10.550243896484375,-0.019665969535708427,0.06676193326711655,-0.02967228926718235
1772019809787208700,10.570208740234374,-0.010285691358149052,0.08655798435211182,-0.14004121720790863
1772019809807174700,10.590174560546876,-0.008328578434884548,0.11231324821710587,-0.20707809925079346
1772019809827139800,10.610139892578125,0.010037252679467201,0.16866153478622437,-0.24114280939102173
1772019809847105800,10.630105712890625,0.05872223153710365,0.26506876945495605,-0.23687030375003815
1772019809867070700,10.65007080078125,0.05536326766014099,0.3624391257762909,-0.04947901889681816
1772019809887037000,10.670036865234374,0.02178133837878704,-0.07490438967943192,0.20326800644397736
1772019809907001900,10.690001953125,0.094169981777668,-0.2187480628490448,0.25904232263565063
1772019809926967800,10.7099677734375,0.1371905356645584,-0.10383894294500351,0.019313938915729523
1772019809946932700,10.7299326171875,0.14859582483768463,-0.033560387790203094,-0.1980491578578949
1772019809966898700,10.749898681640625,0.11595761030912399,-0.042508307844400406,-0.11600001156330109
