time,seconds_elapsed,z,y,x
1772019787267757800,0.0857578125,0.04433423176705837,-0.12392594713717699,0.07570271770809776
1772019787287724000,0.10572412109375,-0.01399871473610401,-0.030288170757889747,-0.013742931610438972
1772019787307690000,0.12568994140625,0.12075462362468242,-0.1201300619855523,0.058580884249089284
1772019787327656000,0.145656005859375,-0.06930266880691051,-0.07956219701468945,0.01900161475704517
1772019787347622000,0.165621826171875,-0.12365385219752788,-0.04923720137774944,-0.032962824194086714
1772019787367588000,0.185588134765625,0.05594400554001331,-0.17189064436107873,-0.0282411659670528
1772019787387554000,0.205553955078125,-0.1366629713743925,-0.13107903376221655,-0.1122304861084558
1772019787407520000,0.22552001953125,0.02678746916055679,-0.0842234668239951,-0.09781549132219515
1772019787427486000,0.24548583984375,0.2056663649737835,-0.08853226993381977,0.0048083113138913175
1772019787447452200,0.2654521484375,0.25133798282444475,-0.08479016079604625,0.017450795985315924
1772019787467417900,0.28541796875,0.2622936766028404,-0.13518266968876122,-0.07463829421382397
1772019787487384000,0.305384033203125,0.3421913891822099,-0.11783756713420152,0.09402644690331072
1772019787507350000,0.32535009765625,0.2737321854621172,-0.01129822360575199,0.13751013538879342
1772019787527316000,0.34531591796875,0.17975509412586688,-0.004922551093995571,0.02256946102316724
1772019787547282000,0.365281982421875,0.015683891344070434,-0.12551233954578636,0.019844072913576382
1772019787567248100,0.385248046875,-0.19812310998737812,-0.08788841907233,-0.025878505656053312
1772019787587214000,0.405214111328125,-0.08519815707504749,-0.07873772888928651,-0.01321630136236199
1772019787607180000,0.425179931640625,-0.10789280396401882,-0.04725187277942896,0.13376512190788054
1772019787627145000,0.44514501953125,0.05622808317840099,0.05424246231913566,0.24808606835640964
1772019787647111000,0.46511083984375,0.14888532408773897,0.04728343696147203,0.16170593495517968
1772019787667077000,0.4850771484375,0.12231237446069716,-0.08651946880668401,0.15250801723008042
1772019787687043000,0.50504296875,0.028154081338644027,-0.061407531642913814,0.07008838952423539
1772019787707009000,0.525009033203125,0.007010755544900894,-0.008781564609706402,0.1069708485472016
1772019787726975000,0.54497509765625,0.03674772216081619,-0.024227847805619238,0.13969178114365785
1772019787746941200,0.564941162109375,0.05564940650761127,0.06846563346087932,0.11653260374916717
1772019787766907000,0.584906982421875,-0.09160860863924027,-0.05955167464315891,0.03836268764336127
1772019787786873000,0.604873046875,-0.2056698721051216,-0.0075844637796282765,0.054920758872921575
1772019787806839000,0.624839111328125,-0.03939034562408924,0.057605216750502584,0.11185554271568543
1772019787826805000,0.644804931640625,0.07525134807825087,-0.016252923403680324,0.08959385301703586
1772019787846771000,0.66477099609375,0.1488280409425497,-0.07828501668572425,0.04683293954788241
1772019787866737000,0.68473681640625,0.13246201255321502,-0.11174451095610856,-0.03350557331825839
1772019787886703000,0.704703125,0.08113572994172573,-0.09645838675796985,-0.016350013402872718
1772019787906668800,0.724668701171875,-0.06514613364934921,-0.10775924071222544,-0.024011337244417518
1772019787926635000,0.744635009765625,-0.09809270996153355,-0.11586831288784742,-0.05470095124293584
1772019787946601000,0.76460107421875,0.0019072949260473251,-0.13966887519210577,0.012269424991775304
1772019787966566100,0.784566162109375,-0.06147416713833809,-0.10460399155169725,0.07136012649310286
1772019787986532000,0.804531982421875,-0.06459609855115413,-0.06525397793799638,0.0008149799194943624
1772019788006498000,0.824498046875,-0.03572130172252655,-0.11744915233850478,0.03982796072321944
1772019788026462500,0.84446240234375,-0.13460077814757823,-0.10596037459671497,-0.049445245504705235
1772019788046428400,0.864428466796875,-0.0051543140232563015,-0.07854746701419353,-0.007342073283431818
1772019788066394600,0.88439453125,0.057813306543231004,-0.060390171293914316,0.07848312394055537
1772019788086360600,0.904360595703125,-0.013090952241420746,-0.023119009780883788,0.03607555395371746
1772019788106326500,0.924326416015625,-0.027338088780641555,-0.007402092950046062,0.039252339092618785
1772019788126292500,0.94429248046875,0.18667115712463855,-0.013591302978992461,0.07781392857525497
1772019788146258700,0.9642587890625,-0.030600305446982383,-0.11220832907557486,0.07022873414326458
1772019788166224400,0.984224365234375,-0.14478314946591853,-0.0916784590050578,0.03197202990831574
1772019788186190600,1.004190673828125,0.06251286253631115,-0.033974165794253344,0.08665696844807826
1772019788206156500,1.024156494140625,0.13756722673773764,-0.008173077322542667,0.1130880801853258
1772019788226122500,1.04412255859375,0.020881459987163543,-0.04795797522217035,0.04870940551082603
1772019788246088400,1.06408837890625,0.016657704812288284,-0.04263561115562915,0.0689921552527463
1772019788266053400,1.084053466796875,0.03291968830525875,-0.005484276629984379,0.12217073750030248
1772019788286019600,1.10401953125,0.005340776506066322,-0.028158465252816674,0.10139473804845474
1772019788305985500,1.123985595703125,-0.005080664265155792,-0.08205313704758882,0.05537958572343923
1772019788325951500,1.143951416015625,-0.08803075015246868,-0.1218117314621806,0.0358488485087757
1772019788345917400,1.16391748046875,-0.08331775015592574,-0.10071809002906083,0.039872676647780464
1772019788365883600,1.183883544921875,0.05507715957760811,-0.13701222320348025,0.10690010313224046
1772019788385849600,1.203849609375,0.0067787003546953195,-0.08761398604512215,0.03503604798828019
1772019788405815600,1.223815673828125,0.1764870322406292,-0.06123977386057376,0.0653471589470515
1772019788425781500,1.243781494140625,0.1456336288154125,-0.01431640238314867,0.08351130909980274
1772019788445747700,1.263747802734375,0.12289864991605282,-0.014948855067789554,0.031238521152129394
1772019788465713400,1.28371337890625,0.037300095346570014,-0.008943769434094428,-0.013658013822941574
1772019788485679400,1.303679443359375,-0.12658698303997515,0.0035158991664648053,-0.024543487342761364
1772019788505645600,1.3236455078125,0.010980828219652175,0.10206132133156061,0.07912495637489482
1772019788525611500,1.343611572265625,0.03396656700968742,0.11608604729175567,0.04167345159258693
1772019788545577500,1.363577392578125,0.019551088166236876,0.0014504910692572594,-0.019597922982648015
1772019788565542400,1.38354248046875,0.009226678028702735,-0.015488076511025428,0.020510900508565827
1772019788585508600,1.403508544921875,0.005761632266640663,-0.04349719642102718,0.012093972526746802
1772019788605474600,1.423474609375,0.06314999139606953,-0.17636077551245688,-0.027515208046371115
1772019788625440500,1.4434404296875,-0.025119828209280968,-0.1690092437058687,-0.0057027599525637926
1772019788645406500,1.463406494140625,0.020595044261217117,-0.12016688686460256,0.09045418704026378
1772019788665372700,1.48337255859375,0.04009761711061001,-0.1768476822465658,0.10865195176824927
1772019788685338600,1.503338623046875,0.05729366658329963,-0.25472908656746146,0.029284870900283567
1772019788705304300,1.52330419921875,0.121339145514369,-0.24017244568765161,0.033295280152000485
1772019788725270500,1.5432705078125,0.09440496135950088,-0.1408686063706875,0.09807533870162442
1772019788745236500,1.563236572265625,-0.15037994655966758,-0.03634235623031854,0.07945153971444815
1772019788765202400,1.583202392578125,-0.09198036456108093,-0.04014554790556431,0.08843020693198778
1772019788785168400,1.60316845703125,0.08186229065060616,-0.029072072966396807,0.1148711185440421
1772019788805134600,1.623134521484375,0.03610124095082283,-0.01648351728916168,0.06312442769655026
1772019788825099500,1.643099609375,-0.011392331629991531,0.03167436441928148,0.011484608456748537
1772019788845065500,1.6630654296875,0.09213935451507568,0.023918635725975034,-0.03648203412906732
1772019788865031400,1.683031494140625,0.10723054066300391,-0.06941723509728909,-0.12636643562447278
1772019788884997600,1.70299755859375,0.14189268872141836,-0.054141632293164724,-0.12193405180075205
1772019788904963600,1.722963623046875,0.41563773366510864,-0.08123977483808993,0.06678749851505272
1772019788924929500,1.742929443359375,0.26428222007155416,-0.08857610907554626,0.08575785505073144
1772019788944895500,1.7628955078125,0.13055647119283675,-0.06597732377648353,0.08547614289936609
1772019788964861400,1.782861328125,-0.0451736052006483,-0.11518062288463116,0.06239531883755699
1772019788984827400,1.802827392578125,-0.3204746474146843,-0.12922083867490292,0.008704990529690985
1772019789004793300,1.82279345703125,-0.32876725946366786,-0.14650748904049396,0.0768180676720105
1772019789024759800,1.842759765625,-0.22500702525973318,-0.10931669928729533,0.14337809584042988
1772019789044726000,1.86272607421875,-0.13905308138132094,-0.13833411945700644,0.15511745994295925
1772019789064691000,1.88269091796875,-0.09960954426527023,-0.1367062259942293,0.13169835297064855
1772019789084656600,1.90265673828125,-0.2733452319711447,-0.10365268217623233,0.08385667933821678
1772019789104622800,1.922622802734375,-0.10396890851855277,-0.10327508103549479,0.09708777070268988
1772019789124588800,1.9425888671875,-0.04462824627757072,-0.13263766138106584,0.10214842422627843
1772019789144554800,1.9625546875,-0.07975918089151382,-0.07952391083091497,-0.0439915695089614
1772019789164520700,1.982520751953125,-0.07242167761027812,-0.1062441599741578,-0.07707427092278375
1772019789184487000,2.00248681640625,0.10082768788337707,-0.14762714072018862,-0.08269914333354682
1772019789204452900,2.022452880859375,0.05905600008070468,-0.11414689592272043,0.0001237268443685025
1772019789224418800,2.042418701171875,0.05309446132779121,0.01449409703761339,0.005523572027334012
1772019789244384800,2.062384765625,0.10333762487769126,-0.031193010643124578,0.03330354565684684
1772019789264351000,2.08235107421875,0.13029518990814684,-0.08737930050641297,0.034220199277461505
1772019789284316700,2.102316650390625,0.03437105615735054,-0.07996025642156601,0.06490898215891792
1772019789304281900,2.12228173828125,0.07542728916704654,0.014556348618865012,0.11132213909188285
1772019789324247800,2.142247802734375,0.1076233393728733,-0.030098201143741607,0.1992855778954923
1772019789344213800,2.1622138671875,-0.05908055000007152,-0.12287468451857567,0.06730819792090914
1772019789364180000,2.182179931640625,-0.15763094060122965,-0.08694353943765162,0.029996238606609403
1772019789384145700,2.202145751953125,0.0758165807455778,-0.042750177446007724,-0.01365188319296576
1772019789404112000,2.22211181640625,0.16059622014760971,-0.15368892497718334,0.06212593644480221
1772019789424077800,2.242077880859375,-0.049722354546189305,-0.08239099069982767,0.03665772405611351
1772019789444043800,2.262043701171875,-0.11980536007583141,-0.028909575881063937,0.09051106832665391
1772019789464009700,2.282009765625,-0.1650748268663883,-0.08759732717126607,0.06375374770918861
1772019789483976000,2.301975830078125,-0.1871136401951313,-0.11806611519306898,0.004725338888308033
1772019789503942000,2.32194189453125,-0.006263736569881439,-0.10190320816040038,0.012401618270389735
1772019789523907000,2.341906982421875,0.09916647667288779,-0.0929226138472557,0.011884754789434373
1772019789543872800,2.361872802734375,0.03913198694884777,0.0067465516507625575,-0.05749669660842046
1772019789563838700,2.381838623046875,0.19205986442565917,0.015045008918642997,-0.046255719615239645
1772019789583805000,2.401804931640625,0.26291853050291536,0.07768237461745739,0.02435923736663535
1772019789603770600,2.4217705078125,0.17686346433758734,0.23216741840839383,0.0813103558562696
1772019789623736800,2.44173681640625,0.20604279707074163,0.18095131817311047,0.0647568968697451
1772019789643702800,2.461702880859375,0.24084523038268088,0.10040127916485071,0.11203918305374681
1772019789663669000,2.4816689453125,0.08500526485145092,0.16302257051169872,0.1355456943148747
1772019789683634700,2.501634765625,-0.02023322521150112,0.012840776872634886,0.03421986591732129
1772019789703601000,2.521600830078125,-0.01694236697256565,-0.08614683610200881,0.007922189567703753
1772019789723565800,2.54156591796875,-0.043756724140048026,0.007346271109580993,0.06515460921674966
1772019789743532000,2.561531982421875,0.08879355121850967,-0.017640578369796274,0.15672067562220618
1772019789763497700,2.581497802734375,0.07018646590411663,-0.03512362809032202,0.15598832449335603
1772019789783463700,2.601463623046875,-0.033572599256038664,-0.05594780493229627,0.0820197919004131
1772019789803430000,2.621429931640625,-0.11620178262591362,-0.06823766992390155,0.03837090291585773
1772019789823395800,2.641395751953125,-0.15138415516614914,-0.09009031303077936,-0.029405542704463
1772019789843361800,2.66136181640625,-0.08241057218313216,-0.13123042493164538,-0.07485932568651624
1772019789863327700,2.68132763671875,-0.15336334628462792,-0.12038374448567628,-0.08283171107149682
1772019789883294000,2.7012939453125,-0.09033142831027507,-0.09862228679358959,-0.06578522613733075
1772019789903259600,2.721259765625,-0.029193945780396458,-0.15213175866305828,-0.12754337044935674
1772019789923224800,2.741224853515625,0.04636661437749862,-0.1984437202438712,-0.1334063167991582
1772019789943190800,2.761190673828125,0.012834347131848334,-0.13897154057770966,-0.20357450726106763
1772019789963157000,2.781156982421875,0.15880641412138938,-0.14708850379884242,-0.20771763494778422
1772019789983123000,2.801123046875,0.19828268446326255,-0.10389993493556976,-0.04346475545614958
1772019790003089000,2.8210888671875,0.2022398976564407,0.049644905395805836,0.067830952286534
1772019790023055000,2.84105517578125,0.09614391398131847,0.06653320409357548,0.17780375912869348
1772019790043021000,2.86102099609375,-0.11701894422769546,0.015004676908254622,0.08737533671734854
1772019790062986800,2.88098681640625,-0.17042904737591744,-0.03166442754715681,0.05428508675131015
1772019790082953000,2.900952880859375,-0.042133506852388376,-0.009958207173645496,0.11350022291648201
1772019790102919000,2.9209189453125,0.07378419813513755,-0.02655482944846153,0.0685710209309589
1772019790122884000,2.940884033203125,0.2175526176005602,-0.12840163124650716,-0.031137882922403513
1772019790142850000,2.96085009765625,0.024461072039604185,-0.21349398985952137,-0.014253949872497469
1772019790162816000,2.98081591796875,-0.27237024945914745,-0.134696347476542,-0.06743482910841703
1772019790182782000,3.000781982421875,-0.4232750966757536,-0.1631865289017558,-0.12746668848395346
1772019790202748200,3.020748046875,-0.30628187141120433,-0.08643646669834852,-0.08070748545913957
1772019790222713900,3.0407138671875,0.002947159367799759,0.005892272908985615,0.008466973102046176
1772019790242680000,3.06068017578125,0.11304828703105449,0.011089257030189037,0.0526720894635655
1772019790262646000,3.08064599609375,0.03949497504234314,0.040780338677763935,0.004142406167509034
1772019790282612000,3.100612060546875,-0.005987257716059685,-0.03872662101835012,-0.08096320465272291
1772019790302578000,3.120577880859375,0.03246376123130321,-0.09855068286210297,-0.009888274609437211
1772019790322542800,3.14054296875,0.18339140480160712,-0.025308921040594578,0.09175616388376802
1772019790342509000,3.160509033203125,0.28939211140871046,0.009915244814753532,0.24457086330968886
1772019790362475000,3.18047509765625,0.25638065316677094,-0.02145195335149765,0.23845194203797726
1772019790382441000,3.20044091796875,0.19201310267448424,-0.09985679702460765,0.14862399713727645
1772019790402407000,3.220406982421875,0.009663900402188301,-0.11727584159821271,0.09205836170073597
1772019790422373000,3.240373046875,-0.2793207992494106,-0.1199775017723441,0.07434752197316848
1772019790442338800,3.2603388671875,-0.004493219766020774,0.07475245864540338,0.11109202013043686
1772019790462305000,3.280304931640625,-0.2333890691578388,-0.03865443256497383,0.02752814972633496
1772019790482271000,3.30027099609375,-0.10791560031771659,-0.1431660696581006,-0.02241056011742912
1772019790502236000,3.32023583984375,0.1323275725185871,-0.13008125489652156,-0.016503765492746604
1772019790522202000,3.3402021484375,0.037782325905561444,-0.11329232491999863,0.04410983929350041
1772019790542167800,3.360167724609375,-0.1059673888593912,-0.03608370529413223,0.06226932697086594
1772019790562134000,3.380134033203125,-0.06096680213809013,-0.008669920928776264,0.05788770522000268
1772019790582100000,3.400099853515625,-0.0007528641939163207,-0.11419248863011598,-0.028994486818695438
1772019790602066000,3.42006591796875,0.059760933479666704,-0.16654402263611554,-0.0915393793279305
1772019790622032000,3.440031982421875,0.0835422065615654,-0.1407742060855031,-0.016112610750691963
1772019790641998000,3.459998046875,0.05754091934263706,-0.1071872860431671,0.03350682227713987
1772019790661964000,3.479964111328125,0.07248012979924678,-0.06632569882273674,0.02256547668450512
1772019790681929000,3.499928955078125,0.0013350479960441588,-0.07125321835279465,0.007897192123765126
1772019790701895000,3.51989501953125,-0.046589317217469214,0.011597206552326678,0.06055138060445897
1772019790721860900,3.53986083984375,0.076047466892004,0.05019464823305607,0.05993561419313773
1772019790741827000,3.5598271484375,0.043702363604307175,-0.0002463759765028953,0.02560513664134778
1772019790761793000,3.57979296875,-0.007275543960928917,0.01603694256544113,0.03499819334605708
1772019790781759000,3.599759033203125,0.14197218369841574,0.024063597154617308,0.03646482269936241
1772019790801725000,3.619724853515625,0.17920038285255432,-0.07052052016407251,-0.005115598581219092
1772019790821691100,3.639691162109375,0.05982406184375286,-0.0918397870466113,-0.031497710944432766
1772019790841656800,3.65965673828125,0.11354103898406027,-0.06628069063723087,0.052939398630242794
1772019790861621800,3.679621826171875,0.10100713610351085,-0.03900689926445484,0.1361259236219339
1772019790881588000,3.699587890625,0.08819441628158092,-0.06441138963401317,0.09180718168495222
1772019790901554000,3.719553955078125,0.12174655727148055,-0.09721738843172788,0.09623816813603044
1772019790921519900,3.739519775390625,-0.044592005920410155,-0.07262655253261327,0.026405200977856293
1772019790941485800,3.75948583984375,-0.06674713910520076,-0.0454679119721055,0.05327825692947954
1772019790961452000,3.7794521484375,0.08584405376315116,-0.011602759510278702,0.06092980372910387
1772019790981418000,3.79941796875,0.1459954478651285,-0.020985504883527753,0.0934185898038093
1772019791001384000,3.819384033203125,-0.04862286887168884,-0.04581716380119324,0.057331450443575155
1772019791021349000,3.83934912109375,-0.20298808567523954,-0.03898205708414316,-0.00839752459502779
1772019791041315300,3.8593154296875,-0.34127953503429886,-0.08757043916434049,-0.07057323673199861
1772019791061281300,3.87928125,-0.24755963332951067,-0.14492314245849847,-0.09705723856710828
1772019791081247000,3.8992470703125,-0.08223229300677776,-0.11812602868676185,-0.01850742433220148
1772019791101213200,3.919213134765625,-0.06132394501268863,-0.10449936213344335,-0.0537445227343589
1772019791121179100,3.93917919921875,0.02428396190702915,-0.13296470137834548,-0.10098599285078234
1772019791141145300,3.959145263671875,0.11303835015892982,-0.12041647771149873,-0.06797989577054978
1772019791161111000,3.979111083984375,0.2216384256094694,-0.1022597665131092,-0.03582484429539181
1772019791181076200,3.999076171875,0.1832265696287155,-0.08322101178318261,-0.026848999222600832
1772019791201042200,4.019042236328125,0.25932021375000475,-0.07138911969214677,0.05832277216902002
1772019791221008400,4.03900830078125,0.11969956161379813,-0.02202127767205238,0.07235785512644798
1772019791240974000,4.05897412109375,-0.03688274671733379,-0.02571837862432003,0.08504142301022075
1772019791260940300,4.078940185546875,-0.09798924958705901,0.02938917609155178,0.13161188939674756
1772019791280906200,4.09890625,-0.06726794810891151,0.020154607017338275,0.12551064991219898
1772019791300872400,4.11887255859375,-0.11752864731550217,-0.0676540248170495,0.08132251208494416
1772019791320838100,4.138838134765625,-0.15020342094898223,0.010598843164741993,0.07634645897173323
1772019791340803000,4.158802978515625,-0.014504326170682907,0.044669162809848784,0.15810900644175707
1772019791360769300,4.178769287109375,-0.08650339445471764,-0.026801789946854112,0.07013745739692821
1772019791380735200,4.1987353515625,-0.19844868867993354,-0.015607026715576648,-0.06626797728613018
1772019791400701200,4.218701171875,-0.02490355511009693,-0.00952361514866352,-0.02623118698466569
1772019791420667100,4.238667236328125,0.18601006286740301,-0.0401961090490222,-0.06097078419346362
1772019791440633300,4.25863330078125,0.17169219917953013,-0.04604103568494319,-0.04970933066783473
1772019791460599300,4.278599365234375,0.166875154286623,0.008069032426178456,-0.07392993588191457
1772019791480565200,4.298565185546875,0.1826034692943096,-0.06777589763104916,-0.12525402653631754
1772019791500530200,4.3185302734375,-0.022809213179349898,-0.09916706119477749,-0.1079052707199473
1772019791520496000,4.33849609375,-0.08824468516409396,-0.020176234327256678,-0.07706909242416732
1772019791540462300,4.35846240234375,0.05612929897904396,-0.013561492362618445,-0.009846526960097253
1772019791560428000,4.378427978515625,0.05192132589519024,-0.10274345837682484,0.02717102511804551
1772019791580394200,4.398394287109375,-0.06205167476534843,-0.009648995094001293,0.059127202153392136
1772019791600360200,4.418360107421875,-0.1271522157073021,0.022187866410613058,0.034523853832576425
1772019791620326400,4.438326416015625,-0.02376373742520809,-0.0648266924366355,0.0032424433867912737
1772019791640291300,4.458291259765625,0.07972937027513981,-0.06310965938568115,0.07112571038245223
1772019791660257000,4.478257080078125,-0.09234043004512786,-0.061379182331264014,0.04443049521576613
1772019791680223200,4.49822314453125,-0.17364274872541427,-0.10556114614605903,0.001803715820563957
1772019791700189200,4.518189208984375,-0.018038345515727996,-0.10693594163060188,-0.018229749035136772
1772019791720155100,4.538155029296875,0.0956932476043701,-0.09319500104784965,0.032288605593796815
1772019791740121000,4.55812109375,0.04547229588627815,-0.046561844688653944,0.06467519166935234
1772019791760087300,4.57808740234375,0.02154898398518562,-0.044966099929809565,0.14637967054289766
1772019791780052200,4.59805224609375,-0.15311843161284922,-0.05208206941485405,0.13686053063995204
1772019791800018400,4.618018310546875,-0.2646212427675724,-0.0323968334749341,0.1132193601484876
1772019791819984100,4.637984130859375,-0.1688882476747036,-0.05588409204632044,0.07013601435851305
1772019791839950300,4.657950439453125,-0.18784195446968077,-0.07175853752642869,0.012714300948753952
1772019791859916300,4.677916259765625,-0.22619886539280412,-0.14073212050944567,-0.013347685215156524
1772019791879882000,4.697882080078125,-0.42703298790454863,-0.23278730387240648,-0.14966074717333538
1772019791899848200,4.71784814453125,-0.38090310489237306,-0.23778379698544738,-0.301926050821878
1772019791919813000,4.737813232421875,-0.04670797516107559,-0.23621932414770125,-0.30904402960091826
1772019791939779300,4.757779296875,0.22466741804182527,-0.14871025978177785,-0.18418551432136446
1772019791959745300,4.777745361328125,0.13628186310231685,0.016866671387851237,-0.065887033410836
1772019791979711200,4.797711181640625,0.1701642589598894,0.10430004016906022,-0.010195687457639723
1772019791999677200,4.81767724609375,0.12172960613667964,0.10830255380868911,-0.06221735018845647
1772019792019643400,4.837643310546875,0.24953940896987914,0.18933628468066452,0.0048067244282923634
1772019792039608800,4.85760888671875,0.4134609741479158,0.18491262301951647,0.019801738459058103
1772019792059573800,4.87757373046875,0.25876257986724377,0.042701077607274054,-0.016332381848059595
1772019792079539700,4.897539794921875,0.015034487524628638,0.08514818045347929,0.03322555765034631
1772019792099505700,4.917505615234375,0.07318798580765724,0.22160218525230882,0.12199576452588662
1772019792119471900,4.937471923828125,0.22230828769505023,0.10935235512256622,0.1728493881243281
1772019792139437600,4.9574375,0.19383271931707857,0.0562625699698925,0.2245933298923075
1772019792159403800,4.97740380859375,-0.14555939453542233,0.12459200983047485,0.20395075669493526
1772019792179369700,4.99736962890625,-0.17757365843355655,0.005041209037601947,0.1286259780542925
1772019792199335000,5.0173349609375,-0.13600772233605385,-0.09229308377206324,0.05860553463315591
1772019792219300900,5.03730078125,0.02185878058671951,-0.054418111146986484,0.05400375819243491
1772019792239266600,5.0572666015625,0.17055062792897224,-0.1505705006957054,0.006955207699071615
1772019792259232800,5.077232666015625,0.15540975742042062,-0.2682973009318113,-0.03179678522255271
1772019792279198700,5.09719873046875,-0.00011456629037857055,-0.18493688067793845,-0.01972354039000347
1772019792299164700,5.11716455078125,-0.06626783115565776,-0.15462737487107514,-0.006847600872442126
1772019792319130600,5.137130615234375,-0.010534253495931624,-0.14132277987897396,0.10378825472202151
1772019792339095800,5.157095703125,-0.0013028992921113966,-0.05103022227436304,0.2104149842729792
1772019792359061800,5.177061767578125,-0.013309563428163527,-0.04587853859961032,0.17456472240854054
1772019792379028000,5.197028076171875,-0.11316285332143305,-0.1292234690234065,0.025491328402794895
1772019792398993700,5.21699365234375,-0.17283669303953647,-0.18849252733290195,-0.0704374084578827
1772019792418960000,5.2369599609375,-0.15188918207883834,-0.13578764984458683,0.026735519777610895
1772019792438925800,5.25692578125,-0.042912674531340594,0.014238660971820354,0.13503964448887854
1772019792458890800,5.276890869140625,0.04366436968147754,-0.00004734627306461334,0.08834061981923878
1772019792478856700,5.296856689453125,0.030849896293878555,-0.11419511897861957,0.016533493910729884
1772019792498821600,5.316821533203125,-0.241581727963686,-0.14000994371473788,-0.031166798489633947
1772019792518787800,5.336787841796875,-0.4159697420984506,-0.14520020583420992,-0.16967702343221752
1772019792538753800,5.35675390625,-0.1043295585244894,-0.16442776113450527,-0.17985676440205425
1772019792558719700,5.3767197265625,0.3083317896783352,-0.1058735730960965,-0.04999401109442114
1772019792578685700,5.396685791015625,0.2429530163168907,-0.01718815842717886,-0.006990406876616179
1772019792598650600,5.416650634765625,-0.024848610052466392,0.03344166635274887,-0.10145601238217204
1772019792618616800,5.436616943359375,0.10198211861550807,-0.0648301995679736,-0.07250340107697993
1772019792638582800,5.456582763671875,0.26487492526769635,-0.09308744902014732,0.05885200194120407
1772019792658548700,5.476548828125,0.13740239156484604,-0.08704086233228445,0.0777465989600867
1772019792678514700,5.4965146484375,-0.0234060100287199,-0.182742585504055,0.029620573694631457
1772019792698481000,5.51648095703125,-0.13030161964893341,-0.1670966880828142,-0.0018897592693567274
1772019792718446800,5.53644677734375,-0.056420975401997565,-0.1495639540016651,0.055037448621727526
1772019792738411800,5.556411865234375,-0.06321721141338348,-0.1526268487036228,0.066390946078673
1772019792758377700,5.576377685546875,-0.021554829204082488,-0.17496785984933375,-0.047472347129695114
1772019792778343700,5.59634375,0.15392799443006513,-0.210430510635674,-0.004832900049164891
1772019792798310000,5.616309814453125,0.09553893382549285,-0.08629647370576858,0.0874462647954002
1772019792818275600,5.636275634765625,0.03140168495774269,0.03148176445662975,0.1377897469146177
1772019792838241800,5.65624169921875,-0.024454057776927947,0.02790039883852005,0.14093655704036354
1772019792858206700,5.676206787109375,-0.03796528125703334,0.1390925366088748,0.15137060156483204
1772019792878172700,5.696172607421875,0.11644786634147167,0.21729659701287746,0.14079144948124886
1772019792898140700,5.716140625,0.1605348453491926,0.17988602702915668,0.12848054170161485
1772019792918107000,5.73610693359375,0.17835867133140562,0.16609335625916719,0.06714556383825838
1772019792938071800,5.75607177734375,0.21779928583800792,0.09619330608099698,0.1282986823286861
1772019792958037800,5.776037841796875,0.04968085349202156,0.09090016810894012,0.0931939781345427
1772019792978003700,5.796003662109375,-0.00817512314915657,0.0445160180747509,0.11144465122669935
1772019792997970000,5.815969970703125,0.07850128978490829,0.020581600257754323,0.12701993109714238
1772019793017936000,5.835935791015625,0.193492527577281,-0.007312368839979171,0.15636037267614156
1772019793037901600,5.855901611328125,0.1734282291918993,-0.04547083458155393,0.1753671248326078
1772019793057866800,5.87586669921875,0.0916723215252161,-0.11116963367760181,0.07634363682698458
1772019793077832700,5.895832763671875,-0.11286240907013416,-0.24932488943636416,0.013539901585318148
1772019793097799000,5.915798828125,-0.37428456353545186,-0.15214461814463137,-0.042104792214557527
1772019793117764600,5.9357646484375,-0.44476972012519833,-0.17738748821169137,-0.06212115980498492
1772019793137730600,5.95573046875,-0.45115094559490676,-0.22737989187091587,-0.1986678113233298
1772019793157696800,5.97569677734375,-0.30046354052126406,-0.21049977647960186,-0.30943145801592614
1772019793177661700,5.99566162109375,0.020879121899604797,-0.1673120843991637,-0.2043885635903105
1772019793197628000,6.0156279296875,0.3124865712702274,-0.17085837870389223,-0.18626739862933753
1772019793217593600,6.035593505859375,0.45344402496814723,-0.2126300665065646,-0.1484608881305903
1772019793237559800,6.055559814453125,0.4438058435291052,-0.23500205731242893,-0.09000822423789649
1772019793257525800,6.07552587890625,0.4207078765362501,-0.09293050489276647,0.010341945794224738
1772019793277491700,6.09549169921875,0.3564630756407976,-0.007896598468720912,0.22260427496694027
1772019793297456600,6.11545654296875,0.16358020439445972,0.051556291975080965,0.3201973648432642
1772019793317422600,6.135422607421875,-0.11712766529917716,0.13065583991408347,0.315636413603276
1772019793337388800,6.155388916015625,-0.33721067816019057,0.2669216286644339,0.349717546903342
1772019793357354800,6.175354736328125,-0.5027963771581649,0.19617080687582492,0.3430172090144828
1772019793377320700,6.19532080078125,-0.47035424323678016,0.1306856505304575,0.2603285505423322
1772019793397285600,6.21528564453125,-0.2914548891574144,-0.00710895522236824,0.13405819570347666
1772019793417251800,6.235251953125,-0.08700082258284092,-0.15519874501824377,-0.1537769685868174
1772019793437217800,6.2552177734375,0.2676332840651274,-0.23612463160157202,-0.12457250141240656
1772019793457183500,6.27518359375,0.4468985488474369,-0.11442863547354935,0.08804572852589189
1772019793477149700,6.295149658203125,0.28121932634711266,0.0010477554872632027,0.2347420181367546
1772019793497115600,6.31511572265625,-0.03457973047196865,0.049425125165283676,0.17984595074709503
1772019793517080800,6.335080810546875,-0.1989519620269537,0.06864391263723373,0.08342851705402135
1772019793537046800,6.355046875,-0.20295301436185836,0.05987053133398294,0.08968575081788002
1772019793557012700,6.3750126953125,-0.14623334827423096,0.01713438241332769,0.05156045669354498
1772019793576978700,6.394978759765625,0.010500351226329804,0.035926761166751385,-0.014722572031244635
1772019793596945000,6.41494482421875,0.18219196588397024,-0.03622837446182966,-0.00342222953364253
1772019793616909800,6.434909912109375,0.18776012140512466,-0.026120821945369244,0.0386299191782251
1772019793636875500,6.45487548828125,-0.050833530658483506,0.02905278374403715,-0.009343399743549525
1772019793656841700,6.474841796875,0.025188217270374298,0.016233634181320667,-0.026071283715218305
1772019793676807700,6.4948076171875,0.4078144926935434,-0.065717211535573,0.04095474539659917
1772019793696774000,6.51477392578125,0.37171968148350715,-0.09808394213318825,0.037526195720024406
1772019793716739600,6.534739501953125,0.09733049341738223,-0.09299860169291496,-0.0019265110831707714
1772019793736704800,6.554704833984375,-0.11775602633059024,-0.045884676079452034,-0.00855506237745285
1772019793756670700,6.574670654296875,-0.2738356458365917,-0.08919161062538623,-0.02896433827560395
1772019793776636700,6.59463671875,-0.4273246643275022,-0.07502338454127311,-0.04400587659552693
1772019793796602600,6.6146025390625,-0.2526280226349831,-0.04910889882296324,-0.021728286074846982
1772019793816568600,6.634568603515625,0.08642623756527901,-0.15738193427622318,-0.056546757206134494
1772019793836533800,6.65453369140625,0.09138064510226249,-0.31232202835828066,-0.13619268698152154
1772019793856499700,6.674499755859375,0.0595388151615858,-0.23356004181057213,-0.1677980047525838
1772019793876466000,6.6944658203125,0.12173720492124557,-0.14976561405360697,-0.013670834488607942
1772019793896431600,6.714431640625,0.11485036801695823,-0.10829086337089538,0.06110222855340689
1772019793916397800,6.734397705078125,0.06275719268620014,-0.08096183467954397,0.09986370168942958
1772019793936362800,6.75436279296875,-0.036789807736873625,-0.02810293567329645,0.09667623075973242
1772019793956328700,6.77432861328125,-0.07348843005895614,0.04317863199114799,0.04833897389639169
1772019793976294700,6.794294677734375,0.010575754550099372,0.05329232198745012,0.017474720283597707
1772019793996260600,6.814260498046875,0.0039040217012166973,0.0429018608763814,0.03608027122803032
1772019794016226800,6.834226806640625,-0.05853460655510425,0.0627738515600562,0.0318912220403552
1772019794036192800,6.85419287109375,0.08954349280297756,0.025548575015366077,0.0833350666169077
1772019794056158000,6.874157958984375,0.06283259600996971,0.003772504276037216,0.08446671926164999
1772019794076124000,6.8941240234375,0.09593290157914161,-0.11578823338896035,0.007702957326453179
1772019794096090000,6.914090087890625,0.1496826119452715,-0.12678601274341345,0.06514019709890707
1772019794116056000,6.93405615234375,0.04513327319025993,-0.1002095559850335,0.11308845464466138
1772019794136021800,6.954021728515625,-0.09594751462638378,-0.11052987446933984,0.14784679308654738
1772019794155987000,6.973987060546875,-0.15522563302516937,-0.07260258713513612,0.13918774061165748
1772019794175953000,6.993952880859375,-0.053608256068825716,0.030057869133353232,0.19594640526911242
1772019794195919000,7.013919189453125,0.1709229683727026,0.13765695084780455,0.22487989174872636
1772019794215884800,7.033884765625,0.21450433594584464,0.13239450027495622,0.1983162214066833
1772019794235851000,7.05385107421875,0.1685521475881338,0.1625552452608943,0.15678935694424434
1772019794255816000,7.07381591796875,0.3051841393023729,0.08631371710151434,0.22320446934979407
1772019794275782000,7.093781982421875,0.010148469048738479,0.010332885704934597,0.22832884489251298
1772019794295748000,7.113748046875,-0.48127311213612556,0.06886749226003885,0.1277695986869745
1772019794315713800,7.1337138671875,-0.5740484264671802,0.01690145044028759,0.09474948221454396
1772019794335680000,7.153679931640625,-0.31198505148887634,-0.03254150264263153,0.08779440237963572
1772019794355645000,7.17364501953125,-0.027669512692093848,-0.05972147825211286,0.018334223189763722
1772019794375611100,7.193611083984375,0.1462234114021063,-0.14769611430317162,-0.12929317325875161
1772019794395576800,7.213576904296875,0.35907413492202755,-0.22781243806928395,-0.19898385500255972
1772019794415542800,7.233542724609375,0.46415071242153644,-0.25555326243191956,-0.10159702828805893
1772019794435509000,7.253509033203125,0.20757365989983081,-0.1281812664940953,0.02804634664785117
1772019794455474000,7.273473876953125,-0.09893675957024096,-0.12436433855444193,-0.024090485161542892
1772019794475440000,7.293440185546875,-0.2231897467046976,-0.17012626503705977,-0.10954479068843648
1772019794495405800,7.31340576171875,-0.2476461425691843,-0.14321516949683427,-0.16676115425182506
1772019794515372000,7.3333720703125,-0.22038462615609167,-0.10640490349382162,-0.17352436477644367
1772019794535338000,7.353337890625,0.008449263915419577,-0.022228198421001433,-0.1746585199055262
1772019794555303000,7.373302978515625,0.041052725878357885,0.0031806758627295493,-0.1743809998720884
1772019794575268900,7.393268798828125,0.09641454761624335,0.019755378566682337,-0.07678290502708404
1772019794595234800,7.41323486328125,0.16831074004769325,0.0704144294410944,-0.011692428821418435
1772019794615201000,7.433200927734375,0.11083937880992889,0.04908054951131344,0.013066091794800012
1772019794635167000,7.4531669921875,0.08392857553064823,-0.11404226650446653,0.0038632330331020053
1772019794655132200,7.473132080078125,0.23240122716426848,-0.12625935852080583,0.1103007418885827
1772019794675097900,7.493097900390625,0.26988486238420006,-0.13565613241940735,0.11465042499806731
1772019794695064000,7.51306396484375,0.1181938332259655,-0.12146627902537584,0.1544930992332287
1772019794715030000,7.533030029296875,-0.015034487524628638,-0.0672793462857604,0.20951403511157257
1772019794734996000,7.552995849609375,-0.17237725883424282,-0.07849106065183878,0.2339632340502925
1772019794754961000,7.5729609375,-0.4181868336260319,-0.0460714308232069,0.14833740788139402
1772019794774926800,7.5929267578125,-0.3283165930867195,-0.006043956339359283,0.1591433179255575
1772019794794893000,7.61289306640625,-0.2889250784188509,-0.051237435284256935,0.07640285620093346
1772019794814859000,7.63285888671875,-0.2794622535467148,-0.20071224969774484,-0.1597445900206454
1772019794834824000,7.652823974609375,-0.10206745881140232,-0.32800913457274433,-0.232299520355463
1772019794854790000,7.672789794921875,0.09058218820095061,-0.3111611678853631,-0.13588875386519356
1772019794874755800,7.692755859375,0.014191022437810896,-0.21465718841999767,-0.08197333154333755
1772019794894722000,7.71272216796875,0.02691606397628784,-0.07951017456650733,0.00791879203421995
1772019794914687700,7.732687744140625,0.17251637504398823,0.0811477126404643,0.09924544192692264
1772019794934653000,7.75265283203125,0.24449615410566328,0.1279097560763359,0.15146834458457306
1772019794954619000,7.772618896484375,0.07498714418411255,0.21898206588178873,0.18697417692551388
1772019794974585000,7.792585205078125,-0.14866788194477557,0.23153613476753235,0.14997352118324486
1772019794994551000,7.812551025390625,-0.22574176927506923,0.17641747413575648,0.05590575588885694
1772019795014517000,7.83251708984375,-0.16937398536503315,0.08775310225486754,0.017085958428028968
1772019795034482200,7.852482177734375,-0.0249310276389122,0.11957651975601911,0.012254519683588296
1772019795054448400,7.872448486328125,0.22728373802006244,0.09439210187792778,0.051022586957179004
1772019795074414300,7.892414306640625,0.3922977746099233,-0.013755845890939235,-0.0239332487732172
1772019795094380000,7.912380126953125,0.3067752078860998,-0.1625783338755369,-0.05952913401778787
1772019795114345200,7.93234521484375,0.20041794292628765,-0.1118318969786167,0.0010994856745004653
1772019795134311200,7.952311279296875,0.07959142310917378,-0.0605149667173624,0.06419509826852009
1772019795154277400,7.97227734375,-0.02910802106261253,-0.056959320062398906,0.006783613991830498
1772019795174243300,7.992243408203125,-0.06124912621080875,-0.020352759937942028,-0.02721418840633705
1772019795194209300,8.012209228515625,-0.0007803367227315903,-0.07104279047250747,0.012873455299530177
1772019795214174200,8.03217431640625,-0.11597791074216365,-0.032709552685916424,-0.001889695337275043
1772019795234140200,8.05214013671875,-0.13460720788836478,0.000533083963394165,-0.04906263026213273
1772019795254106400,8.0721064453125,-0.13389116857349873,-0.028009119910001753,-0.08290046545877121
1772019795274072000,8.092072021484375,-0.09618366146981716,-0.0599769143179059,-0.14621649760412983
1772019795294037200,8.112037353515625,0.005007014507055282,-0.043913668267428874,-0.19128829553127288
1772019795314003200,8.132003173828124,0.25182956573367116,-0.09636720134317875,-0.1730911244583316
1772019795333969400,8.151969482421874,0.3758709559440613,-0.17654606895148753,-0.12250887428033165
1772019795353935400,8.171935302734376,0.186655375033617,-0.16363982562720775,-0.09885172990160063
1772019795373901300,8.1919013671875,-0.1087345154851675,-0.08814443966001272,-0.03557438579881564
1772019795393866200,8.2118662109375,-0.09472586387693882,-0.07020195573419333,0.03718585784975439
1772019795413832200,8.231832275390625,0.019166472762823104,-0.06873392900824546,0.07747334410981274
1772019795433798400,8.25179833984375,-0.02103285115659237,-0.04844458969533443,0.04003022356336005
1772019795453764000,8.27176416015625,-0.13988076437711716,-0.08097907807528971,0.0001501673267222941
1772019795473729000,8.29172900390625,-0.18383038074076175,-0.10798632746636867,-0.049684397155977784
1772019795493695200,8.3116953125,-0.047531566503643985,-0.0921057445064187,-0.05346087435423396
1772019795513661200,8.3316611328125,0.05633914233744144,-0.08194850762933492,-0.010494990064622834
1772019795533627400,8.35162744140625,-0.03480652496516704,-0.08573270234316586,-0.045648127377219495
1772019795553593000,8.371593017578125,-0.027450316983461377,-0.015454466502368449,-0.001446655144356191
1772019795573558300,8.391558349609374,0.04860241060554981,0.008941723607480525,0.009162645482318476
1772019795593524200,8.411524169921876,-0.007823825493454933,0.014922259321808814,0.022286586677888406
1772019795613490400,8.431490478515625,-0.11648176861107348,0.035572833162546155,-0.0169498013603501
1772019795633456000,8.4514560546875,0.03300678206682205,0.032331659284234045,0.08873833216624334
1772019795653421000,8.471421142578125,0.1515641879081726,0.07313742466419935,0.12744540823390707
1772019795673387300,8.49138720703125,0.14896072741150856,0.08309884670823812,0.13915244096941315
1772019795693353200,8.511353271484374,0.1876443860709667,0.08625175778120756,0.14559598195245488
1772019795713319400,8.5313193359375,-0.036815526700019835,-0.024963468603789805,0.12079902902198955
1772019795733285000,8.55128515625,-0.020277064353227615,-0.059491176627576345,0.016635748708806932
1772019795753250300,8.571250244140625,0.08718436245620251,-0.07100187394022942,0.15148204431636259
1772019795773216300,8.59121630859375,-0.17327216184735297,-0.0932215967938304,0.16990295940889044
1772019795793182200,8.61118212890625,-0.28769056818783284,0.017693769861757754,0.1819907990223728
1772019795813148200,8.631148193359374,-0.1751572449415922,0.0229746328741312,0.14855313299130649
1772019795833113000,8.651113037109376,-0.029913492226600644,-0.09105243606120347,0.06830348343541845
1772019795853079300,8.671079345703125,0.06513093608021736,-0.14204524893462658,0.0011192315545864402
1772019795873045200,8.691045166015625,0.14134031553566456,-0.10662059207111596,-0.026659148339461532
1772019795893011500,8.711011474609375,0.08302256660163403,-0.17787585625052452,-0.088721929020714
1772019795912976400,8.730976318359374,-0.056793315845727915,-0.20999942574203012,-0.2258836436974816
1772019795932942000,8.750942138671874,0.004341828596591949,-0.18438713784068822,-0.1484608881305903
1772019795952908300,8.770908203125,0.16226678370833397,-0.07718465422838926,0.002510284054186195
1772019795972874200,8.790874267578126,0.12367606402933597,0.019244214174151418,0.12081937769027426
1772019795992839400,8.81083935546875,0.15580723230540752,-0.00878331817537546,0.12045629826523363
1772019796012805000,8.83080517578125,-0.022135843962430953,-0.06643851154744625,0.12707222753996028
1772019796032771300,8.850771240234375,-0.1709358278542757,-0.029775837321579453,0.08841627887133509
1772019796052737300,8.8707373046875,-0.055064300096035,-0.027203356485068796,0.04219913770081475
1772019796072702500,8.890702392578126,0.0856505770176649,-0.07935702983140945,0.07796000424874946
1772019796092668400,8.91066845703125,0.04894552495479584,-0.05709785175025463,0.08547825265806168
1772019796112634400,8.93063427734375,0.020188217025995252,-0.0390086528301239,0.03828212865386158
1772019796132600300,8.950600341796875,-0.0576437951952219,-0.08217471760064363,-0.009237254221644252
1772019796152565200,8.970565185546874,-0.07272621351480484,-0.05263093546926975,-0.004618544912431389
1772019796172531500,8.990531494140624,-0.09034019613862038,-0.09288374314159155,-0.09548068256592378
1772019796192497200,9.0104970703125,0.0180599728256464,-0.1468736920043826,-0.11835810214327648
1772019796212463400,9.03046337890625,0.06795768393874169,-0.1553229559198022,-0.08184259956944734
1772019796232429300,9.05042919921875,0.01276478902697563,-0.13943828130662442,-0.0397954740925692
1772019796252394500,9.07039453125,0.049395022287964815,-0.07875672585070133,-0.012206095698289572
1772019796272360400,9.0903603515625,0.2647995219439268,-0.011513035400211811,0.08442346464181319
1772019796292326400,9.110326416015624,0.23398878861665726,-0.03701192605495453,0.13876074737124144
1772019796312292400,9.130292236328126,-0.05853928273022174,-0.04619213459342718,0.06052716861180961
1772019796332257300,9.15025732421875,-0.20322306347489355,0.02340864037722349,0.06893308657584711
1772019796352223500,9.170223388671875,-0.09319850817918778,0.03141162182986736,0.1228115561544895
1772019796372189200,9.190189208984375,-0.015465864679217338,0.041027591437101364,0.11077208572737872
1772019796392155400,9.2101552734375,0.08528758892416953,0.016490823812782763,0.1639920000657439
1772019796412120300,9.230120361328124,0.0713116705417633,0.025759879678487776,0.1454441889242269
1772019796432086300,9.250086181640626,-0.07617898431718349,-0.04668459428548813,0.031159939490584654
1772019796452052500,9.270052490234375,-0.20890636980831623,-0.10058043512403965,-0.00692209088075906
1772019796472018200,9.29001806640625,-0.2919605005919933,-0.027554654140770435,-0.0033771939486730842
1772019796491983400,9.3099833984375,-0.0035696751803159714,-0.030733868698775767,0.05661509146830067
1772019796511947500,9.329947509765624,0.2362836215555668,-0.09235796570181846,0.008892486771428957
1772019796531913200,9.349913330078126,0.09439443996548652,-0.12723317198902367,-0.059081408516596996
1772019796551879400,9.36987939453125,0.051552492582798,-0.07916589117348194,-0.07070651685600168
1772019796571845400,9.389845458984375,0.07786825257837772,-0.08551876733154058,-0.06957172240610233
1772019796591810300,9.409810302734375,0.0727449182152748,-0.15439005898386238,-0.02511934415209107
1772019796611776300,9.4297763671875,-0.009849193841218948,-0.06805588361620903,0.025857220839429644
1772019796631742200,9.4497421875,-0.02220131041407585,0.016921908706426618,-0.028424294848460704
1772019796651707400,9.469707275390626,-0.04796761983335018,-0.05027151286154985,-0.02742669864585623
1772019796671673300,9.48967333984375,-0.12440788543522358,-0.05959989769905805,0.026645001083100212
1772019796691639300,9.509639404296875,-0.026548984229564664,0.015734452487528323,-0.013651344336848704
1772019796711605200,9.529605224609375,0.04029343194365501,-0.10112550178617238,-0.0536705624490045
1772019796731570200,9.549570068359374,0.07850187430679798,-0.10954290925860405,-0.047747255080938335
1772019796751536400,9.569536376953126,0.2564075411736965,-0.015265665931999682,0.02578747093831189
1772019796771502300,9.58950244140625,0.11711071416437625,-0.03290682882368565,0.07902626350708306
1772019796791468300,9.60946826171875,-0.062245736032724375,-0.0012856558963656424,0.08000448828893714
1772019796811433200,9.62943310546875,-0.0016758242577314376,0.04504559490680694,0.12641450341674498
1772019796831399400,9.6493994140625,-0.01688625287115574,0.02526157476752996,0.08773605065536685
1772019796851365400,9.669365478515624,-0.0031628479450941083,-0.04049801460504532,0.13598591236304491
1772019796871331300,9.689331298828124,0.037028877189755435,-0.03517097436338663,0.12981810131515376
1772019796891298300,9.70929833984375,-0.16086510021686554,-0.03790566002428532,0.030512280103657394
1772019796911264500,9.729264404296876,-0.13406769418418407,-0.042946284539997576,0.03919045740412548
1772019796931230200,9.749230224609375,0.053498950475454325,-0.06427373472899198,0.047403574476111675
1772019796951195100,9.769195068359375,0.03501519927978516,-0.09525427166521548,0.014787764488253741
1772019796971161300,9.789161376953125,-0.05811550436019897,-0.11705284649729727,-0.040627184809511524
1772019796991127300,9.809127197265624,-0.025553543451428413,-0.11681553061008453,0.008306914568971842
1772019797011092500,9.829092529296876,0.049236032333970066,-0.05942220304459333,0.0797198352618143
1772019797031057700,9.8490576171875,0.008932078996300696,-0.04955605806857347,0.08968298347205854
1772019797051023600,9.869023681640625,-0.12163140645921229,-0.06933247942328452,0.08316749149765819
1772019797070989600,9.888989501953125,-0.13323708857893943,-0.07654109562784434,0.02572063451348804
1772019797090954500,9.90895458984375,-0.09259294350147247,-0.09544102640897036,-0.02675829786499962
1772019797110920700,9.928920654296874,-0.12813012082874775,-0.10919365742951631,-0.1960214980656281
1772019797130886700,9.94888671875,0.013233575582504271,-0.12448387328088283,-0.1937265007299371
1772019797150852600,9.9688525390625,0.1905985597014427,0.04131692977249622,-0.03646032005418092
1772019797170817500,9.988817626953125,0.17444938893318176,0.14004267694056033,0.06962274020728655
1772019797190783700,10.00878369140625,0.07918284230828285,0.17197540003508327,0.13421691166283561
1772019797210749700,10.028749755859375,0.09879939692616461,0.18045067517459393,0.14204443608387374
1772019797230715400,10.04871533203125,0.09257073166966438,0.1101873446419835,0.15819067510953172
1772019797250680600,10.0686806640625,-0.06459434498548507,-0.015060791009664535,0.1340574467848055
1772019797270646500,10.088646484375,-0.12903729880154133,-0.09118249218165873,0.10506780053800903
1772019797290612700,10.10861279296875,-0.0722656102657318,-0.1413102126583457,0.03389428722476587
1772019797310577700,10.12857763671875,-0.05596095667481422,-0.23086305781155822,-0.042123158988310025
1772019797330543600,10.148543701171874,-0.0953752676963806,-0.17538140908628702,-0.036721089882217346
1772019797350509600,10.168509521484374,0.05853285298943519,-0.1990662360563874,0.008913977084029466
1772019797370475500,10.1884755859375,0.1908072340160608,-0.1379834063231945,0.09780817566541954
1772019797390440700,10.208440673828125,0.2442296121239662,-0.1446472481265664,0.09866429017125629
1772019797410406700,10.22840673828125,0.2700228095501661,-0.15123919373750686,0.024017730452585963
1772019797430372600,10.24837255859375,-0.09926935252547263,-0.20810995873361826,-0.04095951290326193
1772019797450337500,10.268337646484374,-0.24815759922266006,-0.19622019897550344,-0.10419053364628925
1772019797470303500,10.288303466796876,-0.2836275565326214,-0.06495674855709076,0.01682810207628645
1772019797490269700,10.308269775390626,-0.14868775568902493,-0.029291853196918963,0.02593612216138281
1772019797510235600,10.328235595703125,0.21225626475811005,0.04257131374776363,0.13920740429335274
1772019797530200800,10.348200927734375,-0.1868728171765804,0.13329261815845966,0.013971844995487481
1772019797550166500,10.36816650390625,-0.08475625852644443,0.0283098564222455,0.008233630137052387
1772019797570132700,10.3881328125,0.082679452252388,0.0032090251743793485,0.17044537745621055
1772019797590097700,10.40809765625,0.22536299909055232,0.05567074155658483,0.10307261726595461
1772019797610063600,10.428063720703125,0.3468161263734102,0.046076983781158924,0.0939995862958487
1772019797630029600,10.448029541015625,0.15452128414809702,0.012318798825144767,-0.04791624583913944
1772019797649995500,10.46799560546875,0.04672667986154556,-0.09578735562860966,0.008330363943218254
1772019797669960700,10.487960693359375,-0.2893476877450943,0.14143763843029736,0.03468414982766844
1772019797689926700,10.5079267578125,-0.0704231972694397,0.0953258755967021,0.05681216667667031
1772019797709892600,10.527892578125,0.035812487137317654,-0.061652446314692494,0.12549916040380485
1772019797729858600,10.547858642578126,0.005139116454124451,-0.02904021652340889,0.02545504694643896
1772019797749823500,10.567823486328125,-0.1142196688979864,-0.08889964194148778,-0.015654909561469685
1772019797769789700,10.587789794921875,0.10487550196945666,-0.12258680748790501,-0.04745911318878643
1772019797789755600,10.607755615234375,0.29945640930533407,-0.14171557858884334,0.02180942273637047
1772019797809720600,10.627720458984374,0.16607552834153175,-0.17839198907911777,0.01825777640308952
1772019797829686500,10.6476865234375,0.1316740770459175,-0.1824102848097682,0.02704506521739531
1772019797849652500,10.667652587890625,0.37493513639867304,-0.16417261732965707,0.12707430076603776
1772019797869617700,10.68761767578125,0.7080635136812925,-0.1372489545688033,0.19782445583436636
1772019797889583600,10.70758349609375,0.5290069232136011,-0.043758477705717086,0.17071391046559437
1772019797909549800,10.7275498046875,-0.04653671024739742,0.118174251742661,-0.050000970558170224
1772019797929515500,10.747515625,-0.18808277748823166,0.21308073288351295,0.07675746005857363
1772019797949480400,10.76748046875,-0.15267302593290805,0.19246932200938463,0.08005138703742995
1772019797969446700,10.78744677734375,-0.16582944462597368,-0.037231121763587,-0.073048924396839
1772019797989412600,10.80741259765625,-0.12506722612679003,-0.19179127661734818,-0.11695223566703497
1772019798009377800,10.827377685546875,-0.21220891848504542,-0.22985037363767621,-0.0495339558346197
1772019798029343500,10.847343505859374,-0.3999450744926929,-0.11861351994276045,-0.15917961308164522
1772019798049309700,10.867309814453124,-0.21950608975589275,-0.1101239240169525,-0.054702042654901736
1772019798069275600,10.887275634765626,0.21824235343039033,-0.2935273115172982,-0.10277195381894708
1772019798089240800,10.90724072265625,-0.15015022945702075,-0.4457341812431812,-0.2981835032926872
1772019798109206800,10.927206787109375,0.07746785508394241,-0.5349100097775459,-0.24082290895301847
1772019798129172700,10.9471728515625,-0.4333692051887512,-0.05548720168322324,-0.05194242348214611
1772019798149137700,10.9671376953125,-0.18450374995768068,0.06523615002036094,0.013719112343434243
1772019798169103600,10.987103515625,-0.16602642850279806,-0.03577069382220507,0.08609795545898377
