time,seconds_elapsed,z,y,x
1772018019013469400,0.072469482421875,0.3418020976036787,-0.05173252532482147,-0.07174430807167664
1772018019033436400,0.0924365234375,0.16652736376225946,-0.04959492877423763,-0.08602123696096241
1772018019053403600,0.112403564453125,-0.03647650400400162,-0.0025645897909998892,-0.10428164599584415
1772018019073371400,0.132371337890625,-0.23995032736957073,0.037738779024779796,-0.058963846551533784
1772018019093338400,0.15233837890625,-0.2094949833512306,0.0581838934212923,-0.11929879879318177
1772018019113306600,0.172306640625,0.14995850627720356,-0.03793547064065933,-0.04828046690849587
1772018019133273600,0.192273681640625,0.11964695464372634,-0.09209639215618372,-0.046432902813050896
1772018019153241600,0.21224169921875,-0.04116846121251583,-0.05862579196989536,-0.04406389039307832
1772018019173208600,0.23220849609375,-0.05032967278957367,-0.08515811732560395,-0.05054843010678887
1772018019193176600,0.252176513671875,-0.0006382979035377502,-0.05615443342030048,-0.031067411502078174
1772018019213143600,0.2721435546875,-0.05111410116553306,-0.027414368887245653,-0.01705448557753116
1772018019233111600,0.292111572265625,-0.13063479712605475,0.008042728941142559,-0.029196557862590997
1772018019253078500,0.31207861328125,0.023896423894166945,-0.014799217464029788,-0.028402850201632825
1772018019273046500,0.332046630859375,0.023867782321572304,-0.013067279104888438,-0.006504723985213786
1772018019293013500,0.352013427734375,0.029539982739090916,-0.02694792041927576,-0.021727646754030137
1772018019312981500,0.3719814453125,-0.018580781829357147,-0.012581541414558887,0.006021817572787404
1772018019332948500,0.391948486328125,-0.0723182172358036,-0.034568916817009444,-0.036158852889575065
1772018019352916500,0.41191650390625,0.016813772156834602,-0.03757862002700567,-0.003778020701371133
1772018019372883500,0.431883544921875,-0.011401683980226516,-0.03689239132851362,-0.044796679913345724
1772018019392850700,0.4518505859375,0.0767448015064001,-0.0658136576473713,-0.030540976475179192
1772018019412818400,0.471818359375,-0.030247838747501372,-0.0922016060963273,-0.027041535253170875
1772018019432785400,0.491785400390625,-0.10713584811687468,-0.06282265913784503,-0.01969362017577514
1772018019452753700,0.511753662109375,-0.09733458507061005,-0.05330751955658197,-0.014255392910912632
1772018019472720600,0.531720703125,-0.07213175475299358,-0.08729191448390483,-0.022394348768144844
1772018019492688600,0.551688720703125,0.011187748968601226,-0.037787002080678936,-0.025555845006369052
1772018019512655600,0.571655517578125,0.05278758733570575,-0.028303718942403792,-0.007195482728350907
1772018019532624000,0.591623779296875,0.07979659029245376,-0.018062018652260304,-0.00029677272317931054
1772018019552590600,0.611590576171875,0.04446984084546566,0.0009597849428653717,-0.058424789505079386
1772018019572558600,0.63155859375,0.0742921476572752,0.007302139706909656,-0.006437887560389936
1772018019592525800,0.65152587890625,0.041893268355727195,-0.00016015899777412413,0.016562646939978002
1772018019612493800,0.671493896484375,0.009330722925066948,-0.047134383879601956,-0.030703911951929327
1772018019632460500,0.69146044921875,-0.008021393892168998,-0.05018412683904171,0.006206983147654682
1772018019652427800,0.711427734375,-0.10381634830534457,-0.09915244814753532,0.04773719034465029
1772018019672395800,0.731395751953125,-0.0742833798289299,-0.061195642457902426,0.042767804434243585
1772018019692362500,0.751362548828125,0.030366496691107747,-0.09956687416732311,0.0007086231933906674
1772018019712330500,0.77133056640625,-0.0062467854350805275,-0.09320669148564338,0.022593451536819336
1772018019732297700,0.791297607421875,-0.045458267360925675,-0.043704117169976235,-0.033199966551363466
1772018019752265700,0.811265625,-0.05418751726150512,-0.0014595511585474012,0.05885821248628199
1772018019772232700,0.831232666015625,0.04553367068469524,-0.025118074643611907,0.033040282477624715
1772018019792200400,0.851200439453125,0.12160218036472796,-0.024559563978016376,0.015434410095028578
1772018019812167700,0.871167724609375,0.012798106774687767,-0.04644055639654398,-0.0031979375247843563
1772018019832135700,0.8911357421875,-0.048640404528379436,-0.010952771168947219,0.020697719184402375
1772018019852102700,0.9111025390625,-0.03966916256546974,-0.02480857030302286,0.012162384420726447
1772018019872070700,0.931070556640625,0.08167933529913425,-0.029249475359916684,0.022746870266553015
1772018019892037600,0.95103759765625,0.0679915862083435,-0.06108166068941354,0.00981538290316239
1772018019912004600,0.971004638671875,-0.061654199880361554,-0.04319821347445249,0.0517374937608838
1772018019931972900,0.990972900390625,-0.14151450305879115,-0.02684241421818733,0.001870287383906543
1772018019951939600,1.010939697265625,-0.050393385675549504,-0.033060558080673215,0.022749372750893233
1772018019971907600,1.030907470703125,0.037276129949092865,-0.07095745027661324,-0.034296054692380125
1772018019991874800,1.050874755859375,0.07598433852791786,-0.016683716036379335,0.059238352643977844
1772018020011842800,1.0708427734375,-0.03007832739949226,-0.01217880583256483,-0.005569452429097146
1772018020031809500,1.0908095703125,-0.0406599271684885,0.010371756410598754,0.022321374863479286
1772018020051777500,1.110777587890625,0.008436404433846472,-0.0009878419935703277,0.0006028795302845537
1772018020071744800,1.130744873046875,0.043406011006236075,-0.006643091276288032,0.04735423717536032
1772018020091711700,1.150711669921875,0.011710311537981032,-0.01598258202970028,0.037043873829487706
1772018020111679500,1.170679443359375,-0.06773556562066078,-0.010026303973793983,0.029973259589821097
1772018020131646700,1.190646728515625,-0.06811608937084675,-0.04331073393821716,-0.023263386687636375
1772018020151614700,1.21061474609375,0.013718728750944136,-0.029436522364616392,0.04494936799071729
1772018020171581700,1.230581787109375,-0.02517711135447025,-0.04807926351428032,0.035014797420985996
1772018020191549400,1.250549560546875,-0.07038461882472039,-0.027360592873394488,-0.001753510870132595
1772018020211516700,1.2705166015625,-0.0266390006005764,-0.02960691049546003,-0.06899890008736402
1772018020231484700,1.290484619140625,-0.03997369846999645,-0.004983633631467819,0.011185739674605429
1772018020251451600,1.31045166015625,-0.007894552642107009,0.038404841718077655,-0.014308127745147795
1772018020271418600,1.330418701171875,-0.0032411738783121105,0.021124621093273163,-0.012058175127580761
1772018020291386600,1.35038671875,0.044434769532084466,-0.01698240672200918,-0.04413109214408323
1772018020311353600,1.370353515625,0.03986088574528694,0.006305822145938873,-0.030956388875655827
1772018020331321600,1.390321533203125,-0.051641339910030365,-0.017786708842217922,-0.05931726309908553
1772018020351288600,1.41028857421875,-0.014148936861753463,-0.03425415177941322,-0.06675864687990397
1772018020371256600,1.430256591796875,0.012342179700732231,-0.01720247921347618,-0.021922237744368613
1772018020391223600,1.4502236328125,0.0052712184011936185,-0.026123744554817675,-0.0513199076696299
1772018020411191800,1.47019189453125,0.06799450881779194,-0.011461012952029705,-0.036152825007587666
1772018020431158500,1.490158447265625,-0.028318331989645958,-0.056578796312212944,-0.028385606805887073
1772018020451126500,1.51012646484375,-0.16766484335958956,-0.04429769914895296,-0.0593585632238537
1772018020471093800,1.53009375,-0.16653963872194288,-0.05534457834213972,-0.04394344235118478
1772018020491060500,1.550060546875,0.035521395236253736,-0.05423398675173521,-0.007994615483097732
1772018020511028500,1.570028564453125,0.06232172387838363,-0.06615034225583076,-0.01912027726722881
1772018020530995700,1.58999560546875,-0.004254734835028648,-0.057816813674569124,-0.012365706706792115
1772018020550963700,1.609963623046875,-0.08023322814404964,-0.011690730054676532,-0.053657976962067186
1772018020570930400,1.629930419921875,-0.048936757126450535,-0.018145605282485485,-0.09351376640712841
1772018020590898400,1.6498984375,0.04245148676037788,-0.022132629092037677,-0.026816932717058806
1772018020610865700,1.66986572265625,0.09241407980322837,-0.026145079603791234,-0.055293633606191724
1772018020630833700,1.689833740234375,0.0873760856360197,-0.014079086495935917,-0.06215623111836612
1772018020650800400,1.70980029296875,-0.020500351715087888,-0.029359365475177764,-0.038409755355212835
1772018020670767600,1.729767578125,-0.12891571824848652,-0.026219606144726276,-0.002363459462020546
1772018020690735600,1.749735595703125,-0.026163784304261205,-0.045346039158105846,-0.018747023508045822
1772018020710702300,1.769702392578125,0.032821488627791405,-0.039569209322333335,-0.034570432920660824
1772018020730670300,1.78967041015625,0.01431026490330696,-0.020135610055923462,-0.06083912063781172
1772018020750637600,1.809637451171875,0.016208792001008988,-0.018794716840982436,-0.0416148350068368
1772018020770605600,1.82960546875,-0.055098202365636825,-0.030601474490761754,0.002232088167313486
1772018020790572500,1.849572509765625,-0.06866144829392433,-0.004309095370769501,-0.014305716592352836
1772018020810539500,1.86953955078125,0.025590368330478667,-0.02911825019568205,-0.04652902013128623
1772018020830507500,1.889507568359375,0.09021218584477901,-0.03966127151995897,-0.023884404662810263
1772018020850474500,1.909474609375,0.08770517145991324,-0.017879647822678087,-0.054800625924859195
1772018020870442800,1.92944287109375,0.021028759503364563,-0.02458031450510025,-0.019585721088200808
1772018020890409500,1.949409423828125,-0.06877776814997195,-0.027829963950812817,-0.0657134304095991
1772018020910377500,1.96937744140625,-0.08230302015542984,-0.060899289859831326,-0.015856179171055553
1772018020930344700,1.9893447265625,-0.031331542330980296,-0.05216068760901689,0.01724359667515382
1772018020950312700,2.009312744140625,-0.013132453295588492,-0.06186316645592451,0.020094602192100137
1772018020970279400,2.029279541015625,-0.0744265876919031,-0.046914311388134955,-0.01153597788438201
1772018020990246700,2.04924658203125,-0.025885551884770392,-0.04928337860703468,0.008183927510119975
1772018021010214700,2.069214599609375,0.051015901488065715,-0.02021364372819662,0.043540286644082514
1772018021030181600,2.089181640625,-0.07017243737876415,-0.03083820585608482,-0.014884776855632663
1772018021050149400,2.1091494140625,-0.04844517421722412,-0.004513970293104648,-0.023303499502316118
1772018021070116600,2.12911669921875,-0.002547346395254135,-0.009291852219402789,-0.0271173039031215
1772018021090084600,2.149084716796875,0.05651625247001647,-0.008099719825387,-0.0031147710196673868
1772018021110051600,2.169051513671875,0.02722410701215267,-0.024986264957487583,-0.0028642303247004746
1772018021130019300,2.189019287109375,-0.08322714926302432,-0.046617374268174167,-0.039098870130535215
1772018021149986600,2.208986572265625,-0.041620881155133245,-0.02527472651004791,0.028322898566909133
1772018021169953500,2.22895361328125,-0.02896656676530838,-0.07337327924668788,0.0562629535623826
1772018021189921500,2.248921630859375,-0.06868132203817368,-0.06586188070327043,0.0398987883365713
1772018021209888500,2.268888427734375,-0.10166706131696701,-0.03220569481700659,-0.04285489819580689
1772018021229856500,2.2888564453125,-0.00654079994559288,-0.006315759018063545,-0.033157497382815926
1772018021249823500,2.308823486328125,0.14249942244291305,-0.0016246785923838614,-0.009108458476513624
1772018021269791500,2.32879150390625,-0.018989362630248068,-0.007292787356674671,0.01717155435224995
1772018021289758500,2.348758544921875,-0.09861059635579586,-0.043515316599607466,-0.0038421354461461305
1772018021309725400,2.368725341796875,-0.07462474061250686,-0.036755320945382114,0.005098419117555022
1772018021329693400,2.388693359375,0.007917933517694473,-0.06362199282199144,-0.05157664064336568
1772018021349660700,2.40866064453125,0.08928396508395671,-0.05899930145740509,-0.01855266997972503
1772018021369628400,2.42862841796875,0.03140811469852924,-0.013368015617132186,-0.018635854751151055
1772018021389595400,2.448595458984375,0.0234931037902832,0.019680559764802454,-0.03749801080515608
1772018021409563600,2.468563720703125,0.10069266332685947,-0.007668342670798301,-0.026538188840914516
1772018021429530600,2.488530517578125,0.05590133544206619,0.025449206294119356,-0.029008835004456338
1772018021449497300,2.508497314453125,0.028820436292886734,0.006546937425434589,-0.03111727852579206
1772018021469465600,2.528465576171875,0.03504617893993854,0.0037938393250107763,-0.04937909406647086
1772018021489433300,2.548433349609375,0.0019534721553325653,-0.028232115010917186,-0.02903530288627371
1772018021509401300,2.5684013671875,-0.04258534227311611,-0.018665537503361702,0.00946198462191969
1772018021529368300,2.588368408203125,-0.16519523837566374,-0.05680149915218353,0.014795144077111034
1772018021549336300,2.60833642578125,-0.18895897580087184,-0.02574409758746624,0.0479262831759639
1772018021569303600,2.628303466796875,-0.0126963999658823,-0.051560091367363926,0.006951773632969707
1772018021589270300,2.648270263671875,0.1769055499136448,-0.09291296923607588,0.009856171571277082
1772018021609238300,2.66823828125,0.17674597543776036,-0.09961889661550521,0.014449746439233422
1772018021629205500,2.68820556640625,0.03205810303986072,-0.02242342873215675,-0.010442246097233146
1772018021649173500,2.708173583984375,-0.002052256354689598,-0.04109598049819469,-0.007887812374066562
1772018021669140200,2.72814013671875,-0.01365326229929924,-0.026001287218928335,0.010743037408404052
1772018021689108500,2.7481083984375,-0.08070493730902671,-0.04438479291051626,-0.02637693386459723
1772018021709075500,2.768075439453125,-0.032438042268157004,-0.03685527418851852,-0.05268091209083795
1772018021729042200,2.788042236328125,0.0103261637032032,-0.04085281939208507,-0.09968657329054549
1772018021749010400,2.808010498046875,0.042241058880090714,0.00810147339105606,-0.07137037845905869
1772018021768977400,2.827977294921875,0.008697101196646689,-0.010756079553067684,-0.06107170555097982
1772018021788945400,2.8479453125,0.042627427849173546,-0.006876607771217823,0.0005027801566757262
1772018021808912600,2.86791259765625,0.06082476331889629,-0.045858957116305825,-0.005479545655939728
1772018021828880400,2.88788037109375,0.059199792465567586,-0.028104104717075824,0.0020450776952318844
1772018021848847400,2.907847412109375,0.03479834165871143,-0.083158760201931,-0.006857519478257745
1772018021868814600,2.927814697265625,-0.10731178920567035,-0.0702443335711956,0.004684906413219869
1772018021888782600,2.947782470703125,-0.09168868813812732,-0.05510755471587181,-0.03794049387564882
1772018021908749300,2.967749267578125,0.006907295170426368,-0.09046879095435142,-0.021162742880266157
1772018021928717300,2.98771728515625,0.013398995277285575,-0.15320260276496409,-0.06493497511669993
1772018021948684500,3.0076845703125,-0.04847264674603939,-0.09999708227813243,0.005951090424135327
1772018021968651300,3.0276513671875,-0.06540683041214942,-0.10739333000928163,0.0027379735965281722
1772018021988619300,3.047619384765625,0.0018897592693567274,-0.07751052518188953,-0.006510916263982653
1772018022008586500,3.06758642578125,-0.02104278802871704,-0.07870148853212594,-0.05805016577271744
1772018022028554500,3.087554443359375,0.003437573233246803,-0.053097383937239645,-0.027782654210366308
1772018022048521500,3.107521484375,0.06586217296421527,-0.040377310834825035,-0.06362906188359484
1772018022068489200,3.1274892578125,0.06588789192736148,-0.029706571477651593,-0.059080184673890465
1772018022088456400,3.14745654296875,0.06155249307155609,-0.03803542388379574,-0.019468853242881595
1772018022108423400,3.16742333984375,0.011726678150892258,-0.02134206323623657,0.03826431900253519
1772018022128391400,3.187391357421875,-0.01108604215979576,-0.023256372424960134,-0.025398827813751995
1772018022148358400,3.2073583984375,0.05788812534511089,-0.04020078522413969,0.010914156191609799
1772018022168326400,3.227326416015625,0.09253273774683475,-0.09406097022742033,0.007309957687184214
1772018022188293400,3.24729345703125,-0.09759411278963089,-0.1073749175697565,0.05986380933225154
1772018022208260400,3.26726025390625,-0.09325754489004612,-0.03622895898371935,-0.0290362344680354
1772018022228228400,3.287228271484375,-0.08451134385466576,-0.03464665822833776,-0.02180354326814413
1772018022248195300,3.3071953125,0.03748012808859348,-0.043351942731440066,-0.06456959413671866
1772018022268163300,3.327163330078125,0.15768880826830864,-0.000846095435321331,-0.0160478840845637
1772018022288130600,3.347130615234375,0.029101006799936293,-0.025810440821945665,-0.019949476366676388
1772018022308098300,3.367098388671875,-0.06426525916159152,0.03048457011282444,-0.039229218511935324
1772018022328065300,3.387065185546875,0.02197393139898777,-0.009096329647302627,-0.038595742913987485
1772018022348032500,3.407032470703125,0.15625906772613524,-0.018632219755649566,0.00881975946193561
1772018022368000500,3.42700048828125,0.14158347664177418,-0.028307518334686754,-0.03203742557801306
1772018022387967200,3.44696728515625,0.03642798868715763,-0.029155951857566833,-0.026953893502335995
1772018022407935500,3.466935546875,-0.02925239796936512,-0.09997896209955215,-0.012028693304769694
1772018022427902500,3.48690234375,-0.08772855233550071,-0.06600625761002302,0.0001274440382607281
1772018022447869200,3.506869140625,-0.16105156269967555,-0.06938859352469444,-0.022620248212199656
1772018022467837400,3.52683740234375,-0.09264730403721332,-0.1008481461495161,-0.0291800268528983
1772018022487803400,3.546803466796875,-0.04856850833594799,-0.05691431187689304,-0.024829814020451157
1772018022507771400,3.566771484375,0.017184943556785584,-0.052577451716363424,-0.054674807588104155
1772018022527738600,3.586738525390625,0.014701894569396972,-0.013760229805111884,-0.019906623605638742
1772018022547706600,3.60670654296875,0.04998538939654827,-0.011128127735853194,-0.05154443714050576
1772018022567673300,3.62667333984375,0.02903495582640171,0.024319910003244877,-0.008565857766102998
1772018022587640600,3.646640625,0.05842939261496067,0.023636311653256414,-0.030095881322491913
1772018022607608600,3.666608642578125,0.05197802451848983,0.012010463528335093,0.00404870913522318
1772018022627575600,3.686575439453125,-0.03372515946924686,0.03505290094166994,-0.00028718291092664003
1772018022647543600,3.70654345703125,0.03429039213657379,-0.005513502724468708,-0.01564924015579745
1772018022667510500,3.726510498046875,0.09314005599021911,-0.04476677796542644,0.044062684816680846
1772018022687477500,3.7464775390625,-0.06780921537876129,-0.031576164741814135,-0.01676461751917377
1772018022707445500,3.766445556640625,-0.11030337223708629,-0.045507951721549034,-0.02275225882772356
1772018022727412500,3.78641259765625,-0.06354980436861514,-0.0599134936928749,-0.05890596061814576
1772018022747380500,3.80638037109375,-0.020261282262206075,-0.06967004081457853,-0.034500180696044117
1772018022767347500,3.826347412109375,-0.02504091775417328,-0.05958002395480871,-0.06278285685041919
1772018022787314400,3.846314453125,-0.053721653315424917,-0.04859568860381842,-0.043470454544574016
1772018022807282400,3.866282470703125,0.03120294751524925,-0.04468874429315328,-0.054473640726506706
1772018022827249400,3.88624951171875,0.05648877994120121,-0.03771978206336498,-0.08448619114710018
1772018022847217700,3.9062177734375,0.02125321590900421,-0.04105827883630991,-0.05730163069404661
1772018022867184600,3.9261845703125,-0.04789864625036716,-0.025600305202603337,-0.0514998490801081
1772018022887151400,3.9461513671875,-0.040407998234033585,-0.006695698246359825,-0.041729437829833474
1772018022907119600,3.96611962890625,0.030046763217449188,0.010783259820938109,-0.028045104538835585
1772018022927086600,3.986086669921875,0.11745558207929134,-0.0074181673020124435,0.028831779670808463
1772018022947054600,4.0060546875,0.005665186154842377,-0.043812545980513096,0.01876936320401728
1772018022967021600,4.026021484375,-0.0646194794267416,-0.06337240197509526,-0.011077493527159095
1772018022986989600,4.045989501953125,-0.15145663588047026,-0.04696224218308925,-0.049965515652298925
1772018023006956500,4.06595654296875,-0.03175707426667213,-0.04978811325877905,-0.06702056748541071
1772018023026923500,4.085923583984375,-0.005175941333174706,-0.08409837913960218,-0.04389019606029614
1772018023046891500,4.1058916015625,-0.0317757789671421,-0.06264759483188391,-0.025835283002257344
1772018023066858500,4.1258583984375,-0.030059038177132603,-0.05850713402628898,-0.04016372288307175
1772018023086826500,4.145826416015625,0.040520810958743096,-0.04344955788701772,-0.023873463143687695
1772018023106793700,4.165793701171875,0.03518997132480144,-0.03274374721646309,0.030320849184785035
1772018023126760400,4.185760498046875,0.04146422928869724,0.016370412303507328,0.016973127437010408
1772018023146728400,4.205728515625,0.037087913900613785,-0.031041034951806067,-0.03516476381830871
1772018023166695700,4.22569580078125,0.07701894227266311,-0.023298165740072724,-0.003990604006126523
1772018023186663700,4.24566357421875,-0.014634090030193328,-0.046860243113338945,0.009196045428421349
1772018023206630400,4.26563037109375,-0.10831015259325504,-0.009233692291378975,0.014268635984975844
1772018023226597600,4.28559765625,-0.06015022505819797,-0.03360416343808174,-0.03378262527752667
1772018023246565600,4.305565673828125,0.014320201775431632,-0.04990735572427511,-0.0672510335067287
1772018023266532400,4.325532470703125,0.013351064482331275,-0.060147594709694385,-0.02240896181538701
1772018023286500400,4.345500244140625,-0.06126899995505809,-0.03094108170866966,0.009673928605858235
1772018023306467600,4.365467529296875,-0.1077928507208824,-0.0366471843957901,0.03004031521035358
1772018023326434600,4.3854345703125,-0.03154080116748809,-0.05839052190929651,-0.01893111137067899
1772018023346402600,4.405402587890625,0.08537702077329158,-0.032521921159327026,-0.0032864377921447154
1772018023366369500,4.42536962890625,0.05142974298596382,-0.03514525540024042,-0.01253450566874817
1772018023386337500,4.445337646484375,-0.03542319555878639,0.017716858476400376,-0.017578454652708023
1772018023406304500,4.465304443359375,0.016970424023270606,0.011849427747726439,-0.015255692527256904
1772018023426271500,4.485271484375,0.05302724131047725,-0.03315729645341635,-0.04225260318741202
1772018023446239500,4.505239501953125,-0.0605149667173624,-0.04759118773639202,-0.009888119345810263
1772018023466206500,4.52520654296875,-0.10908932027220726,-0.048769876126945014,-0.028010690812580286
1772018023486174000,4.545174072265625,-0.06881810016036033,-0.07760697129368782,-0.011207129522506147
1772018023506140700,4.565140625,-0.059416065564751624,-0.05961129587590694,0.0017250519606284796
1772018023526108000,4.58510791015625,0.11094459275007247,-0.05795914475470781,0.043303756208159024
1772018023546076000,4.605075927734375,0.03835807996690273,-0.05565466720461845,0.0007190167232416569
1772018023566043000,4.62504296875,-0.09246142607629299,0.018800854320824144,0.014424283204413949
1772018023586011000,4.645010986328125,-0.0011474164694547653,-0.012242518718540667,0.004774776653759181
1772018023605977900,4.664977783203125,0.06990238826572895,-0.025943711812794208,-0.006545147327147424
1772018023625944800,4.68494482421875,0.10519348187744616,0.008955752132833004,-0.07084715830255299
1772018023645912800,4.704912841796875,0.054825815165042875,-0.00775251382291317,-0.054221218601707366
1772018023665879800,4.7248798828125,0.0929839886456728,-0.00064005146920681,0.00907090294510126
1772018023685847800,4.744847900390625,0.02342646829485893,-0.04115121781677007,-0.006079192049521952
1772018023705814800,4.764814697265625,0.009651625442504882,-0.020176818849146363,-0.011589059778489171
1772018023725782800,4.78478271484375,-0.13439444192051886,-0.04668927046060562,-0.00890625043530017
1772018023745749800,4.804749755859375,-0.17313012302815914,-0.03365823171287775,-0.019673417637962848
1772018023765716700,4.824716796875,-0.10342238055169582,-0.06578501607477664,-0.004286719142179936
1772018023785684700,4.844684814453125,0.04050502886772155,-0.07433160288482904,-0.04884933457132429
1772018023805652000,4.86465185546875,0.037110710254311556,-0.06058773969262838,-0.05390645356411114
1772018023825618700,4.88461865234375,-0.021226327902078627,-0.021449030742049215,-0.019923702604603022
1772018023845586700,4.904586669921875,-0.05834989763796329,-0.0012307108387351036,-0.0033464060847647487
1772018023865554000,4.924553955078125,-0.01327683020234108,0.01634410881847143,0.008622337193693964
1772018023885522000,4.94452197265625,0.07313011814057827,0.007224106034636497,0.00468390176622197
1772018023905488600,4.964488525390625,0.09386953930854797,-0.008379413549602031,-0.011724139133933931
1772018023925456000,4.984455810546875,0.029331308424472808,0.0031707389906048774,0.027463797519542275
1772018023945424000,5.004423828125,-0.074579732427001,-0.0012038228318095206,0.03612677725087851
1772018023965390800,5.024390869140625,-0.05926584343910217,-0.02610708568096161,-0.008808635279722511
1772018023985358600,5.044358642578125,0.032602877441048624,-0.05505933165997266,0.01635795468073338
1772018024005325800,5.064325927734375,-0.024237200155854222,-0.04037409596443176,0.004196830635331571
1772018024025293800,5.0842939453125,-0.004573883786797523,-0.04510024770349264,-0.006666417352948337
1772018024045260800,5.1042607421875,-0.021862872239947317,-0.06020926176905632,-0.0030952991342172026
1772018024065227800,5.124227783203125,0.029263503885269163,-0.008236790208518505,-0.001061637882143259
1772018024085195800,5.14419580078125,0.11223521708250045,-0.031956103970110415,-0.014496526456717401
1772018024105162800,5.164162841796875,0.0727583622187376,-0.022919103294610974,0.02797417646078393
1772018024125131000,5.184131103515625,-0.009177578189969062,-0.019988310539722443,-0.020760153428744522
1772018024145097700,5.20409765625,-0.03067278616130352,-0.039674423262476916,-0.012059143241960555
1772018024165064700,5.224064697265625,-0.05198562330305576,-0.04638298099040985,-0.030667781192623075
1772018024185033000,5.244032958984375,-0.04477554579377174,-0.11859919915646314,-0.04228245033640414
1772018024205000000,5.264,-0.01980243257880211,-0.08239712817966938,-0.08890804444365202
1772018024224967700,5.2839677734375,-0.04131108455359935,-0.04174450753480196,-0.06576158040026202
1772018024244935000,5.303934814453125,-0.007347440153360366,0.0033463878184556957,-0.03315413638195023
1772018024264900900,5.32390087890625,0.027716274443268775,-0.030003800858557222,-0.028981800867058333
1772018024284868600,5.34386865234375,0.07588555432856083,-0.008801438353955745,0.006667604663036763
1772018024304835800,5.3638359375,-0.04039806136190891,-0.028603870932757854,-0.012006536271888761
1772018024324803800,5.383803955078125,0.01007131215929985,0.0017015432208776474,-0.0066390726882964365
1772018024344770800,5.403770751953125,0.021885084071755406,-0.01632102020382881,-0.011140749755408614
1772018024364737800,5.42373779296875,0.09455459896326064,-0.011005378139019011,-0.010581106578651816
1772018024384705800,5.443705810546875,0.0337713366985321,-0.04251607642918825,-0.0026242475563660263
1772018024404672800,5.4636728515625,-0.11737959423363208,-0.05165595295727252,-0.02714221914866939
1772018024424640800,5.483640869140625,-0.1145551844626665,-0.04001169239282608,-0.022316442960035054
1772018024444607700,5.503607666015625,-0.08005377992391585,-0.1041480644777417,-0.04557131754765287
1772018024464574700,5.52357470703125,0.019994155758619306,-0.0702329353943467,-0.024234770736750212
1772018024484543200,5.543543212890625,0.002514028647542,-0.0675493953987956,-0.027092370391264557
1772018024504510200,5.56351025390625,0.013740356060862541,-0.05766513024419546,0.006299629867170005
1772018024524478200,5.583478271484375,0.009991232660412788,-0.056282151453196996,-0.017989994595665484
1772018024544445200,5.603445068359375,-0.03661094403862953,-0.000666062693297863,-0.0279074861664325
1772018024564412400,5.623412353515625,-0.03698971422314644,-0.0025616671815514563,-0.024196301889885214
1772018024584380400,5.64338037109375,0.08358253857195377,-0.045695583248138424,0.0019234606095589696
1772018024604347100,5.66334716796875,0.01833060646057129,-0.01409632989168167,-0.03091516181612387
1772018024624315100,5.683315185546875,0.02887538135051727,-0.003591302490234375,-0.03943822162011638
1772018024644282400,5.703282470703125,0.05238134462237358,-0.056399640353024,-0.03037453386709094
1772018024664250400,5.72325048828125,-0.047076808473467825,-0.07009907988160848,-0.005536171214003116
1772018024684218000,5.743218017578125,-0.08424012569785118,-0.07782879735082388,-0.03778287389483303
1772018024704185300,5.763185302734375,-0.07494798121750354,-0.05483049134016037,-0.048808637234754856
1772018024724153300,5.7831533203125,-0.04348199885189533,-0.012074760936200617,-0.03826314995875582
1772018024744120300,5.803120361328125,0.04457505478560924,-0.013598024980723857,-0.05012857899321243
1772018024764087300,5.82308740234375,0.0029418986707925796,0.006658581106364726,-0.012409527582209557
1772018024784055300,5.84305517578125,0.07513795083165169,0.005212181690335273,-0.013620328144077211
1772018024804022300,5.863022216796875,0.08153729647994042,-0.013212240533530711,0.00016717326045036316
1772018024823990300,5.882990234375,0.01814531302154064,0.016683423775434494,-0.004777644464280456
1772018024843957200,5.902957275390625,0.032819150540232656,-0.002875555436313152,-0.022251396633498368
1772018024863924200,5.92292431640625,0.04768821837007999,0.012118015556037426,-0.00264412130061537
1772018024883892200,5.942892333984375,-0.03204348999261856,-0.021408698731660843,-0.027097302294708785
1772018024903859500,5.962859375,-0.13817746759057045,-0.04055968166440725,-0.03532695037638768
1772018024923827200,5.9828271484375,-0.019635843840241432,-0.03561725682616233,-0.01171224776674062
1772018024943794200,6.002794189453125,0.06912672771811484,-0.028332068254053593,-0.011707096667587756
1772018024963761400,6.022761474609375,0.10072364298701286,-0.03620060967206955,-0.036255225936137135
1772018024983729400,6.0427294921875,-0.053362172353267665,-0.027737317231297492,-0.015697919869422913
1772018025003696000,6.062696044921875,-0.05735445685982704,-0.01203939736187458,-0.02049414117000997
1772018025023664000,6.0826640625,-0.020333178454637526,-0.06554448531717062,-0.014425616644974796
1772018025043631400,6.10263134765625,0.01270867492556572,-0.06149959384053945,-0.022069573793187736
1772018025063598300,6.122598388671875,-0.01641863535940647,-0.023550679196417332,0.0007889949532225727
1772018025083566000,6.142566162109375,-0.030907179439067838,-0.007236965516209602,0.008586023771297186
1772018025103533300,6.162533203125,0.006548398730158805,-0.038327100306749344,-0.025872637604270127
1772018025123501300,6.182501220703125,0.03646715165376663,-0.047510815976560115,-0.03659021177785471
1772018025143468300,6.20246826171875,-0.0004033201038837433,-0.030706688430905342,0.010090108191315084
1772018025163435300,6.222435302734375,-0.0869622441381216,-0.019408172564208508,-0.02756482847491279
1772018025183403300,6.2424033203125,-0.002520458388328552,-0.027380758878588676,-0.02398934460831806
1772018025203370200,6.262370361328125,-0.0035778584867715833,-0.051015024705231185,-0.06541262083211913
1772018025223338200,6.282338134765625,-0.07580489030778408,-0.01853752720952034,-0.03951888564089313
1772018025243305200,6.30230517578125,-0.024030279406905174,-0.004836041854321956,0.005352357346005737
1772018025263272200,6.322272216796875,0.10670973165929316,-0.04269990856349468,0.03131398840798065
1772018025283240200,6.342240234375,0.0005073650002479553,-0.024548165801167487,-0.033730566296726466
1772018025303207200,6.362207275390625,-0.043726913523674006,0.00004734627306461334,-0.03859950577365234
1772018025323175200,6.382175048828125,0.011012392401695251,-0.01945814918577671,-0.04240980304311961
1772018025343142100,6.40214208984375,0.14507891754209995,-0.033215748642385,-0.036982188503816724
1772018025363109400,6.422109375,0.0031868133425712584,-0.05358692101985216,-0.05011944583868608
1772018025383077400,6.442077392578125,-0.11565233204960822,-0.0007376666247844696,-0.0118889925731346
1772018025403044000,6.462044189453125,-0.05451251143217087,-0.04872983637750149,-0.026799652788694946
1772018025423012400,6.482012451171875,0.010249591335654258,-0.04338087656497955,-0.05965310745732858
1772018025442979300,6.501979248046875,-0.02998480389714241,-0.0356581733584404,0.01955234854156151
1772018025462946300,6.5219462890625,-0.04461830940544605,-0.030150515852868556,0.007607168801780789
1772018025482914300,6.541914306640625,-0.04649520919322967,-0.03329232100993395,-0.019070994765404612
1772018025502881300,6.56188134765625,0.04590484208464622,-0.029667700771987437,-0.02299560259692371
1772018025522849000,6.58184912109375,0.05168167192041874,-0.0313031930193305,-0.043343686359748244
1772018025542816300,6.601816162109375,0.017788754668831824,-0.017865327036380767,-0.0446503850441426
1772018025562783200,6.621783203125,0.029342998862266538,0.019046645775437354,0.005413476416096091
1772018025582751200,6.641751220703125,0.06769523361027241,-0.03800795135498047,-0.049723121731169516
1772018025602718200,6.66171826171875,0.08896423161029815,-0.04419686912298202,-0.02891377713214606
1772018025622686200,6.681686279296875,-0.010425532424449921,-0.061712944330275056,0.01009960667202249
1772018025642653200,6.701653076171875,-0.16027414858639238,-0.08445406070947646,0.04970922106998041
1772018025662620400,6.721620361328125,-0.1021598132699728,-0.0900932356402278,-0.012492237429600208
1772018025682588200,6.741588134765625,-0.046239773127436636,-0.07634323496818542,-0.03940410015480593
1772018025702555100,6.76155517578125,-0.12757190242409705,-0.014797756159305571,-0.041663459921535105
1772018025722523100,6.781523193359375,-0.07005319491326809,0.007203647768497467,-0.06317792058261111
1772018025742490400,6.801490478515625,0.16011165150105952,0.0013660276561975478,-0.011274751398619264
1772018025762457000,6.82145703125,0.1340308693051338,-0.015014321519434451,-0.012705514854099601
1772018025782425000,6.841425048828125,0.04643792604804039,0.005788520273566245,-0.012592720395699142
1772018025802392300,6.861392333984375,-0.002874678653478622,0.005488660544157028,-0.0310365414397791
1772018025822360300,6.8813603515625,0.05915478428006172,-0.03350157984644175,-0.0075687547538429495
1772018025842327000,6.9013271484375,0.05548340229094028,-0.02392360416203737,-0.04603519046604633
1772018025862295000,6.921294921875,-0.013684826481342316,-0.046430619524419306,0.011652626533992587
1772018025882262300,6.94126220703125,-0.11187515159845351,-0.0504109213322401,-0.015265026611182838
1772018025902229200,6.961229248046875,-0.1293774905413389,-0.05569003077894449,-0.0017055800751782952
1772018025922197000,6.981197021484375,-0.0712292529553175,-0.0746235715687275,0.005343845245987177
1772018025942164200,7.001164306640625,0.01047697035074234,-0.0669587360292673,0.004310629740729928
1772018025962132200,7.02113232421875,0.03628594986796379,-0.07549392466247082,-0.007899210550915449
1772018025982099200,7.04109912109375,0.02432663200497627,-0.05505260965824127,-0.0023094094535335897
1772018026002066200,7.061066162109375,-0.10707271975278854,-0.014741349796950817,0.004800367752742022
1772018026022034200,7.0810341796875,-0.006543138033151626,0.024012743750214574,-0.028461320656910538
1772018026042001200,7.101001220703125,0.09164952517151832,0.0077563132151961325,0.02013844133382663
1772018026061969400,7.120969482421875,0.11871055057644843,0.007648176665604114,-0.0007991510210558772
1772018026081936100,7.14093603515625,0.06633738926053047,0.02498801852315664,-0.011713544674683362
1772018026101903000,7.160903076171875,-0.018245266264677047,0.021902619728446007,-0.015076609633304178
1772018026121871400,7.180871337890625,-0.09507774605453014,-0.05909983922243118,-0.008745068524219095
1772018026141838300,7.20083837890625,-0.07335808167755603,-0.06136836867630481,-0.006606613457109779
1772018026161806000,7.22080615234375,-0.04263035045862198,-0.05194967520684003,0.014780220502614974
1772018026181773300,7.240773193359375,-0.06454115349352359,-0.058841188286244864,0.009311890360433608
1772018026201740300,7.260740234375,0.01061900916993618,-0.057925242485105985,-0.011105605376791209
1772018026221708300,7.280708251953125,-0.038565585237741465,-0.042162440685927866,-0.02462176076034084
1772018026241675300,7.30067529296875,-0.03237374486029148,-0.01845598640590906,0.008510364719200879
1772018026261643300,7.320643310546875,0.023390227937698363,0.001522095000743866,0.0027996589221991595
1772018026281610200,7.3406103515625,-0.0023801731348037716,-0.03333674467355013,-0.02865371969016269
1772018026301577200,7.3605771484375,0.035032734936475754,0.016219021134078502,-0.037937680864054704
1772018026321545200,7.380545166015625,0.06366612422466278,-0.005773614965379238,-0.016174907997716217
1772018026341512200,7.40051220703125,0.021823709273338317,-0.0114481534704566,0.0007217749359086156
1772018026361480200,7.420480224609375,0.004960837277770042,-0.02314765135347843,0.02063320258082822
1772018026381447200,7.440447265625,0.05098375278413295,-0.02985533229857683,0.00635616409368813
1772018026401415200,7.460415283203125,-0.009292144480347634,-0.01995002435594797,0.00009956965064629912
1772018026421382100,7.480382080078125,-0.04673720125555992,-0.045241117478907106,-0.025155666707642375
1772018026441349400,7.500349365234375,-0.05902852755188941,-0.050152854917943475,0.004454075065720826
1772018026461317400,7.5203173828125,0.011519757401943206,-0.06607581571489572,-0.0064892158888280385
1772018026481284000,7.5402841796875,0.09496259524226187,-0.055987844681739805,-0.03999439419815316
1772018026501252400,7.56025244140625,0.12471885108053683,-0.06845452754497527,-0.065550166139286
1772018026521219600,7.580219482421875,-0.012093173375725746,0.0004971358671784401,-0.010267364454362542
1772018026541186300,7.600186279296875,-0.08198679381310939,-0.013056173188984393,0.00103599198423326
1772018026561154300,7.620154296875,0.005165419939160347,-0.008313654837012291,0.008789437388908118
1772018026581121500,7.64012158203125,0.11836568266153334,-0.05596680189371109,-0.03307171879550442
1772018026601089500,7.660089599609375,0.059792497661709784,-0.07068301724940539,0.019730846913624554
1772018026621056300,7.68005615234375,-0.09743278474807739,-0.08366027998328208,0.014027447640243917
1772018026641024300,7.700024169921875,-0.13814590340852737,-0.05772270565032959,-0.0034777591131627556
1772018026660991500,7.719991455078125,-0.03948094651699066,-0.02460778703391552,-0.038251185526326295
1772018026680958500,7.73995849609375,0.18955285004079342,-0.0367255103290081,-0.05201559831621125
1772018026700926200,7.75992626953125,0.13637480208277702,-0.015582184535264968,-0.014996237873472273
1772018026720893400,7.7798935546875,-0.08037292887568473,0.04030599916428328,0.0023354206776246425
1772018026740861400,7.799861328125,-0.12475450691580772,0.019610124877095222,-0.011570610806345938
1772018026760828400,7.819828369140625,0.006965747359395026,-0.04617430667579174,-0.03366402213284746
1772018026780795400,7.83979541015625,0.13046119412481785,-0.0778235366538167,-0.016720011192467063
1772018026800763400,7.859763427734375,0.09139233554005623,-0.07871814740598201,-0.011344437367655336
1772018026820730400,7.87973046875,-0.0576654225051403,-0.021499299624562263,-0.02179539649430662
1772018026840698400,7.899698486328125,-0.03380757705569267,-0.018997253675758836,0.006454856961499899
1772018026860665300,7.919665283203125,0.05944529165923595,-0.049101592299342155,0.01205364508293569
1772018026880633300,7.93963330078125,0.05626607710123062,-0.05475859514772892,-0.003168784495536238
1772018026900600300,7.959600341796875,-0.0691202979773283,-0.054357320870459074,-0.01878266107700765
1772018026920567600,7.979567626953125,-0.045074236479401585,-0.04419453103542328,-0.04492200505975633
1772018026940535300,7.999535400390625,0.02356149285137653,-0.06545476120710372,-0.01695977476509288
1772018026960502300,8.019502197265625,-0.011374795973300933,-0.038732466237246986,-0.037090562515426424
1772018026980470500,8.039470458984376,-0.033254034826159476,-0.008805822268128394,-0.051596660518087444
1772018027000437500,8.0594375,0.0315887319624424,-0.012793722860515116,-0.016853519645333288
1772018027020404200,8.079404296875,0.08195756771862506,-0.0029378070175647736,-0.026650946766696867
1772018027040372500,8.09937255859375,0.05702595555782318,0.014894494532048701,0.03379873616211116
1772018027060339500,8.11933935546875,-0.055366497913002966,0.03148205671757459,0.0014240414537489414
1772018027080307500,8.139307373046876,0.01983107415139675,-0.0017158640071749686,0.02157267538802698
1772018027100274400,8.1592744140625,0.0828881265670061,-0.039243338368833064,0.041961858346220106
1772018027120242400,8.179242431640626,-0.1286374858289957,-0.10426496885567903,0.044661892818845805
1772018027140209400,8.19920947265625,-0.07053016477525234,-0.03690554307103157,-0.06719796987893059
1772018027160176600,8.2191767578125,-0.0014677344650030136,-0.058823360368609426,-0.02950131296282634
1772018027180144400,8.239144287109376,-0.005511456897854805,-0.06358136855065823,-0.027954741107951847
1772018027200111400,8.259111328125,-0.04222469226717949,-0.06542115119844674,0.04226453108722344
1772018027220079400,8.279079345703124,-0.08757949925363064,-0.06268968040794133,0.003635927083250135
1772018027240046600,8.299046630859374,-0.05594634362757206,-0.04876344638615846,0.01790529372058809
1772018027260013300,8.319013427734374,0.00658522360920906,-0.0035752281382679936,0.008149184990301728
1772018027279981300,8.338981201171874,-0.022215923461318014,-0.04446487240940332,-0.016738862023409455
1772018027299948500,8.358948486328124,-0.04655716851353645,-0.054633799724280833,-0.037921679577324535
1772018027319916500,8.37891650390625,-0.03818681505322456,-0.03680968148112297,-0.08652118583973496
1772018027339883300,8.39888330078125,-0.07271569212079047,-0.026727263405919074,-0.07569494539359584
1772018027359851300,8.418851318359375,-0.02390051554739475,-0.04720043485313654,-0.09481598984580486
1772018027379818500,8.438818603515625,0.06037351242005825,-0.05783931776732206,-0.05339289628509432
1772018027399785500,8.458785400390624,-0.0026034604966640473,-0.017030629777908323,-0.11164611034924164
1772018027419753200,8.478753173828125,0.0363987625926733,-0.006195639769732952,-0.08055822231471538
1772018027439720400,8.498720458984375,0.021540216156840323,0.006993219888210296,-0.037889384742919356
1772018027459688400,8.5186884765625,-0.03618132044970989,0.0019514263287186621,-0.054662258633784946
1772018027479655400,8.538655517578125,0.03880523921251297,0.0036626141607761383,-0.02095271685877815
1772018027499623200,8.558623046875,0.09618950668871402,-0.010398644417524337,-0.01612421899009496
1772018027519590100,8.578590087890625,0.033982933622598646,-0.011884499061107634,0.05096577873602509
1772018027539556900,8.598556884765625,-0.07123860530555248,-0.024036709147691727,-0.027831187793519348
1772018027559525000,8.618525146484375,-0.02011865892112255,-0.02897036615759134,-0.014240049211308359
1772018027579492000,8.6384921875,-0.008461538875102996,-0.0833323632031679,-0.024279084802512077
1772018027599460000,8.658460205078125,-0.020931728869676588,-0.11103256329447031,-0.01845220527993515
1772018027619427000,8.678427001953125,-0.06852525469362736,-0.06523673454225062,-0.06824024547347798
1772018027639395000,8.69839501953125,0.05252279891967773,-0.046564767298102376,-0.06636071533719078
1772018027659362000,8.718362060546875,0.02933949173092842,-0.03801788822710514,-0.07514386911578476
1772018027679329300,8.738329345703125,0.027950083199143407,-0.020054653774201868,-0.0724633978601545
1772018027699297000,8.758297119140625,-0.03107961339652538,-0.03356178560107946,-0.030109270527027547
1772018027719264000,8.778263916015625,-0.053586628758907316,-0.021327157928049564,-0.035738782580289986
1772018027739232000,8.79823193359375,0.036274259430170055,-0.0012619827598333358,-0.01374366226280108
1772018027759199200,8.81819921875,0.0982861867070198,-0.02778700159192085,-0.049563967380393294
1772018027779167200,8.838167236328125,0.038600656551122665,-0.04023644105941057,-0.0759974902704358
1772018027799134000,8.858134033203125,-0.014530629655718802,-0.018122808928787707,-0.04520628362754359
1772018027819101200,8.87810107421875,-0.014600772282481193,-0.03283843976259231,-0.005219543012883514
1772018027839069200,8.898069091796875,0.04231821576952934,-0.04198883768469095,0.03844890005551278
1772018027859036000,8.918035888671875,-0.10711188271939753,-0.025857787095010278,0.030598953740112483
1772018027879004000,8.93800390625,-0.046292964619398115,-0.006842997762560844,0.016402524474821985
1772018027898971100,8.95797119140625,0.0788888277977705,-0.03404898459613323,0.02731711905784905
1772018027918939100,8.977939208984376,0.04214227468073368,-0.034540567505359644,0.02954714313223958
1772018027938905900,8.99790576171875,0.0022241057902574538,-0.03765139300227165,-0.02426660891342908
1772018027958873000,9.017873046875,-0.04457739287316799,-0.041516251736879346,0.006283025792241096
1772018027978841000,9.037841064453126,0.038949616119265555,-0.039459611468017096,-0.006234948866814374
1772018027998808000,9.05780810546875,0.0746925451517105,-0.04161591271907091,0.042682464238349344
1772018028018776000,9.077776123046876,0.014357026654481887,-0.05331950225532055,0.01579681366663426
1772018028038743000,9.097742919921876,-0.026461305946111676,0.027751930278539658,0.004102466882765293
1772018028058711000,9.1177109375,0.06125087977647781,0.025390169583261013,0.03148474186500534
1772018028078678000,9.137677978515624,-0.025351298877596854,-0.02141016003638506,0.01880520170237869
1772018028098645000,9.15764501953125,-0.09799392576217651,0.01870996116697788,-0.0017236819874495268
1772018028118613000,9.177613037109374,0.002011339822411537,0.004443243144452572,-0.029459921506512908
1772018028138580000,9.197580078125,0.04721767824888229,-0.009312602746486664,-0.03383011768106371
1772018028158548200,9.21754833984375,0.023094459861516953,-0.05699760624617338,-0.03740052351374179
1772018028178515000,9.237514892578124,-0.06767886699736118,-0.03891746741533279,0.06407368211224675
1772018028198483000,9.25748291015625,-0.07337853994369506,-0.017084113530814647,0.06650251669436692
1772018028218450200,9.2774501953125,0.07088613860607147,-0.07984861274063587,0.0008940992955118418
1772018028238417200,9.297417236328124,0.095689740473032,-0.0923231866493821,0.014455189799331128
1772018028258384000,9.3173837890625,-0.11493161655962467,-0.054253275974094864,0.027806546542607245
1772018028278351000,9.33735107421875,-0.20700258201360702,-0.03539309268146753,-0.012871573869697749
1772018028298319000,9.357319091796874,-0.04114332677125931,-0.06368395214229822,0.024226349968276918
1772018028318286000,9.3772861328125,0.09016834670305252,-0.07667144400924444,-0.019410145325586197
1772018028338254000,9.397254150390625,0.05754091934263706,-0.04954290632605552,-0.033942638144828376
1772018028358221000,9.417220947265625,0.048236499902606006,-0.00732025988548994,-0.027040457540936768
1772018028378189000,9.43718896484375,0.11997954759895801,-0.013023439963161944,-0.007026829896867275
1772018028398156300,9.45715625,0.11629647517204283,-0.01170300501435995,0.004524455154500902
1772018028418123000,9.477123046875,0.07369418176412582,0.0014548749834299086,0.01774951863698661
1772018028438091000,9.497091064453125,-0.05888824229836464,-0.0307847221031785,-0.0217095083091408
1772018028458058200,9.517058349609375,-0.04638356551229954,-0.008210778984427451,0.03604969342667609
1772018028478026200,9.537026123046875,0.0501712673574686,-0.022816811963915825,0.028613953935354947
1772018028497993000,9.556992919921875,0.08209902201592922,-0.058411564697325224,-0.015125672939419745
1772018028517960700,9.576960693359375,0.08564999249577522,-0.042079730838537215,-0.023927001695521175
1772018028537928000,9.596927978515625,0.0030231472134590147,-0.044910862611234184,0.002541939567774534
1772018028557895000,9.61689501953125,-0.10877192488610744,-0.04834843584448099,0.04538520212471485
1772018028577863000,9.63686279296875,-0.05159107102751732,-0.051554538409411904,0.037425731020234526
1772018028597830000,9.656829833984375,-0.005673953983187675,-0.05696545754224062,-0.0043670361030846835
1772018028617798000,9.6767978515625,0.024935119292140005,-0.06037818859517574,-0.030679983087070286
1772018028637764900,9.696764892578125,0.00004091653227806091,0.003354571124911308,0.03188026225492358
1772018028657735000,9.71673486328125,0.02501519879102707,0.002641162158548832,-0.006953362801857293
1772018028677703000,9.736702880859376,-0.017266776621341705,0.014288345332443714,-0.018727898682467638
1772018028697670000,9.756669921875,0.04692892443537712,-0.029397359398007392,-0.026908629588503388
1772018028717638000,9.776637939453124,-0.0038753801286220547,-0.05551058255881071,-0.040792266577575356
1772018028737604900,9.79660498046875,-0.0409603714197874,-0.057118602277338504,-0.011698420170787722
1772018028757572900,9.81657275390625,-0.01132744970023632,-0.08573533269166946,-0.06384708854844794
1772018028777540000,9.8365400390625,0.014595511585474013,-0.09421820661574602,0.002481715546827763
1772018028797508000,9.856508056640624,-0.06766600751578808,-0.09014145869612693,-0.0010395539144985378
1772018028817474800,9.876474853515624,-0.011743629285693167,-0.06515636278241872,0.029556769477110355
1772018028837442000,9.896442138671874,-0.030396307307481763,-0.06681932755857706,0.017687760246079414
1772018028857410000,9.91641015625,-0.09839666134417056,-0.06624678836762905,-0.0067885276289656755
1772018028877376800,9.936376708984374,-0.042294834893941875,-0.03796586577892303,-0.004057951887603849
1772018028897344800,9.9563447265625,0.056931263011693954,-0.03788227914869785,-0.0009503229947760701
1772018028917312000,9.97631201171875,0.1334030927956104,-0.02154898398518562,-0.006467460714746266
1772018028937280000,9.996280029296875,0.03912847981750965,-0.008743862947821616,-0.03771432043695822
1772018028957247000,10.0162470703125,-0.09880348857939243,0.015438099889457225,-0.05007507697399705
1772018028977214000,10.0362138671875,-0.03685410514473915,-0.011030220319330692,0.014284838201105593
1772018028997182000,10.056181884765625,0.057764206704497334,-0.040405660146474835,-0.05443809448909014
1772018029017149000,10.07614892578125,0.09532207620441913,-0.07871171766519545,-0.042703068634960796
1772018029037117000,10.096116943359375,-0.07086158868670463,-0.05465396572947502,-0.03314809023365378
1772018029057084000,10.116083984375,-0.07476093421280383,-0.03476356260627508,0.00010022723777219653
1772018029077052000,10.136052001953125,-0.05172200393080711,-0.05048369430750608,-0.026208134902641175
1772018029097019000,10.156018798828125,0.010983750829100608,-0.024472470216453074,-0.05536109108552336
1772018029116985900,10.17598583984375,-0.0013496610432863236,0.0018710545688867567,-0.03900339213311672
1772018029136953900,10.195953857421875,-0.054474517509341236,0.008088613909482956,-0.014187095181364566
1772018029156920800,10.2159208984375,0.0656254415988922,-0.019676760372519492,-0.01641768551133573
1772018029176888800,10.235888916015625,0.0854892489761114,-0.017383388738334178,-0.03005191431660205
1772018029196856000,10.25585595703125,0.05236380896568298,-0.007050795294344425,-0.01951923172324896
1772018029216823800,10.27582373046875,0.033739772516489026,0.016171382600069045,0.018330442063789813
1772018029236790800,10.295790771484375,-0.07008943527042866,-0.04943973821252584,-0.05604733805032447
1772018029256758000,10.315758056640625,-0.01822889965176582,-0.05230331095010042,-0.03340566345760598
1772018029276726000,10.33572607421875,-0.053952539461851114,-0.025114275251328942,-0.031685872193984686
1772018029296692700,10.355692626953125,-0.00684182871878147,-0.05173398662954569,-0.01356821436434984
1772018029316661000,10.375660888671876,0.01798281593620777,-0.07046352927982807,0.0007246792790479957
1772018029336628000,10.3956279296875,0.006123451316356659,-0.05737900677919387,0.009805902688764035
1772018029356596000,10.415595947265626,-0.0637391894608736,-0.012099895377457141,0.005212784478534013
1772018029376563000,10.43556298828125,-0.03156476656496525,0.021942659477889537,-0.016882800538744778
1772018029396531000,10.455531005859376,0.07750994065999985,-0.04774404021054506,-0.03537714619366452
1772018029416498000,10.475497802734376,0.09793372000753879,-0.02122048268318176,-0.009954334716126322
1772018029436465000,10.49546484375,-0.03947393225431442,-0.0213321263641119,-0.04153397005666047
1772018029456433000,10.515432861328126,-0.020336685585975647,0.025884382840991017,-0.005185878205299377
1772018029476399900,10.53539990234375,-0.031575872480869294,-0.006527940464019775,-0.007987601220421492
1772018029496368400,10.555368408203124,0.0856856483310461,-0.0396054496794939,-0.060554202749207614
1772018029516335400,10.57533544921875,0.09300035525858402,-0.040378479878604406,-0.0568272729142569
1772018029536303400,10.595303466796874,0.05097615399956703,-0.03699906657338142,0.03149193879077211
1772018029556270300,10.615270263671874,-0.08081307385861873,-0.04346972389221191,0.027521427724603562
1772018029576237300,10.6352373046875,-0.07427110486924648,-0.051913142588734626,0.013904076988901943
1772018029596205300,10.655205322265624,-0.02609773333072662,-0.0399126159325242,-0.040622755229566244
1772018029616172300,10.67517236328125,0.07603402288854122,-0.03617138357758522,0.0048562078595161436
1772018029636140300,10.695140380859375,-0.03223813578188419,-0.010741174244880676,0.01263434931403026
1772018029656107500,10.715107421875,-0.05854045177400112,-0.018309271411597727,0.009302428412344306
1772018029676075300,10.7350751953125,0.03871756092905998,-0.021786884394288063,-0.00412290688259527
1772018029696042200,10.755042236328125,0.06781915225088596,-0.04223433687835931,-0.014301734536979346
1772018029716010200,10.77501025390625,0.05419979222118854,-0.005478431411087513,-0.003725578128080815
1772018029735977500,10.7949775390625,0.08246376367509364,0.013294365859031676,0.0025280023739673195
1772018029755944200,10.814944091796875,0.10738076278865337,0.0007134089663624763,-0.02899055042909458
1772018029775912200,10.834912109375,0.06935469125509262,-0.02744680985212326,-0.03892143120439723
1772018029795879400,10.85487939453125,-0.09592588731646537,-0.05573270087689161,-0.05310733907567337
1772018029815847400,10.874847412109375,-0.06318506270945072,-0.0697737934499979,-0.05127794995773583
1772018029835814100,10.894814208984375,0.04166588934063911,-0.05259790998250246,-0.01828782676476985
1772018029855782100,10.9147822265625,-0.25913608935475346,-0.02779956881254911,-0.06638075347822159
1772018029875749400,10.934749267578125,-0.08010229524075985,-0.008251987777650356,0.10052707923529669
1772018029895716400,10.95471630859375,0.31470716992914677,-0.17958616729974747,-0.0753116268981248
1772018029915684000,10.97468408203125,0.6291536430954933,-0.16099164920598266,-0.06466518173199147
1772018029935651300,10.9946513671875,0.06140402451157569,-0.022470482744276522,-0.14513819171497597
1772018029955619300,11.014619384765625,-0.3491033605277538,0.02135258463025093,-0.009339819546975195
