time,seconds_elapsed,z,y,x
1772018019013469400,0.072469482421875,-0.006837754976004362,-0.027193518355488777,-0.010300510562956333
1772018019033436400,0.0924365234375,-0.011488985270261765,-0.014501776546239853,-0.06057300418615341
1772018019053403600,0.112403564453125,-0.01602577418088913,-0.015530010685324669,-0.042363241314888
1772018019073371400,0.132371337890625,0.00003511738032102585,-0.015627862885594368,0.02757483534514904
1772018019093338400,0.15233837890625,-0.010442477650940418,0.020303800702095032,0.07642652094364166
1772018019113306600,0.172306640625,-0.018712809309363365,0.0036681722849607468,0.02638932503759861
1772018019133273600,0.192273681640625,-0.021666012704372406,-0.025928419083356857,-0.009518075734376907
1772018019153241600,0.21224169921875,-0.008955573663115501,-0.0073054637759923935,0.0063065593130886555
1772018019173208600,0.23220849609375,-0.011819432489573956,0.0008732657879590988,0.009767342358827591
1772018019193176600,0.252176513671875,-0.014145860448479652,-0.008023002184927464,0.005778319202363491
1772018019213143600,0.2721435546875,-0.012987086549401283,-0.023883728310465813,0.01920424774289131
1772018019233111600,0.292111572265625,-0.010706314817070961,-0.009480115957558155,0.03985759615898132
1772018019253078500,0.31207861328125,-0.01007660012692213,-0.010027380660176277,0.027703190222382545
1772018019273046500,0.332046630859375,-0.006453287322074175,0.005442469380795956,0.005501219071447849
1772018019293013500,0.352013427734375,-0.008779659867286682,-0.00851825624704361,-0.0027290184516459703
1772018019312981500,0.3719814453125,-0.0075212460942566395,-0.022258130833506584,0.012071901001036167
1772018019332948500,0.391948486328125,-0.011802544817328453,-0.004162750206887722,0.0223463773727417
1772018019352916500,0.41191650390625,-0.008815757930278778,-0.010016029700636864,0.01859624870121479
1772018019372883500,0.431883544921875,-0.012193730100989342,-0.0008034426718950272,0.02201281674206257
1772018019392850700,0.4518505859375,-0.009465854614973068,-0.015635386109352112,0.00697900727391243
1772018019412818400,0.471818359375,-0.009228197857737541,-0.007747205905616283,-0.006894726771861315
1772018019432785400,0.491785400390625,-0.008172665722668171,-0.008484172634780407,0.015598060563206673
1772018019452753700,0.511753662109375,-0.00798066146671772,-0.006136505864560604,0.031036002561450005
1772018019472720600,0.531720703125,-0.010895716026425362,-0.0024222880601882935,0.03299076482653618
1772018019492688600,0.551688720703125,-0.014318831264972687,0.0018907738849520683,0.027699735015630722
1772018019512655600,0.571655517578125,-0.011461413465440273,-0.013910273090004921,0.018781468272209167
1772018019532624000,0.591623779296875,-0.006210909690707922,-0.019696444272994995,0.010004491545259953
1772018019552590600,0.611590576171875,-0.01522873155772686,0.007643311284482479,0.000027887406758964062
1772018019572558600,0.63155859375,-0.014049840159714222,0.0051359497010707855,-0.004513205029070377
1772018019592525800,0.65152587890625,-0.013636602088809013,-0.00048413313925266266,0.005445160437375307
1772018019612493800,0.671493896484375,-0.01557250414043665,-0.0019406983628869057,-0.0025244844146072865
1772018019632460500,0.69146044921875,-0.018733102828264236,-0.002972767222672701,-0.013808030635118484
1772018019652427800,0.711427734375,-0.01706525683403015,-0.006370418705046177,0.004705862607806921
1772018019672395800,0.731395751953125,-0.00694873696193099,-0.010807509534060955,0.02399660274386406
1772018019692362500,0.751362548828125,-0.005644003860652447,-0.014814682304859161,0.008881699293851852
1772018019712330500,0.77133056640625,-0.009167969226837158,-0.001137126237154007,-0.007664655335247517
1772018019732297700,0.791297607421875,-0.019933626055717468,0.017058994621038437,0.000004855683073401451
1772018019752265700,0.811265625,-0.010615101084113121,0.00042934343218803406,0.027422891929745674
1772018019772232700,0.831232666015625,-0.007579700089991093,-0.0018435735255479813,0.020888689905405045
1772018019792200400,0.851200439453125,-0.006176881957799196,-0.005770234391093254,-0.012508010491728783
1772018019812167700,0.871167724609375,-0.009754776954650879,0.00404244102537632,-0.0193382166326046
1772018019832135700,0.8911357421875,-0.010826831683516502,-0.0007567396387457848,0.010441910475492477
1772018019852102700,0.9111025390625,-0.004380118567496538,0.009234375320374966,0.03330621495842934
1772018019872070700,0.931070556640625,-0.0022661308757960796,-0.0067848036997020245,0.006443573161959648
1772018019892037600,0.95103759765625,-0.005290150176733732,-0.01174201164394617,-0.020228784531354904
1772018019912004600,0.971004638671875,-0.00057618273422122,-0.021403620019555092,-0.010536601766943932
1772018019931972900,0.990972900390625,-0.0035231029614806175,-0.0029153209179639816,0.023271290585398674
1772018019951939600,1.010939697265625,0.0015624393709003925,0.015037049539387226,0.025297554209828377
1772018019971907600,1.030907470703125,-0.005701095797121525,0.016684748232364655,0.0009068604558706284
1772018019991874800,1.050874755859375,-0.0004943297244608402,0.00011464767158031464,-0.015432963147759438
1772018020011842800,1.0708427734375,-0.0007153325714170933,-0.012670213356614113,-0.0010228639002889395
1772018020031809500,1.0908095703125,0.008595908060669899,0.0028799818828701973,0.01488992478698492
1772018020051777500,1.110777587890625,0.0008341355714946985,0.011657404713332653,0.007926956750452518
1772018020071744800,1.130744873046875,0.006976615637540817,0.004490399733185768,-0.009934602305293083
1772018020091711700,1.150711669921875,0.010149989277124405,-0.01082073338329792,-0.017434466630220413
1772018020111679500,1.170679443359375,0.013017376884818077,0.005798810161650181,-0.011321712285280228
1772018020131646700,1.190646728515625,0.004935530014336109,0.009339571930468082,0.0036171581596136093
1772018020151614700,1.21061474609375,0.008193555288016796,-0.009814158082008362,0.015601921826601028
1772018020171581700,1.230581787109375,0.014294540509581566,-0.01813395693898201,0.013616134412586689
1772018020191549400,1.250549560546875,0.011385943740606308,0.0021056290715932846,0.013079767115414143
1772018020211516700,1.2705166015625,0.008519108407199383,0.017920810729265213,0.0009514680132269859
1772018020231484700,1.290484619140625,0.009366557002067566,0.007942477241158485,0.00853069219738245
1772018020251451600,1.31045166015625,0.007815100252628326,0.001968911848962307,0.012044470757246017
1772018020271418600,1.330418701171875,0.013634282164275646,-0.0015909289941191673,0.00543250422924757
1772018020291386600,1.35038671875,0.007740963250398636,0.002469414845108986,-0.012753024697303772
1772018020311353600,1.370353515625,0.010599570348858833,-0.00812011118978262,-0.008291831240057945
1772018020331321600,1.390321533203125,0.004220836330205202,-0.009721029549837112,0.008509920910000801
1772018020351288600,1.41028857421875,-0.0008439631201326847,-0.01651075854897499,0.022192176431417465
1772018020371256600,1.430256591796875,0.004109180066734552,-0.02903897687792778,0.019814103841781616
1772018020391223600,1.4502236328125,0.0077603161334991455,-0.014749517664313316,0.009596885181963444
1772018020411191800,1.47019189453125,0.01335699763149023,-0.015401104465126991,-0.01473042368888855
1772018020431158500,1.490158447265625,0.0009346052538603544,-0.020286232233047485,-0.015505938790738583
1772018020451126500,1.51012646484375,-0.0033868872560560703,0.004665813408792019,0.00807076133787632
1772018020471093800,1.53009375,-0.001171611249446869,0.017417829483747482,0.02342228963971138
1772018020491060500,1.550060546875,0.004715208895504475,-0.00422666035592556,0.018671207129955292
1772018020511028500,1.570028564453125,0.004227356519550085,-0.005474971607327461,-0.0007458999752998352
1772018020530995700,1.58999560546875,0.008733110502362251,-0.01002374105155468,-0.009884938597679138
1772018020550963700,1.609963623046875,0.007997109554708004,0.005285353399813175,0.01132661011070013
1772018020570930400,1.629930419921875,-0.0007987492717802525,0.02122410386800766,0.022311750799417496
1772018020590898400,1.6498984375,0.0018555845599621534,0.0154019920155406,0.019855516031384468
1772018020610865700,1.66986572265625,0.0009973132982850075,0.016390010714530945,0.0036929184570908546
1772018020630833700,1.689833740234375,-0.0018712724559009075,0.01296946220099926,-0.019602011889219284
1772018020650800400,1.70980029296875,-0.003971489612013102,0.0006722249090671539,-0.017458301037549973
1772018020670767600,1.729767578125,-0.0005313972942531109,0.0011124471202492714,0.012643277645111084
1772018020690735600,1.749735595703125,-0.0011170650832355022,0.0010579414665699005,0.02602352946996689
1772018020710702300,1.769702392578125,0.0004562819376587868,0.0037138210609555244,0.009370381943881512
1772018020730670300,1.78967041015625,-0.0013458984903991222,0.01762821525335312,-0.00824456475675106
1772018020750637600,1.809637451171875,-0.004593288991600275,0.002007625065743923,-0.011321179568767548
1772018020770605600,1.82960546875,-0.002487833146005869,-0.017248008400201797,0.01086854375898838
1772018020790572500,1.849572509765625,-0.0038947127759456635,-0.01140006072819233,0.03437613695859909
1772018020810539500,1.86953955078125,-0.0031845448538661003,-0.010148288682103157,0.02829080820083618
1772018020830507500,1.889507568359375,-0.009001363068819046,-0.01924484595656395,0.010640711523592472
1772018020850474500,1.909474609375,-0.013004124164581299,-0.020231280475854874,-0.0035223797895014286
1772018020870442800,1.92944287109375,-0.010818970389664173,-0.006539969705045223,-0.010566572658717632
1772018020890409500,1.949409423828125,-0.00808923039585352,0.00837319903075695,-0.004173654597252607
1772018020910377500,1.96937744140625,-0.006911647971719503,0.016252778470516205,0.006421595811843872
1772018020930344700,1.9893447265625,-0.003529471345245838,0.013507411815226078,0.009002731181681156
1772018020950312700,2.009312744140625,-0.003992775920778513,-0.0018283943645656109,0.007779143750667572
1772018020970279400,2.029279541015625,-0.007370225619524717,0.014951649121940136,0.007172607816755772
1772018020990246700,2.04924658203125,-0.008125601336359978,0.01644505187869072,0.001671978970989585
1772018021010214700,2.069214599609375,-0.002175109926611185,-0.006203700788319111,-0.0033249040134251118
1772018021030181600,2.089181640625,0.0014735525473952293,-0.006119106896221638,0.013303603045642376
1772018021050149400,2.1091494140625,0.001561837736517191,0.00006458163261413574,0.025205006822943687
1772018021070116600,2.12911669921875,-0.003398120403289795,0.012706338427960873,0.017034294083714485
1772018021090084600,2.149084716796875,0.0009609221015125513,0.013100129552185535,-0.001663494505919516
1772018021110051600,2.169051513671875,0.008322064764797688,0.014379071071743965,-0.018066564574837685
1772018021130019300,2.189019287109375,-0.0008598812855780125,0.03287623077630997,-0.00989985279738903
1772018021149986600,2.208986572265625,-0.0031754900701344013,0.009452310390770435,-0.0029723048210144043
1772018021169953500,2.22895361328125,0.0039298622868955135,-0.01681986078619957,0.01469057984650135
1772018021189921500,2.248921630859375,0.01257176324725151,-0.01378812175244093,0.02672300674021244
1772018021209888500,2.268888427734375,0.010609830729663372,0.006939883343875408,0.03747312352061272
1772018021229856500,2.2888564453125,0.00973542034626007,0.02547609619796276,0.02406410500407219
1772018021249823500,2.308823486328125,0.008117901161313057,0.005641413852572441,0.00040231947787106037
1772018021269791500,2.32879150390625,0.011237870901823044,-0.008380034938454628,0.0003967294469475746
1772018021289758500,2.348758544921875,0.011732658371329308,-0.00548065360635519,0.0120998565107584
1772018021309725400,2.368725341796875,0.01886621117591858,0.007251298986375332,0.025767067447304726
1772018021329693400,2.388693359375,0.013004269450902939,0.015340379439294338,0.010144161991775036
1772018021349660700,2.40866064453125,0.010331825353205204,0.0027043940499424934,0.001735765254124999
1772018021369628400,2.42862841796875,0.009989780373871326,-0.00400296226143837,0.0024681317154318094
1772018021389595400,2.448595458984375,0.00796534027904272,-0.0065735261887311935,0.013796422630548477
1772018021409563600,2.468563720703125,0.0129522904753685,-0.017552413046360016,0.018089035525918007
1772018021429530600,2.488530517578125,0.010085598565638065,-0.013194071128964424,0.012305580079555511
1772018021449497300,2.508497314453125,0.010843323543667793,-0.001015960704535246,-0.002557252999395132
1772018021469465600,2.528465576171875,0.007846553809940815,0.013185087591409683,-0.032815687358379364
1772018021489433300,2.548433349609375,0.0037443917244672775,0.021867604926228523,-0.04525984451174736
1772018021509401300,2.5684013671875,-0.0013952427543699741,0.014220338314771652,-0.03736330568790436
1772018021529368300,2.588368408203125,0.002717229537665844,-0.005098940338939428,-0.0011328612454235554
1772018021549336300,2.60833642578125,0.01551344245672226,-0.0021054595708847046,0.04737648367881775
1772018021569303600,2.628303466796875,0.016511786729097366,0.011994014494121075,0.049088362604379654
1772018021589270300,2.648270263671875,0.01354079321026802,0.014470758847892284,0.009101664647459984
1772018021609238300,2.66823828125,0.015142703428864479,0.008592721074819565,-0.013053970411419868
1772018021629205500,2.68820556640625,0.018541134893894196,0.01150115579366684,-0.011210664175450802
1772018021649173500,2.708173583984375,0.014357183128595352,-0.0027600573375821114,0.00048767472617328167
1772018021669140200,2.72814013671875,0.012835472822189331,-0.022760041058063507,0.004273358732461929
1772018021689108500,2.7481083984375,0.01617949828505516,-0.006041877903044224,0.009584364481270313
1772018021709075500,2.768075439453125,0.014688597060739994,0.011306831613183022,0.0025537502951920033
1772018021729042200,2.788042236328125,0.011215540580451488,0.014701825566589832,-0.003984710201621056
1772018021749010400,2.808010498046875,0.004369399044662714,0.01101264450699091,-0.00866907648742199
1772018021768977400,2.827977294921875,0.003444833215326071,0.0136497151106596,-0.007624714635312557
1772018021788945400,2.8479453125,0.01009658258408308,0.0032245032489299774,-0.0072141895070672035
1772018021808912600,2.86791259765625,0.01062777265906334,0.007813113741576672,-0.015677984803915024
1772018021828880400,2.88788037109375,0.008784718811511993,0.008678569458425045,-0.025529680773615837
1772018021848847400,2.907847412109375,0.007261545397341251,-0.002875836566090584,-0.02670174092054367
1772018021868814600,2.927814697265625,0.008560176938772202,-0.011457507498562336,-0.005223877262324095
1772018021888782600,2.947782470703125,0.008879737928509712,-0.0010845852084457874,0.018893443048000336
1772018021908749300,2.967749267578125,0.007286074571311474,0.006586113013327122,-0.002976037096232176
1772018021928717300,2.98771728515625,-0.0023406557738780975,0.01465035043656826,-0.019251277670264244
1772018021948684500,3.0076845703125,0.010543214157223701,0.00560039933770895,-0.0028711059130728245
1772018021968651300,3.0276513671875,0.010038875043392181,0.004723210819065571,0.01160423457622528
1772018021988619300,3.047619384765625,0.006910643074661493,0.003623444586992264,0.009518185630440712
1772018022008586500,3.06758642578125,0.0021063475869596004,0.005664316937327385,0.009415254928171635
1772018022028554500,3.087554443359375,0.0038973428308963776,-0.005528058856725693,0.0062194629572331905
1772018022048521500,3.107521484375,-0.003717877436429262,-0.004174572881311178,0.010872932150959969
1772018022068489200,3.1274892578125,-0.005347428843379021,0.01160377450287342,-0.010666980408132076
1772018022088456400,3.14745654296875,-0.006231800187379122,0.005946340970695019,-0.02126489393413067
1772018022108423400,3.16742333984375,0.006267158314585686,-0.009266973473131657,0.001858798786997795
1772018022128391400,3.187391357421875,0.004362134262919426,0.001506921835243702,0.014985384419560432
1772018022148358400,3.2073583984375,0.00136480201035738,0.00443694181740284,-0.007494888734072447
1772018022168326400,3.227326416015625,-0.002789911814033985,-0.012193157337605953,-0.03425765782594681
1772018022188293400,3.24729345703125,0.0020997701212763786,-0.012136897072196007,-0.01694844663143158
1772018022208260400,3.26726025390625,0.006454186514019966,-0.00786765106022358,0.022975271567702293
1772018022228228400,3.287228271484375,0.0055545237846672535,0.006945556029677391,0.03157688304781914
1772018022248195300,3.3071953125,-0.0015217522159218788,0.018681753426790237,0.012600925751030445
1772018022268163300,3.327163330078125,-0.0017024795524775982,-0.004609751980751753,-0.014204593375325203
1772018022288130600,3.347130615234375,-0.0042482963763177395,-0.01082287635654211,-0.02188115008175373
1772018022308098300,3.367098388671875,-0.0004376065917313099,0.0055009666830301285,0.00586006511002779
1772018022328065300,3.387065185546875,-0.002032059710472822,0.008030612021684647,0.010293961502611637
1772018022348032500,3.407032470703125,-0.0029162107966840267,0.0021190186962485313,-0.013207902200520039
1772018022368000500,3.42700048828125,-0.003923941869288683,-0.010042393580079079,-0.02296505682170391
1772018022387967200,3.44696728515625,-0.006087522022426128,-0.0019101700745522976,-0.026316514238715172
1772018022407935500,3.466935546875,-0.006770649924874306,-0.005733941216021776,-0.02326652966439724
1772018022427902500,3.48690234375,-0.007337113376706839,-0.009852432645857334,-0.018510790541768074
1772018022447869200,3.506869140625,-0.002218324225395918,0.0010563042014837265,-0.004100959748029709
1772018022467837400,3.52683740234375,-0.006173402536660433,0.0026706187054514885,0.008623623289167881
1772018022487803400,3.546803466796875,-0.0015990855172276497,0.005048659630119801,0.004076011478900909
1772018022507771400,3.566771484375,-0.010375292971730232,0.00025762710720300674,-0.005886475555598736
1772018022527738600,3.586738525390625,-0.0067112441174685955,-0.004295743070542812,-0.0011159527348354459
1772018022547706600,3.60670654296875,-0.001886917743831873,-0.014345001429319382,-0.0033773756586015224
1772018022567673300,3.62667333984375,-0.0021117250435054302,-0.010144847445189953,-0.009897327050566673
1772018022587640600,3.646640625,-0.008562523871660233,0.00007856450974941254,-0.02209833636879921
1772018022607608600,3.666608642578125,-0.005356245674192905,-0.005869762506335974,-0.021445192396640778
1772018022627575600,3.686575439453125,0.0015399826224893332,0.003931996412575245,0.00030976918060332537
1772018022647543600,3.70654345703125,-0.0061793639324605465,-0.004790196195244789,-0.013255305588245392
1772018022667510500,3.726510498046875,-0.0051211342215538025,-0.0272877998650074,-0.03744586557149887
1772018022687477500,3.7464775390625,-0.0034447372891008854,-0.022070594131946564,-0.025819173082709312
1772018022707445500,3.766445556640625,-0.0019471049308776855,-0.001015880610793829,-0.0033384934067726135
1772018022727412500,3.78641259765625,-0.002396132331341505,0.002681293524801731,-0.01146965753287077
1772018022747380500,3.80638037109375,-0.005645271856337786,0.00012171454727649689,-0.012070335447788239
1772018022767347500,3.826347412109375,-0.009289724752306938,-0.006632313132286072,-0.012609223835170269
1772018022787314400,3.846314453125,-0.007423482369631529,-0.004426260013133287,-0.005615366622805595
1772018022807282400,3.866282470703125,-0.004004204645752907,-0.0021664691157639027,-0.003298281691968441
1772018022827249400,3.88624951171875,-0.007271039765328169,-0.009494765661656857,-0.01585974544286728
1772018022847217700,3.9062177734375,-0.011212600395083427,-0.016284244135022163,-0.013202312402427197
1772018022867184600,3.9261845703125,-0.011123880743980408,-0.01719139888882637,0.004534874111413956
1772018022887151400,3.9461513671875,-0.0061510237865149975,-0.007213258184492588,0.01685798540711403
1772018022907119600,3.96611962890625,-0.005870703142136335,0.0067247794941067696,0.004605184309184551
1772018022927086600,3.986086669921875,-0.00598158361390233,-0.015781786292791367,-0.017965108156204224
1772018022947054600,4.0060546875,-0.006822983268648386,-0.028956735506653786,-0.025454718619585037
1772018022967021600,4.026021484375,-0.008330978453159332,-0.029486849904060364,-0.017105571925640106
1772018022986989600,4.045989501953125,-0.00957481935620308,-0.0013630110770463943,0.0013546580448746681
1772018023006956500,4.06595654296875,-0.012367862276732922,-0.003122277557849884,-0.0013863984495401382
1772018023026923500,4.085923583984375,-0.01321183517575264,-0.009833003394305706,-0.012521874159574509
1772018023046891500,4.1058916015625,-0.007244408596307039,-0.007595399394631386,-0.01153636910021305
1772018023066858500,4.1258583984375,-0.008038921281695366,0.011825507506728172,-0.001356172258965671
1772018023086826500,4.145826416015625,-0.010479431599378586,0.0036809416487812996,-0.0003821210702881217
1772018023106793700,4.165793701171875,-0.006253913510590792,-0.014446993358433247,0.003096238011494279
1772018023126760400,4.185760498046875,-0.0006518173031508923,-0.011155969463288784,0.005509590730071068
1772018023146728400,4.205728515625,-0.005765511654317379,-0.006134354509413242,-0.01704312488436699
1772018023166695700,4.22569580078125,-0.008700750768184662,-0.013709865510463715,-0.03007650189101696
1772018023186663700,4.24566357421875,-0.010450651869177818,-0.02807876095175743,-0.015346689149737358
1772018023206630400,4.26563037109375,-0.001400119625031948,-0.016359955072402954,0.00627618283033371
1772018023226597600,4.28559765625,-0.0035751601681113243,0.001749889925122261,0.003497972385957837
1772018023246565600,4.305565673828125,-0.0025506685487926006,0.015116022899746895,-0.008550302125513554
1772018023266532400,4.325532470703125,-0.007077545393258333,0.00833249930292368,-0.019220523536205292
1772018023286500400,4.345500244140625,-0.005042944103479385,0.001006660982966423,-0.013003375381231308
1772018023306467600,4.365467529296875,0.0023629178758710623,0.001692105084657669,0.010779721662402153
1772018023326434600,4.3854345703125,0.00011328142136335373,0.004185431636869907,0.01704760268330574
1772018023346402600,4.405402587890625,0.0024259446654468775,-0.01098101120442152,-0.005270087625831366
1772018023366369500,4.42536962890625,-0.001973534468561411,-0.010270554572343826,-0.010668446309864521
1772018023386337500,4.445337646484375,0.003080336842685938,-0.0012332974001765251,0.00424272520467639
1772018023406304500,4.465304443359375,0.010205037891864777,-0.00351856742054224,0.008519760333001614
1772018023426271500,4.485271484375,0.0057556768879294395,-0.01742515340447426,-0.0051084342412650585
1772018023446239500,4.505239501953125,0.0010470226407051086,-0.0029231589287519455,-0.0063157761469483376
1772018023466206500,4.52520654296875,-0.0010822196491062641,0.012105227448046207,0.002951357513666153
1772018023486174000,4.545174072265625,0.00011851126328110695,0.009425616823136806,0.01018370222300291
1772018023506140700,4.565140625,-0.003945082426071167,0.02007279172539711,0.007758097257465124
1772018023526108000,4.58510791015625,0.0015425917226821184,0.0032033445313572884,-0.002260981360450387
1772018023546076000,4.605075927734375,0.0032174536027014256,-0.01424036081880331,-0.003713469486683607
1772018023566043000,4.62504296875,0.005057743284851313,-0.004340759478509426,0.021212786436080933
1772018023586011000,4.645010986328125,0.003560655051842332,-0.0031933244317770004,0.023761430755257607
1772018023605977900,4.664977783203125,0.008424688130617142,-0.0013970998115837574,0.0030755929183214903
1772018023625944800,4.68494482421875,0.00796506181359291,0.017013784497976303,-0.020347706973552704
1772018023645912800,4.704912841796875,0.004832714796066284,0.023143775761127472,-0.022830704227089882
1772018023665879800,4.7248798828125,0.006471970118582249,0.005723188631236553,-0.013304447755217552
1772018023685847800,4.744847900390625,0.011272192932665348,0.0067420657724142075,-0.010892152786254883
1772018023705814800,4.764814697265625,0.009704133495688438,-0.008398625068366528,-0.01512165181338787
1772018023725782800,4.78478271484375,0.0072209034115076065,-0.0024039633572101593,-0.010724109597504139
1772018023745749800,4.804749755859375,0.00390985794365406,0.0021774014458060265,0.011188780888915062
1772018023765716700,4.824716796875,-0.0009855469688773155,0.006800476461648941,0.019923683255910873
1772018023785684700,4.844684814453125,0.0003610197454690933,0.009719670750200748,-0.0025075883604586124
1772018023805652000,4.86465185546875,0.003549035405740142,0.009471718221902847,-0.017141127958893776
1772018023825618700,4.88461865234375,0.008075219579041004,-0.0005394928157329559,-0.005258904304355383
1772018023845586700,4.904586669921875,0.004605431109666824,-0.01192333735525608,0.022205345332622528
1772018023865554000,4.924553955078125,0.006592726334929466,-0.005808087065815926,0.02484387345612049
1772018023885522000,4.94452197265625,0.007975377142429352,0.008021247573196888,-0.0029255752451717854
1772018023905488600,4.964488525390625,0.0004062294028699398,0.014234337955713272,-0.017183871939778328
1772018023925456000,4.984455810546875,0.0019417465664446354,-0.00207132613286376,-0.012100031599402428
1772018023945424000,5.004423828125,0.0011383779346942902,0.00739224161952734,-0.000518473912961781
1772018023965390800,5.024390869140625,0.005769232288002968,0.026915136724710464,-0.003867268795147538
1772018023985358600,5.044358642578125,0.007164471782743931,0.015266118571162224,-0.0067577301524579525
1772018024005325800,5.064325927734375,0.0077079604379832745,0.010055714286863804,0.0009032506495714188
1772018024025293800,5.0842939453125,0.0049872067756950855,0.002193151041865349,0.00032640877179801464
1772018024045260800,5.1042607421875,0.010989037342369556,0.017424611374735832,0.005080286879092455
1772018024065227800,5.124227783203125,0.010195734910666943,0.02972949668765068,0.0003521122271195054
1772018024085195800,5.14419580078125,0.00789818074554205,0.02068636380136013,-0.015600889921188354
1772018024105162800,5.164162841796875,0.01427164115011692,0.020716898143291473,-0.029917510226368904
1772018024125131000,5.184131103515625,0.005860259290784597,0.015154602937400341,-0.032930079847574234
1772018024145097700,5.20409765625,0.004002242349088192,-0.004096213262528181,-0.016098633408546448
1772018024165064700,5.224064697265625,0.002106942469254136,-0.020313426852226257,0.0022209861781448126
1772018024185033000,5.244032958984375,0.002992061898112297,-0.008645527996122837,-0.00220319302752614
1772018024205000000,5.264,0.005124498624354601,0.014216214418411255,-0.01936127245426178
1772018024224967700,5.2839677734375,0.00829080305993557,0.01757962629199028,-0.014005654491484165
1772018024244935000,5.303934814453125,0.007476940751075745,0.01093104388564825,0.0013482682406902313
1772018024264900900,5.32390087890625,0.004323082510381937,0.00681304931640625,-0.004453431814908981
1772018024284868600,5.34386865234375,0.0013899749610573053,-0.002195242326706648,-0.02306905761361122
1772018024304835800,5.3638359375,0.0003838054835796356,0.008359923958778381,-0.010799210518598557
1772018024324803800,5.383803955078125,-0.0011251061223447323,0.0024542827159166336,0.004904652945697308
1772018024344770800,5.403770751953125,0.0008256155997514725,0.002894403412938118,-0.001969899283722043
1772018024364737800,5.42373779296875,0.002346502849832177,-0.0030325637198984623,-0.026376573368906975
1772018024384705800,5.443705810546875,0.006697335280478001,-0.00266770226880908,-0.04089759290218353
1772018024404672800,5.4636728515625,0.007475493475794792,0.0019764890894293785,-0.01664125546813011
1772018024424640800,5.483640869140625,0.01296181045472622,0.0029078666120767593,0.005302525591105223
1772018024444607700,5.503607666015625,0.009716827422380447,0.01125157531350851,0.010428447276353836
1772018024464574700,5.52357470703125,0.01064363308250904,0.0019635437056422234,-0.00395914725959301
1772018024484543200,5.543543212890625,0.007982115261256695,0.0002642795443534851,-0.005245852284133434
1772018024504510200,5.56351025390625,0.006486998870968819,-0.004813929088413715,-0.010900276713073254
1772018024524478200,5.583478271484375,0.00359475240111351,-0.021963102743029594,0.001036542933434248
1772018024544445200,5.603445068359375,0.00643503200262785,-0.01463185902684927,0.013447140343487263
1772018024564412400,5.623412353515625,0.003787796711549163,-0.0009863711893558502,-0.00006787083111703396
1772018024584380400,5.64338037109375,0.0022789204958826303,-0.010754735209047794,-0.007169720716774464
1772018024604347100,5.66334716796875,0.0069023724645376205,0.004867970012128353,-0.003951425198465586
1772018024624315100,5.683315185546875,0.004105477128177881,0.004373850300908089,-0.011719467118382454
1772018024644282400,5.703282470703125,0.003403803799301386,-0.023468853905797005,-0.008496508002281189
1772018024664250400,5.72325048828125,0.002768205478787422,-0.026499949395656586,0.0005442600231617689
1772018024684218000,5.743218017578125,0.00623138016089797,-0.006472446955740452,0.00867835246026516
1772018024704185300,5.763185302734375,0.0041203987784683704,0.0026214048266410828,0.013486153446137905
1772018024724153300,5.7831533203125,-0.001067128498107195,0.004570142365992069,0.016189662739634514
1772018024744120300,5.803120361328125,-0.004229055251926184,-0.0020812656730413437,0.006930251605808735
1772018024764087300,5.82308740234375,-0.0014116703532636166,0.003158244304358959,0.001675702864304185
1772018024784055300,5.84305517578125,-0.00022919103503227234,-0.0012775980867445469,-0.0065233707427978516
1772018024804022300,5.863022216796875,-0.003785202745348215,-0.012623509392142296,-0.011976994574069977
1772018024823990300,5.882990234375,-0.0013008746318519115,-0.005978084169328213,-0.0032395601738244295
1772018024843957200,5.902957275390625,-0.004082262050360441,-0.006770280189812183,0.003300364827737212
1772018024863924200,5.92292431640625,0.0005182952154427767,-0.007780430372804403,0.004872427321970463
1772018024883892200,5.942892333984375,0.0017764987424015999,-0.013162562623620033,0.0019765093456953764
1772018024903859500,5.962859375,-0.0007788771763443947,0.002709241583943367,0.012148983776569366
1772018024923827200,5.9828271484375,-0.0006215199828147888,0.0007681436836719513,0.014361003413796425
1772018024943794200,6.002794189453125,0.0009236638434231281,0.00012508220970630646,0.002761340467259288
1772018024963761400,6.022761474609375,-0.00047509046271443367,-0.004624326713383198,-0.0232421662658453
1772018024983729400,6.0427294921875,-0.003940315451472998,-0.001268988475203514,-0.014281025156378746
1772018025003696000,6.062696044921875,0.0006074758712202311,-0.00866718590259552,0.005792282521724701
1772018025023664000,6.0826640625,0.003511786926537752,-0.001386602409183979,0.0043604373931884766
1772018025043631400,6.10263134765625,-0.005367770325392485,0.00296810083091259,-0.009113161824643612
1772018025063598300,6.122598388671875,0.00031926902011036873,-0.0005706604570150375,-0.004775408189743757
1772018025083566000,6.142566162109375,0.0030128606595098972,0.00971005205065012,0.0020611940417438745
1772018025103533300,6.162533203125,0.0031899346504360437,0.011884246952831745,-0.012562090530991554
1772018025123501300,6.182501220703125,-0.003426663111895323,-0.0039927102625370026,-0.02188994362950325
1772018025143468300,6.20246826171875,-0.002011875156313181,-0.014427303336560726,-0.005351578816771507
1772018025163435300,6.222435302734375,0.0037707784213125706,-0.010424871928989887,0.01915123127400875
1772018025183403300,6.2424033203125,0.004696520511060953,0.0007457658648490906,0.004972162656486034
1772018025203370200,6.262370361328125,0.0017116493545472622,0.012752361595630646,-0.016736328601837158
1772018025223338200,6.282338134765625,-0.005402584560215473,0.018309608101844788,-0.0005305904196575284
1772018025243305200,6.30230517578125,-0.00300604198127985,0.011814507655799389,0.011517549864947796
1772018025263272200,6.322272216796875,0.0014326213859021664,-0.0027196998707950115,-0.009151644073426723
1772018025283240200,6.342240234375,0.0021492152009159327,-0.00017151329666376114,-0.013747862540185452
1772018025303207200,6.362207275390625,0.002415842143818736,0.0015375372022390366,0.009580232203006744
1772018025323175200,6.382175048828125,-0.004913957789540291,-0.0010909107513725758,0.016390733420848846
1772018025343142100,6.40214208984375,-0.0017796019092202187,-0.0014919671230018139,-0.017358573153614998
1772018025363109400,6.422109375,-0.003311090636998415,0.0016567390412092209,-0.02819005213677883
1772018025383077400,6.442077392578125,-0.0003475337289273739,0.011165373958647251,0.00032428023405373096
1772018025403044000,6.462044189453125,0.00022027920931577682,0.01639183610677719,0.00771521870046854
1772018025423012400,6.482012451171875,-0.003794870339334011,0.020558729767799377,0.001748009119182825
1772018025442979300,6.501979248046875,-0.0005487981252372265,0.00002361554652452469,-0.0009042342426255345
1772018025462946300,6.5219462890625,0.0022155633196234703,-0.008755494840443134,0.010371057316660881
1772018025482914300,6.541914306640625,-0.00046952394768595695,-0.002279155422002077,0.017012178897857666
1772018025502881300,6.56188134765625,0.0035827946849167347,-0.010947194881737232,0.009212048724293709
1772018025522849000,6.58184912109375,-0.002228159923106432,0.0035467175766825676,-0.006427763029932976
1772018025542816300,6.601816162109375,-0.008141708560287952,0.007041318342089653,-0.004658359102904797
1772018025562783200,6.621783203125,0.0009596797171980143,0.009643678553402424,0.004951925482600927
1772018025582751200,6.641751220703125,-0.004133651964366436,0.023003771901130676,-0.009743930771946907
1772018025602718200,6.66171826171875,-0.011037968099117279,0.011465787887573242,-0.035419732332229614
1772018025622686200,6.681686279296875,-0.015855271369218826,-0.016315044835209846,-0.023074915632605553
1772018025642653200,6.701653076171875,-0.0012917378917336464,-0.024497687816619873,0.0044821444898843765
1772018025662620400,6.721620361328125,-0.002467871643602848,-0.008091302588582039,0.00020177650731056929
1772018025682588200,6.741588134765625,-0.004963199608027935,0.00043428782373666763,-0.007189559750258923
1772018025702555100,6.76155517578125,-0.004361929837614298,0.006793811917304993,0.01698208786547184
1772018025722523100,6.781523193359375,-0.009133782237768173,0.019332505762577057,0.031576476991176605
1772018025742490400,6.801490478515625,-0.012773415073752403,0.0034241368994116783,0.000023347092792391777
1772018025762457000,6.82145703125,-0.011103099212050438,-0.002971271052956581,-0.027135835960507393
1772018025782425000,6.841425048828125,-0.008154721930623055,-0.003013527486473322,-0.012886726297438145
1772018025802392300,6.861392333984375,-0.009177036583423615,-0.0007878215983510017,0.002193691208958626
1772018025822360300,6.8813603515625,-0.013163568452000618,-0.015209734439849854,0.002278511878103018
1772018025842327000,6.9013271484375,-0.016819849610328674,-0.010019505396485329,-0.01782822236418724
1772018025862295000,6.921294921875,-0.010994764044880867,-0.0005523320287466049,-0.026186686009168625
1772018025882262300,6.94126220703125,-0.010881347581744194,0.007941100746393204,-0.009892936795949936
1772018025902229200,6.961229248046875,-0.008088914677500725,-0.004160279408097267,0.012298655696213245
1772018025922197000,6.981197021484375,-0.010065503418445587,0.0011094966903328896,0.017618453130126
1772018025942164200,7.001164306640625,-0.004129656590521336,0.0006744991987943649,0.001226694555953145
1772018025962132200,7.02113232421875,-0.008437898010015488,0.002943413332104683,-0.019094957038760185
1772018025982099200,7.04109912109375,-0.0061793820932507515,-0.012202396057546139,-0.008817414753139019
1772018026002066200,7.061066162109375,-0.0031882748007774353,-0.008226417005062103,0.021835431456565857
1772018026022034200,7.0810341796875,-0.00666787987574935,0.004899788647890091,0.023066213354468346
1772018026042001200,7.101001220703125,-0.0035724323242902756,0.00329737551510334,0.0006003219168633223
1772018026061969400,7.120969482421875,-0.0010076244361698627,0.00475970096886158,-0.012127060443162918
1772018026081936100,7.14093603515625,-0.0056189498864114285,-0.0023330207914114,-0.02173880860209465
1772018026101903000,7.160903076171875,-0.01081460528075695,-0.006564571987837553,-0.020511487498879433
1772018026121871400,7.180871337890625,-0.012627104297280312,0.006949057802557945,-0.008609027601778507
1772018026141838300,7.20083837890625,-0.008239943534135818,0.016175348311662674,-0.0039262548089027405
1772018026161806000,7.22080615234375,-0.0017165765166282654,0.0036216406151652336,0.007980871014297009
1772018026181773300,7.240773193359375,0.0018598835449665785,0.007357098162174225,0.020256048068404198
1772018026201740300,7.260740234375,-0.00202932208776474,0.0034743081778287888,0.012361375615000725
1772018026221708300,7.280708251953125,-0.0017676814459264278,0.007427834905683994,0.003639785572886467
1772018026241675300,7.30067529296875,0.007355068810284138,-0.0035907989367842674,0.012977096252143383
1772018026261643300,7.320643310546875,0.008494515903294086,-0.021320726722478867,0.017261987552046776
1772018026281610200,7.3406103515625,-0.002593169454485178,-0.010615685023367405,0.01564318686723709
1772018026301577200,7.3605771484375,-0.003297373652458191,0.000940379686653614,0.011502636596560478
1772018026321545200,7.380545166015625,0.0022228446323424578,0.0006531178951263428,0.007325734943151474
1772018026341512200,7.40051220703125,0.006096109747886658,-0.0019657528027892113,0.0077952491119503975
1772018026361480200,7.420480224609375,0.00966318417340517,-0.00499091949313879,0.005906536243855953
1772018026381447200,7.440447265625,0.01014943141490221,-0.012433754280209541,0.0029569510370492935
1772018026401415200,7.460415283203125,0.007285045925527811,-0.007899437099695206,0.0011742340866476297
1772018026421382100,7.480382080078125,0.0007086927071213722,0.0034616151824593544,0.0034933164715766907
1772018026441349400,7.500349365234375,0.00010692654177546501,0.004352064803242683,0.007022665813565254
1772018026461317400,7.5203173828125,0.0008633474353700876,0.00355419609695673,0.013560861349105835
1772018026481284000,7.5402841796875,0.004178468603640795,0.01302075944840908,-0.006011773832142353
1772018026501252400,7.56025244140625,0.0007017876487225294,0.011055976152420044,-0.03187266364693642
1772018026521219600,7.580219482421875,0.0014081289991736412,0.0067432234063744545,-0.02146117389202118
1772018026541186300,7.600186279296875,-1.1408701539039612e-7,-0.0010695075616240501,0.018653489649295807
1772018026561154300,7.620154296875,0.004175677429884672,0.012866983190178871,0.022445429116487503
1772018026581121500,7.64012158203125,-0.001196542289108038,0.005735509097576141,-0.016170799732208252
1772018026601089500,7.660089599609375,-0.006816759705543518,0.0011299056932330132,-0.04427221417427063
1772018026621056300,7.68005615234375,-0.0013561495579779148,-0.003327237907797098,-0.021206440404057503
1772018026641024300,7.700024169921875,0.002371476963162422,-0.0056463186629116535,0.026036173105239868
1772018026660991500,7.719991455078125,0.00039385026320815086,0.016518553718924522,0.03440941870212555
1772018026680958500,7.73995849609375,-0.00758691830560565,0.020183764398097992,-0.010346602648496628
1772018026700926200,7.75992626953125,-0.013836788013577461,0.011423744261264801,-0.04386381804943085
1772018026720893400,7.7798935546875,-0.008150985464453697,0.009373280219733715,-0.013236265629529953
1772018026740861400,7.799861328125,-0.0018230481073260307,0.01833534985780716,0.0173549335449934
1772018026760828400,7.819828369140625,-0.004274900071322918,0.01629130356013775,0.007747449446469545
1772018026780795400,7.83979541015625,-0.006224534939974546,0.012599150650203228,-0.025801993906497955
1772018026800763400,7.859763427734375,-0.004636585246771574,0.00834202952682972,-0.0371762178838253
1772018026820730400,7.87973046875,-0.003952741157263517,0.015674501657485962,-0.012592578306794167
1772018026840698400,7.899698486328125,0.002279882784932852,0.01475225668400526,0.010631917044520378
1772018026860665300,7.919665283203125,0.007728582248091698,0.0009282054379582405,0.004038459621369839
1772018026880633300,7.93963330078125,0.009272562339901924,-0.010384165681898594,-0.012330922298133373
1772018026900600300,7.959600341796875,0.007990765385329723,-0.00008021946996450424,-0.0043241288512945175
1772018026920567600,7.979567626953125,0.005641810595989227,-0.0022545214742422104,-0.007669193670153618
1772018026940535300,7.999535400390625,0.00938151404261589,-0.005318829789757729,-0.01652127131819725
1772018026960502300,8.019502197265625,0.006125543266534805,-0.010173060931265354,-0.00944964773952961
1772018026980470500,8.039470458984376,0.0071121882647275925,-0.008010048419237137,0.00495618861168623
1772018027000437500,8.0594375,0.007639686577022076,0.007311015389859676,0.0027785194106400013
1772018027020404200,8.079404296875,0.0022410466335713863,0.016284465789794922,-0.016297832131385803
1772018027040372500,8.09937255859375,0.007664936129003763,0.011634238995611668,-0.019365524873137474
1772018027060339500,8.11933935546875,0.002537373686209321,0.030357394367456436,-0.013300048187375069
1772018027080307500,8.139307373046876,0.0029958346858620644,0.021785851567983627,-0.01998617686331272
1772018027100274400,8.1592744140625,0.006665071472525597,-0.006043833680450916,-0.016260016709566116
1772018027120242400,8.179242431640626,0.01689271256327629,0.0017082775011658669,-0.0071410853415727615
1772018027140209400,8.19920947265625,0.013177337124943733,0.017909351736307144,-0.0014800040517002344
1772018027160176600,8.2191767578125,0.013925278559327126,0.03227921575307846,-0.009170285426080227
1772018027180144400,8.239144287109376,0.011277181096374989,0.030584577471017838,-0.016173595562577248
1772018027200111400,8.259111328125,0.014806557446718216,0.011314197443425655,-0.011129572056233883
1772018027220079400,8.279079345703124,0.014676154591143131,0.014064900577068329,0.00475006178021431
1772018027240046600,8.299046630859374,0.024359894916415215,0.012438413687050343,0.009220309555530548
1772018027260013300,8.319013427734374,0.02649664133787155,-0.004604831803590059,0.016088338568806648
1772018027279981300,8.338981201171874,0.021799273788928986,-0.011792179197072983,0.01774921640753746
1772018027299948500,8.358948486328124,0.01844646781682968,-0.009115158580243587,0.01035095751285553
1772018027319916500,8.37891650390625,0.014263849705457687,-0.0005434313789010048,0.013863530941307545
1772018027339883300,8.39888330078125,0.01562473550438881,0.006892825476825237,0.027124609798192978
1772018027359851300,8.418851318359375,0.013411011546850204,0.0010113362222909927,0.02181440405547619
1772018027379818500,8.438818603515625,0.010336257517337799,-0.008748981170356274,0.007883669808506966
1772018027399785500,8.458785400390624,0.006544705480337143,-0.0008068149909377098,-0.002092398703098297
1772018027419753200,8.478753173828125,0.005604675970971584,0.0011204313486814499,0.00019672350026667118
1772018027439720400,8.498720458984375,-0.0012402655556797981,-0.01587613672018051,0.012246858328580856
1772018027459688400,8.5186884765625,0.002515277825295925,-0.010262555442750454,0.02283305488526821
1772018027479655400,8.538655517578125,0.004063153639435768,0.0008141603320837021,0.014301220886409283
1772018027499623200,8.558623046875,0.003997934050858021,-0.0023978748358786106,-0.005416423082351685
1772018027519590100,8.578590087890625,0.01062767393887043,-0.01053151860833168,-0.01275249756872654
1772018027539556900,8.598556884765625,0.009444033727049828,0.0016328999772667885,0.00017048767767846584
1772018027559525000,8.618525146484375,0.004473346285521984,-0.008001251146197319,0.007426672615110874
1772018027579492000,8.6384921875,0.000027198810130357742,-0.008469968102872372,0.009201936423778534
1772018027599460000,8.658460205078125,0.002109781838953495,-0.006222703959792852,0.017173174768686295
1772018027619427000,8.678427001953125,0.00180158787406981,0.01181949581950903,0.025206467136740685
1772018027639395000,8.69839501953125,0.0057972995564341545,0.011017898097634315,0.014293104410171509
1772018027659362000,8.718362060546875,0.004935462027788162,0.01708173379302025,0.009317785501480103
1772018027679329300,8.738329345703125,-0.0011258632875978947,0.014801537618041039,0.0028328560292720795
1772018027699297000,8.758297119140625,0.002369811525568366,-0.0027351989410817623,0.010069330222904682
1772018027719264000,8.778263916015625,0.0002346877008676529,-0.006218262482434511,0.036671511828899384
1772018027739232000,8.79823193359375,-0.0038771750405430794,-0.01990238018333912,0.044975247234106064
1772018027759199200,8.81819921875,-0.011410260573029518,-0.01052157673984766,0.020097196102142334
1772018027779167200,8.838167236328125,-0.014514818787574768,0.007584977895021439,0.005461789667606354
1772018027799134000,8.858134033203125,-0.011013551615178585,0.02705925703048706,-0.006428292952477932
1772018027819101200,8.87810107421875,-0.011529304087162018,0.03000747412443161,-0.010191735811531544
1772018027839069200,8.898069091796875,-0.00472654402256012,0.007178233936429024,-0.006538944318890572
1772018027859036000,8.918035888671875,-0.00766644487157464,0.012090520933270454,0.014926132746040821
1772018027879004000,8.93800390625,-0.006740311160683632,0.015226312913000584,0.03239647299051285
1772018027898971100,8.95797119140625,-0.010795164853334427,0.0016065388917922974,0.017078232020139694
1772018027918939100,8.977939208984376,-0.010579857975244522,-0.0024897465482354164,0.0033881233539432287
1772018027938905900,8.99790576171875,-0.005662035662680864,-0.0007283310405910015,0.00672892713919282
1772018027958873000,9.017873046875,-0.002205271739512682,0.012400696985423565,0.014455288648605347
1772018027978841000,9.037841064453126,-0.007046555168926716,0.015290584415197372,0.008862387388944626
1772018027998808000,9.05780810546875,-0.0007986566051840782,0.0046709561720490456,-0.0018902637530118227
1772018028018776000,9.077776123046876,0.001404015114530921,0.009424695745110512,0.00017435115296393633
1772018028038743000,9.097742919921876,-0.002010575495660305,0.012500655837357044,0.014669142663478851
1772018028058711000,9.1177109375,-0.008192827925086021,-0.003994786646217108,0.01023591123521328
1772018028078678000,9.137677978515624,-0.0086501594632864,-0.015081707388162613,0.013546616770327091
1772018028098645000,9.15764501953125,-0.007493510842323303,-0.002244291827082634,0.02874021790921688
1772018028118613000,9.177613037109374,-0.0024724253453314304,0.01784535124897957,0.017692627385258675
1772018028138580000,9.197580078125,-0.002959545236080885,0.029802672564983368,-0.0060722255147993565
1772018028158548200,9.21754833984375,-0.012896513566374779,0.022142894566059113,-0.01567891053855419
1772018028178515000,9.237514892578124,-0.008417390286922455,-0.001726042479276657,0.012423163279891014
1772018028198483000,9.25748291015625,0.004411304835230112,0.0017373086884617805,0.03009510226547718
1772018028218450200,9.2774501953125,0.0026532947085797787,0.006099826656281948,0.007897119037806988
1772018028238417200,9.297417236328124,-0.0029182382859289646,-0.000713154673576355,-0.023392491042613983
1772018028258384000,9.3173837890625,-0.0018500634469091892,-0.002979861106723547,-0.007426575757563114
1772018028278351000,9.33735107421875,-0.008989179506897926,0.006296818144619465,0.03835343196988106
1772018028298319000,9.357319091796874,-0.00264416029676795,0.0057081738486886024,0.04048475995659828
1772018028318286000,9.3772861328125,0.00044692307710647583,-0.0013732635416090488,0.01932687498629093
1772018028338254000,9.397254150390625,0.0006999322213232517,0.005895479582250118,0.004406648688018322
1772018028358221000,9.417220947265625,-0.0010431068949401379,0.009147998876869678,0.007747317664325237
1772018028378189000,9.43718896484375,-0.0043822056613862514,-0.0004380522295832634,-0.007018713280558586
1772018028398156300,9.45715625,-0.006825599353760481,-0.007186497561633587,-0.0168463084846735
1772018028418123000,9.477123046875,-0.0032923640683293343,-0.01327412761747837,-0.009101568721234798
1772018028438091000,9.497091064453125,-0.005241977516561747,0.0019853226840496063,0.007023732643574476
1772018028458058200,9.517058349609375,-0.008908780291676521,0.005535684525966644,0.017434164881706238
1772018028478026200,9.537026123046875,-0.006883704103529453,-0.017549216747283936,0.006248490884900093
1772018028497993000,9.556992919921875,-0.0019238516688346863,-0.014075213111937046,-0.020690184086561203
1772018028517960700,9.576960693359375,-0.0032868576236069202,0.004792749881744385,-0.038030825555324554
1772018028537928000,9.596927978515625,-0.007394725922495127,-0.010559569112956524,-0.025756845250725746
1772018028557895000,9.61689501953125,-0.0019727875478565693,-0.021872233599424362,0.014379254542291164
1772018028577863000,9.63686279296875,0.0018505142070353031,-0.025348275899887085,0.02320963516831398
1772018028597830000,9.656829833984375,-0.0003272579051554203,0.0012211874127388,0.003964430186897516
1772018028617798000,9.6767978515625,-0.004051413852721453,0.0045010484755039215,-0.012857293710112572
1772018028637764900,9.696764892578125,-0.0042913733050227165,-0.0001844288781285286,-0.015334432944655418
1772018028657735000,9.71673486328125,-0.0023287152871489525,-0.0156688429415226,-0.002586939837783575
1772018028677703000,9.736702880859376,0.0001873411238193512,-0.001798743847757578,0.0027827885933220387
1772018028697670000,9.756669921875,-0.0008865129202604294,-0.003963009919971228,-0.009015683084726334
1772018028717638000,9.776637939453124,0.0006776878144592047,-0.0168895460665226,-0.012786848470568657
1772018028737604900,9.79660498046875,0.0015103418845683336,-0.016210708767175674,0.006850764621049166
1772018028757572900,9.81657275390625,-0.005910361185669899,-0.007141491398215294,-0.0005392339080572128
1772018028777540000,9.8365400390625,-0.0007087932899594307,-0.005611502565443516,-0.010988682508468628
1772018028797508000,9.856508056640624,-0.0022415569983422756,-0.005914842709898949,-0.0009565595537424088
1772018028817474800,9.876474853515624,0.0020816868636757135,-0.012677046470344067,0.009092351421713829
1772018028837442000,9.896442138671874,0.0010973047465085983,-0.01451525092124939,0.009006594307720661
1772018028857410000,9.91641015625,-0.0010450915433466434,0.00558336079120636,0.016884494572877884
1772018028877376800,9.936376708984374,-0.003212051000446081,0.0015159938484430313,0.03080669604241848
1772018028897344800,9.9563447265625,-0.0006904941983520985,-0.007779407314956188,0.01912607252597809
1772018028917312000,9.97631201171875,0.0065070511773228645,-0.016273556277155876,-0.0012150149559602141
1772018028937280000,9.996280029296875,-0.003615425433963537,-0.007617663126438856,-0.009970558807253838
1772018028957247000,10.0162470703125,-0.00881286896765232,0.008589711971580982,0.012146193534135818
1772018028977214000,10.0362138671875,0.0029411478899419308,0.004889962263405323,0.033929791301488876
1772018028997182000,10.056181884765625,-0.003199105616658926,0.007569459266960621,0.009054666385054588
1772018029017149000,10.07614892578125,-0.01015937328338623,-0.00311958696693182,-0.020648902282118797
1772018029037117000,10.096116943359375,-0.009175344370305538,-0.012370787560939789,-0.005871156230568886
1772018029057084000,10.116083984375,-0.0028165248222649097,-0.019789468497037888,0.027923159301280975
1772018029077052000,10.136052001953125,-0.00043707434087991714,-0.017140163108706474,0.02887750044465065
1772018029097019000,10.156018798828125,-0.0022460278123617172,-0.005006433930248022,0.008420698344707489
1772018029116985900,10.17598583984375,-0.0023797848261892796,-0.012010997161269188,0.009796086698770523
1772018029136953900,10.195953857421875,-0.0029016202315688133,-0.008147276006639004,0.02143556997179985
1772018029156920800,10.2159208984375,-0.004095897078514099,-0.006398116238415241,0.011187455616891384
1772018029176888800,10.235888916015625,-0.009764188900589943,-0.004007752984762192,-0.0022407358046621084
1772018029196856000,10.25585595703125,-0.00828596018254757,-0.011311733163893223,-0.0022340717259794474
1772018029216823800,10.27582373046875,-0.00349250715225935,-0.022719383239746094,0.0000164335360750556
1772018029236790800,10.295790771484375,-0.007900441065430641,-0.009757335297763348,0.0011120529379695654
1772018029256758000,10.315758056640625,-0.009960738942027092,-0.006531010381877422,0.0027930380310863256
1772018029276726000,10.33572607421875,-0.0021449667401611805,0.004345433786511421,0.011207036674022675
1772018029296692700,10.355692626953125,-0.004791829269379377,0.00016648322343826294,0.010880524292588234
1772018029316661000,10.375660888671876,-0.006797902751713991,-0.007827786728739738,0.002101017627865076
1772018029336628000,10.3956279296875,-0.009868893772363663,-0.012294085696339607,-0.0014826591359451413
1772018029356596000,10.415595947265626,-0.0031866366043686867,-0.009700965136289597,0.018215538933873177
1772018029376563000,10.43556298828125,0.00026564812287688255,0.003065965138375759,0.02736523002386093
1772018029396531000,10.455531005859376,-0.00817398726940155,-0.0009272727183997631,0.007222941145300865
1772018029416498000,10.475497802734376,-0.00697233946993947,-0.02161657065153122,-0.014318701811134815
1772018029436465000,10.49546484375,-0.007586367428302765,-0.010410606861114502,-0.006599526386708021
1772018029456433000,10.515432861328126,-0.005033510271459818,-0.015570303425192833,0.01622336357831955
1772018029476399900,10.53539990234375,-0.0007349210791289806,0.0013856859877705574,0.031003907322883606
1772018029496368400,10.555368408203124,-0.006405115593224764,0.014215727336704731,0.004105711355805397
1772018029516335400,10.57533544921875,-0.013825185596942902,0.008819898590445518,-0.02268102765083313
1772018029536303400,10.595303466796874,-0.007521236315369606,-0.021524515002965927,-0.023739369586110115
1772018029556270300,10.615270263671874,-0.00407079653814435,-0.022071968764066696,0.00763253727927804
1772018029576237300,10.6352373046875,0.0003142058849334717,-0.013864817097783089,0.0223410464823246
1772018029596205300,10.655205322265624,-0.005001493729650974,0.014750848524272442,0.004099324345588684
1772018029616172300,10.67517236328125,-0.005254058167338371,0.0072115277871489525,-0.010121960192918777
1772018029636140300,10.695140380859375,-0.0034949923865497112,-0.007959345355629921,-0.004659681115299463
1772018029656107500,10.715107421875,-0.0011625760234892368,0.0014757905155420303,0.0035473834723234177
1772018029676075300,10.7350751953125,0.0013022387865930796,0.010908706113696098,-0.004804820753633976
1772018029696042200,10.755042236328125,-0.0017463513650000095,0.011982849799096584,-0.009051365777850151
1772018029716010200,10.77501025390625,-0.005243002437055111,0.010401817969977856,-0.01385117881000042
1772018029735977500,10.7949775390625,0.001914479536935687,0.0033242013305425644,-0.016085172072052956
1772018029755944200,10.814944091796875,-0.00036492012441158295,-0.008426197804510593,-0.031903550028800964
1772018029775912200,10.834912109375,-0.002565213479101658,-0.007252366282045841,-0.04778251424431801
1772018029795879400,10.85487939453125,-0.007108940277248621,0.01652105152606964,-0.04248109459877014
1772018029815847400,10.874847412109375,-0.009900418110191822,0.02721479907631874,-0.0488954521715641
1772018029835814100,10.894814208984375,-0.0022763200104236603,0.041140999644994736,-0.042848214507102966
1772018029855782100,10.9147822265625,-0.012589875608682632,0.02729193866252899,0.08187521249055862
1772018029875749400,10.934749267578125,0.022479142993688583,-0.0163887832313776,0.09939588606357574
1772018029895716400,10.95471630859375,0.009084458462893963,-0.026500094681978226,-0.04635825753211975
1772018029915684000,10.97468408203125,0.005682566203176975,-0.05545611307024956,-0.21879860758781433
1772018029935651300,10.9946513671875,-0.01663212850689888,0.004534075036644936,-0.21140553057193756
1772018029955619300,11.014619384765625,-0.0123662780970335,0.0025188615545630455,-0.06495325267314911
