time,seconds_elapsed,z,y,x
1772018068826113500,0.064113525390625,0.00381784257479012,-0.02387826144695282,0.016416531056165695
1772018068846080300,0.084080322265625,0.006598399952054024,-0.019931018352508545,-0.037746164947748184
1772018068866047500,0.104047607421875,0.0007351571694016457,-0.010703302919864655,-0.06508390605449677
1772018068886014500,0.124014404296875,0.0011586323380470276,0.001171792857348919,-0.06917266547679901
1772018068905982500,0.143982421875,0.005117165856063366,0.016726627945899963,-0.05135052651166916
1772018068925949400,0.163949462890625,0.004517781548202038,-0.02272198349237442,-0.010096442885696888
1772018068945916400,0.18391650390625,0.0023032650351524353,-0.026168830692768097,0.03621034696698189
1772018068965883400,0.20388330078125,-0.07306502014398575,0.09324043244123459,-0.04971680790185928
1772018068985850400,0.223850341796875,-0.05738508701324463,0.05134524777531624,-0.18285967409610748
1772018069005817300,0.2438173828125,-0.03783665969967842,-0.006032153032720089,-0.12395576387643814
1772018069025784600,0.26378466796875,0.0024141010362654924,-0.01174958422780037,0.024070188403129578
1772018069045751300,0.283751220703125,0.01117531955242157,-0.007791420444846153,0.07923770695924759
1772018069065718500,0.303718505859375,0.007444437127560377,-0.03913649171590805,0.04677019268274307
1772018069085685500,0.323685546875,-0.013423478230834007,-0.05144946277141571,0.001849176362156868
1772018069105652200,0.34365234375,-0.01866883412003517,-0.05022848770022392,-0.00409726332873106
1772018069125619500,0.363619384765625,-0.01999456249177456,0.0026201605796813965,0.004323785193264484
1772018069145586400,0.38358642578125,-0.011636785231530666,0.00043162237852811813,0.015384694561362267
1772018069165553400,0.403553466796875,-0.02274370566010475,0.04979218170046806,0.0017813937738537788
1772018069185520400,0.423520263671875,-0.01213049702346325,0.003373599611222744,-0.027938149869441986
1772018069205487600,0.443487548828125,0.0035220193676650524,0.0004135090857744217,-0.057969026267528534
1772018069225454300,0.463454345703125,-0.01379983127117157,-0.010975902900099754,-0.048784565180540085
1772018069245421300,0.48342138671875,-0.000987065490335226,-0.03745139017701149,-0.0353100411593914
1772018069265388500,0.503388427734375,0.0006939712911844254,-0.07055944949388504,-0.044154271483421326
1772018069285355300,0.523355224609375,-0.006167396437376738,-0.021357815712690353,-0.054441794753074646
1772018069305322500,0.543322509765625,0.001225483836606145,-0.01709330826997757,-0.04957646131515503
1772018069325289500,0.56328955078125,-0.005890971515327692,-0.004568825010210276,-0.04543684795498848
1772018069345256400,0.58325634765625,-0.005293663591146469,-0.010078887455165386,-0.05429811403155327
1772018069365223400,0.603223388671875,0.04902738705277443,-0.016775988042354584,-0.023480547592043877
1772018069385190400,0.6231904296875,0.01693073660135269,0.019973300397396088,-0.003335071261972189
1772018069405157400,0.643157470703125,0.013660581782460213,-0.0038046683184802532,0.04849471151828766
1772018069425124400,0.663124267578125,0.012403841130435467,0.004640137776732445,0.07786258310079575
1772018069445091600,0.683091552734375,0.02886008843779564,0.049712710082530975,0.06815535575151443
1772018069465058300,0.703058349609375,0.18043090403079987,0.04412706196308136,0.02311585284769535
1772018069485025300,0.723025390625,0.1934168040752411,0.05217655748128891,0.09705758094787598
1772018069504992500,0.742992431640625,0.05870930105447769,0.05476272851228714,0.1524144560098648
1772018069524959200,0.762959228515625,0.022064635530114174,-0.07072313129901886,0.1801290512084961
1772018069544927200,0.78292724609375,-0.06651890277862549,0.07833351194858551,0.13501575589179993
1772018069564894200,0.802894287109375,-0.1553436815738678,0.12261912226676941,0.016387516632676125
1772018069584861000,0.82286083984375,-0.21572738885879517,0.20977258682250977,-0.06671842187643051
1772018069604828200,0.842828125,-0.2518690526485443,0.2988491356372833,-0.11044727265834808
1772018069624795100,0.862795166015625,-0.2612335681915283,0.3248101472854614,-0.12614886462688446
1772018069644762000,0.88276220703125,-0.22857794165611267,0.20366929471492767,-0.13244177401065826
1772018069664729000,0.90272900390625,-0.1546078324317932,0.02351067028939724,-0.049478448927402496
1772018069684696300,0.9226962890625,-0.09362810105085373,-0.06063917279243469,0.08131005614995956
1772018069704663000,0.9426630859375,-0.047504037618637085,-0.11764746904373169,0.1541561633348465
1772018069724630000,0.962630126953125,-0.03676394745707512,-0.12037668377161026,0.15814624726772308
1772018069744597200,0.98259716796875,-0.03432824835181236,-0.10817155241966248,0.08952257037162781
1772018069764564000,1.00256396484375,-0.008473499678075314,-0.10541228950023651,-0.012334681116044521
1772018069784531200,1.02253125,0.02087826281785965,-0.11130665242671967,-0.06429987400770187
1772018069804498200,1.042498291015625,0.03141985461115837,-0.06665956228971481,-0.04462045058608055
1772018069824465200,1.062465087890625,0.04262929409742355,-0.039695363491773605,0.006048463750630617
1772018069844432100,1.08243212890625,0.061672598123550415,-0.04543810337781906,0.03915886580944061
1772018069864399000,1.102399169921875,0.05867302417755127,-0.011951260268688202,0.05095827579498291
1772018069884366000,1.122365966796875,0.04154997318983078,-0.016927801072597504,0.028900908306241035
1772018069904333000,1.1423330078125,0.03226720169186592,-0.02318190038204193,0.0004315907135605812
1772018069924300300,1.16230029296875,0.008241010829806328,-0.008666517212986946,-0.007272807881236076
1772018069944267000,1.18226708984375,-0.03031783364713192,0.006188062950968742,0.015274046920239925
1772018069964234200,1.202234130859375,-0.03328857943415642,0.004842741414904594,0.023944498971104622
1772018069984201200,1.222201171875,-0.013215562328696251,-0.028812028467655182,0.014556992799043655
1772018070004168000,1.24216796875,-0.03180010989308357,-0.03990887477993965,0.014943942427635193
1772018070024135200,1.26213525390625,-0.051556289196014404,-0.01960316300392151,0.010789284482598305
1772018070044102100,1.28210205078125,-0.04758468270301819,-0.03318682312965393,-0.005459730513393879
1772018070064069000,1.302069091796875,-0.02961217798292637,-0.037978485226631165,-0.028624290600419044
1772018070084036000,1.3220361328125,-0.011354773305356503,-0.04272786155343056,-0.028998611494898796
1772018070104003000,1.342003173828125,-0.009638920426368713,0.008625388145446777,0.024137845262885094
1772018070123970000,1.361969970703125,-0.004812164232134819,0.02952631190419197,0.05237507075071335
1772018070143937000,1.38193701171875,0.0012409084010869265,0.03356458991765976,0.04213641956448555
1772018070163904300,1.401904296875,-0.005990650039166212,0.040661804378032684,0.026285551488399506
1772018070183871000,1.42187109375,0.0020880161318928003,0.03976239636540413,0.0012577001471072435
1772018070203838200,1.441838134765625,-0.0066789197735488415,0.006657209247350693,-0.0304458886384964
1772018070223805200,1.46180517578125,-0.01022697426378727,-0.012240618467330933,-0.03789449855685234
1772018070243772000,1.48177197265625,-0.006792082916945219,0.002419005148112774,-0.015605161897838116
1772018070263739100,1.5017392578125,-0.00852602906525135,-0.015113133937120438,-0.002609340474009514
1772018070283706000,1.5217060546875,-0.012587837874889374,-0.015327615663409233,-0.02053827978670597
1772018070303673000,1.541673095703125,-0.018743980675935745,0.006312383338809013,-0.038314882665872574
1772018070323640000,1.56164013671875,-0.02510119043290615,0.02248011901974678,-0.024691220372915268
1772018070343607300,1.581607177734375,-0.033897414803504944,0.018135663121938705,0.007461001165211201
1772018070363574000,1.601573974609375,-0.03725326061248779,0.030288122594356537,0.010856131091713905
1772018070383541000,1.621541015625,-0.014086421579122543,0.021963877603411674,-0.009793486446142197
1772018070403508200,1.64150830078125,-0.0041842334903776646,-0.01307697780430317,-0.020615778863430023
1772018070423475000,1.661474853515625,-0.00623094430193305,-0.061484236270189285,-0.02842428907752037
1772018070443442200,1.681442138671875,0.010027165524661541,-0.03807860612869263,-0.03744575381278992
1772018070463409200,1.7014091796875,0.020539727061986923,-0.0054117413237690926,-0.03290799632668495
1772018070483376000,1.721376220703125,0.018005691468715668,-0.01540310401469469,-0.018132638186216354
1772018070503343000,1.741343017578125,0.02485012449324131,-0.006236745044589043,-0.008584421128034592
1772018070523310000,1.76131005859375,0.03448401764035225,-0.013991598971188068,-0.0026523498818278313
1772018070543276800,1.78127685546875,0.036445729434490204,0.01249740645289421,0.014603998512029648
1772018070563243800,1.801243896484375,0.023076636716723442,0.06385145336389542,0.026204731315374374
1772018070583211000,1.8212109375,0.022108275443315506,0.07808873057365417,0.01767076924443245
1772018070603177700,1.841177734375,0.013837328180670738,0.04471858590841293,0.005364563781768084
1772018070623145000,1.86114501953125,0.007046321872621775,0.026643190532922745,0.017021479085087776
1772018070643112000,1.88111181640625,0.004729637876152992,0.01358651090413332,0.01074893493205309
1772018070663079000,1.901078857421875,0.011048237793147564,-0.006521983537822962,-0.017137687653303146
1772018070683046000,1.9210458984375,0.007565355859696865,0.0013790829107165337,-0.020913517102599144
1772018070703012900,1.941012939453125,0.007143168244510889,0.027618445456027985,0.01801658235490322
1772018070722979800,1.960979736328125,0.010716624557971954,0.028328850865364075,0.04745129868388176
1772018070742946800,1.98094677734375,0.0024984199553728104,0.009987830184400082,0.051990918815135956
1772018070762914000,2.0009140625,-0.024965427815914154,0.002576518803834915,0.06588489562273026
1772018070782880800,2.020880859375,-0.04024883359670639,0.012036056257784367,0.06516265869140625
1772018070802847700,2.04084765625,-0.0780414491891861,-0.0020322990603744984,0.027085836976766586
1772018070822815000,2.06081494140625,-0.10983134806156158,-0.051969073712825775,-0.013847213238477707
1772018070842781700,2.08078173828125,-0.1346602737903595,-0.08494167029857635,-0.03547447919845581
1772018070862749000,2.1007490234375,-0.14007548987865448,0.014214218594133854,-0.036654531955718994
1772018070882716000,2.1207158203125,-0.11843547224998474,0.09222674369812012,-0.04783967137336731
1772018070902683000,2.140682861328125,-0.07613518834114075,0.08255994319915771,-0.016275081783533096
1772018070922649900,2.16064990234375,-0.03923758864402771,0.08575206995010376,0.03749466687440872
1772018070942616800,2.180616943359375,-0.009174469858407974,0.06425996124744415,0.043371595442295074
1772018070962583800,2.200583740234375,-0.006195013411343098,-0.0035023759119212627,-0.006788765080273151
1772018070982550800,2.22055078125,-0.02095293067395687,-0.0525033175945282,-0.058344099670648575
1772018071002518000,2.24051806640625,-0.010840864852070808,-0.06636995822191238,-0.10281410068273544
1772018071022484700,2.260484619140625,0.027086522430181503,-0.0587703175842762,-0.12137260288000107
1772018071042452000,2.280451904296875,0.06776236742734909,-0.04650777950882912,-0.07902328670024872
1772018071062419000,2.3004189453125,0.09246186912059784,-0.02563450299203396,-0.011883936822414398
1772018071082385700,2.3203857421875,0.11353008449077606,-0.012588221579790115,0.016431597992777824
1772018071102353000,2.340352783203125,0.1164737269282341,0.006344892084598541,0.02011660672724247
1772018071122320000,2.36031982421875,0.08291491121053696,0.03356398269534111,0.02153128571808338
1772018071142286800,2.380286865234375,0.04371802508831024,0.04936940222978592,0.010551199316978455
1772018071162253800,2.40025390625,0.03245912492275238,0.06738228350877762,-0.007074249908328056
1772018071182221000,2.420220947265625,0.03704899549484253,0.06853237748146057,-0.006672137416899204
1772018071202187800,2.440187744140625,0.04945843666791916,0.022510485723614693,0.02132222428917885
1772018071222154800,2.46015478515625,0.03528910130262375,-0.0314469113945961,0.053732093423604965
1772018071242122000,2.4801220703125,0.001985446084290743,-0.01964099332690239,0.05134683847427368
1772018071262088700,2.500088623046875,-0.017269274219870567,0.022703416645526886,0.013260981999337673
1772018071282056000,2.520055908203125,-0.013626553118228912,0.05536291003227234,-0.01572340540587902
1772018071302023000,2.54002294921875,0.00892326794564724,0.029497211799025536,-0.035415757447481155
1772018071321990000,2.559989990234375,0.060052234679460526,0.004364959895610809,-0.005580096505582333
1772018071341956900,2.579956787109375,0.08851420879364014,0.01875673048198223,0.05831846222281456
1772018071361923800,2.599923828125,0.07687172293663025,0.004750191234052181,0.0815349593758583
1772018071381890800,2.619890869140625,0.06382565945386887,-0.023857545107603073,0.02488952875137329
1772018071401857800,2.63985791015625,0.040890201926231384,-0.03596729412674904,-0.04709317535161972
1772018071421825000,2.659824951171875,-0.0017392951995134354,-0.03449947014451027,-0.06343086808919907
1772018071441791700,2.679791748046875,-0.015364482998847961,-0.020622041076421738,-0.042752236127853394
1772018071461759000,2.699759033203125,-0.002358473837375641,-0.02279149368405342,-0.019232382997870445
1772018071481726000,2.719725830078125,0.012136844918131828,-0.016780737787485123,0.00925891287624836
1772018071501692700,2.739692626953125,0.020795829594135284,0.010352049022912979,0.035990528762340546
1772018071521660000,2.759659912109375,0.019111402332782745,0.004968419671058655,0.04481038078665733
1772018071541627000,2.779626953125,-0.002513970248401165,0.005745669826865196,0.037923574447631836
1772018071561593900,2.79959375,-0.025833651423454285,-0.016829729080200195,0.0030627939850091934
1772018071581560800,2.819560791015625,-0.02288719080388546,-0.037187397480010986,-0.04049146547913551
1772018071601527800,2.83952783203125,0.0008767936378717422,-0.0396919809281826,-0.041421983391046524
1772018071621494800,2.859494873046875,0.02473302185535431,-0.03077714890241623,-0.0057996585965156555
1772018071641461800,2.879461669921875,0.04759497568011284,-0.03398190811276436,0.025978635996580124
1772018071661429000,2.899428955078125,0.0510493665933609,-0.009386629797518253,0.05878465250134468
1772018071681395700,2.919395751953125,0.0362345315515995,0.009040778502821922,0.06606026738882065
1772018071701363000,2.939363037109375,0.021837109699845314,-0.016652965918183327,0.03817525506019592
1772018071721330000,2.959329833984375,0.0016128257848322392,-0.02944185957312584,0.005373494699597359
1772018071741297000,2.979296875,-0.021110080182552338,-0.030562547966837883,-0.00848039984703064
1772018071761263900,2.999263916015625,-0.02397933602333069,-0.048236556351184845,-0.012559568509459496
1772018071781230800,3.01923095703125,-0.022725775837898254,-0.05906672775745392,-0.003565808990970254
1772018071801197800,3.03919775390625,-0.035856254398822784,-0.011311591602861881,0.02728039212524891
1772018071821164800,3.059164794921875,-0.028204696252942085,0.057923540472984314,0.043163079768419266
1772018071841132000,3.079132080078125,-0.006189975421875715,0.056273121386766434,0.03801066800951958
1772018071861098800,3.0990986328125,0.016864294186234474,0.0019530421122908592,0.03557319566607475
1772018071881065700,3.119065673828125,0.006391269154846668,0.0003018015995621681,0.043590132147073746
1772018071901033000,3.139032958984375,-0.01162305660545826,-0.00955296866595745,0.024277539923787117
1772018071920999700,3.158999755859375,-0.013890152797102928,-0.05819506198167801,-0.01646270789206028
1772018071940967000,3.178966796875,-0.014170421287417412,-0.07122574746608734,-0.0411178357899189
1772018071960934000,3.198933837890625,-0.01689724251627922,-0.03930067643523216,-0.05033370479941368
1772018071980900900,3.21890087890625,-0.014705470763146877,0.0032860897481441498,-0.028970889747142792
1772018072000867800,3.238867919921875,-0.009371892549097538,0.022254042327404022,0.019654959440231323
1772018072020834800,3.258834716796875,0.010707809589803219,0.014920760877430439,0.05333276093006134
1772018072040801800,3.2788017578125,0.02370402403175831,-0.013505129143595695,0.062270861119031906
1772018072060768800,3.298768798828125,0.0055822948925197124,-0.03549695014953613,0.058979593217372894
1772018072080734700,3.318734619140625,-0.028161874040961266,-0.0058879368007183075,0.044982828199863434
1772018072100702700,3.33870263671875,-0.04551934450864792,-0.021677108481526375,0.023726414889097214
1772018072120670000,3.358669921875,-0.05614633858203888,0.0009346092119812965,0.03280844911932945
1772018072140635600,3.3786357421875,-0.05000856891274452,0.042871639132499695,0.05648941174149513
1772018072160603000,3.398602783203125,-0.018214663490653038,0.04535632207989693,0.06845498830080032
1772018072180569900,3.41856982421875,-0.009761068969964981,0.009108609519898891,0.07601571083068848
1772018072200536800,3.438536865234375,-0.02261689119040966,-0.03337119519710541,0.06238671764731407
1772018072220503800,3.45850390625,-0.035073865205049515,-0.058890387415885925,0.00982670672237873
1772018072240470800,3.478470703125,-0.042509693652391434,-0.06810175627470016,-0.033137671649456024
1772018072260437800,3.498437744140625,-0.03380784019827843,-0.013420619070529938,-0.015750419348478317
1772018072280404700,3.51840478515625,-0.005570518784224987,0.026172664016485214,0.035793986171483994
1772018072300372000,3.5383720703125,0.011999132111668587,0.011830528266727924,0.07208354771137238
1772018072320338700,3.558338623046875,0.04115302860736847,0.038090549409389496,0.06771156936883926
1772018072340306000,3.578305908203125,0.04477761313319206,0.02192005142569542,0.0656561404466629
1772018072360273000,3.59827294921875,0.03370312973856926,0.030859138816595078,0.053494684398174286
1772018072380240000,3.618239990234375,0.03145132213830948,0.020445283502340317,0.03890736773610115
1772018072400206800,3.638206787109375,0.018718624487519264,-0.0062720030546188354,0.025956392288208008
1772018072420173800,3.658173828125,0.003432509256526828,-0.000834194477647543,0.02435465157032013
1772018072440141000,3.67814111328125,-0.018262382596731186,0.015432688407599926,0.020929954946041107
1772018072460107800,3.698107666015625,-0.028310753405094147,0.040111325681209564,0.031601376831531525
1772018072480075000,3.718074951171875,-0.02556740678846836,0.04317018389701843,0.03549358248710632
1772018072500042000,3.7380419921875,-0.023371191695332527,0.006115502677857876,0.01731072925031185
1772018072520008700,3.7580087890625,-0.017754817381501198,0.009110020473599434,-0.0050917863845825195
1772018072539976200,3.77797607421875,0.008427578024566174,0.04285086691379547,-0.012148239649832249
1772018072559943200,3.797943115234375,0.029239898547530174,0.011518750339746475,-0.005524822510778904
1772018072579910100,3.81791015625,0.023423239588737488,-0.02555973082780838,0.0034163487143814564
1772018072599877000,3.837877197265625,0.0282936729490757,-0.03551366180181503,-0.004818684421479702
1772018072619844000,3.857843994140625,0.05223969370126724,-0.010659719817340374,-0.021321218460798264
1772018072639811000,3.87781103515625,0.058800745755434036,0.009325508959591389,-0.017136074602603912
1772018072659778000,3.897778076171875,0.045284636318683624,0.004951552487909794,-0.000010479474440217018
1772018072679745300,3.917745361328125,0.02585388720035553,-0.014328144490718842,0.005181627348065376
1772018072699712000,3.9377119140625,0.004398730583488941,0.004021951928734779,0.00867089070379734
1772018072719679200,3.95767919921875,-0.018833575770258904,0.0247295293956995,0.0029261799063533545
1772018072739646200,3.977646240234375,-0.016926314681768417,0.009811841882765293,-0.020368076860904694
1772018072759613000,3.997613037109375,-0.023263288661837578,0.009668592363595963,-0.025518232956528664
1772018072779580200,4.017580078125,-0.0076588355004787445,0.008274124935269356,-0.02104983665049076
1772018072799547100,4.037547119140625,0.019379276782274246,-0.013828417286276817,-0.022643355652689934
1772018072819514000,4.05751416015625,0.011649154126644135,-0.034360118210315704,-0.01526239886879921
1772018072839481000,4.077481201171875,0.0019459209870547056,-0.029174063354730606,-0.03171074762940407
1772018072859448300,4.0974482421875,0.014468132518231869,-0.043332625180482864,-0.058616798371076584
1772018072879415000,4.1174150390625,0.016276657581329346,-0.049879077821969986,-0.06150699406862259
1772018072899382000,4.137382080078125,0.017771271988749504,0.0021959301084280014,-0.03105388768017292
1772018072919349200,4.157349365234375,0.021719880402088165,0.012434522621333599,-0.011469922959804535
1772018072939315200,4.177315185546875,0.01807432994246483,0.010053480044007301,0.0010119061917066574
1772018072959282200,4.1972822265625,0.016309402883052826,0.00645039975643158,-0.018947012722492218
1772018072979249000,4.217248779296875,0.02967684715986252,-0.007460226770490408,-0.04246232286095619
1772018072999216000,4.237216064453125,0.029171433299779892,-0.035598911345005035,-0.04089319705963135
1772018073019183000,4.25718310546875,0.029426254332065582,-0.06953653693199158,-0.033215563744306564
1772018073039150000,4.277150146484375,0.002840548986569047,-0.019079579040408134,-0.010785635560750961
1772018073059117000,4.297116943359375,0.004863125737756491,0.015080263838171959,-0.0007842534687370062
1772018073079084000,4.317083984375,0.019203471019864082,0.010074005462229252,-0.0018923981115221977
1772018073099051000,4.337051025390625,0.024438712745904922,-0.003858854528516531,0.0019449505489319563
1772018073119018000,4.35701806640625,0.022519290447235107,-0.009507033042609692,-0.006017755251377821
1772018073138985200,4.376985107421875,0.011402007192373276,-0.006209893152117729,-0.01155967265367508
1772018073158952000,4.396951904296875,0.0024116693530231714,-0.026053618639707565,-0.010311577469110489
1772018073178919200,4.416919189453125,-0.004880309104919434,-0.01510008703917265,0.0032660141587257385
1772018073198886100,4.43688623046875,0.002926236717030406,0.01922428049147129,0.008184069767594337
1772018073218853000,4.45685302734375,0.008598492480814457,0.018423892557621002,0.004561373498290777
1772018073238820000,4.476820068359375,-0.004821519833058119,-0.004121322184801102,0.01117667742073536
1772018073258787000,4.496787109375,0.014219526201486588,0.010477646254003048,0.013428916223347187
1772018073278754000,4.516754150390625,0.03420816361904144,0.007781224325299263,0.004189210012555122
1772018073298721000,4.536720947265625,0.020224539563059807,-0.045266903936862946,-0.01394267100840807
1772018073318688300,4.556688232421875,0.01111781969666481,-0.03758979216217995,-0.015772657468914986
1772018073338655000,4.576655029296875,0.014839326962828636,-0.005904645659029484,-0.008686917833983898
1772018073358622000,4.5966220703125,0.02475477010011673,-0.007133406586945057,0.009501279331743717
1772018073378589200,4.616589111328125,0.012676812708377838,0.0037523722276091576,0.037308141589164734
1772018073398556000,4.636555908203125,0.005729207769036293,0.031128689646720886,0.039126671850681305
1772018073418523100,4.656523193359375,-0.006771980784833431,0.0020515983924269676,0.016453059390187263
1772018073438490000,4.676489990234375,-0.022724006325006485,-0.00817104522138834,0.0038139568641781807
1772018073458457000,4.69645703125,-0.020853430032730103,0.010399038903415203,-0.003878712886944413
1772018073478424000,4.716424072265625,0.0018965702038258314,0.004773636348545551,-0.011284954845905304
1772018073498391000,4.73639111328125,0.016098447144031525,-0.023972544819116592,-0.004925465676933527
1772018073518357000,4.75635693359375,0.025368472561240196,-0.006096886936575174,0.02147936262190342
1772018073538324000,4.776323974609375,0.036032747477293015,0.01366290170699358,0.0443229041993618
1772018073558291000,4.796291015625,0.056102361530065536,0.001743982546031475,0.03889590874314308
1772018073578258000,4.8162578125,0.06704654544591904,-0.02107713557779789,0.022705502808094025
1772018073598225000,4.836224853515625,0.06286729127168655,-0.036757130175828934,0.016382884234189987
1772018073618192000,4.85619189453125,0.05595056712627411,-0.0418296717107296,0.005887760780751705
1772018073638159000,4.8761591796875,0.046257998794317245,-0.014995740726590157,-0.006197265814989805
1772018073658125800,4.896125732421875,0.04370344802737236,0.01694231852889061,-0.0039016143418848515
1772018073678093000,4.916093017578125,0.05546937882900238,0.007382248528301716,0.007249162532389164
1772018073698060000,4.93606005859375,0.05016109719872475,0.007467618212103844,0.0310349278151989
1772018073718026800,4.95602685546875,0.04344648867845535,0.00412165280431509,0.03094717487692833
1772018073737994000,4.975993896484375,0.05382155627012253,0.0375184565782547,0.018638188019394875
1772018073757961000,4.9959609375,0.055176880210638046,0.03981461003422737,0.007700979243963957
1772018073777928000,5.015927978515625,0.047606002539396286,-0.00211063539609313,-0.006746396422386169
1772018073797895000,5.03589501953125,0.04652506858110428,-0.008210439234972,-0.010593872517347336
1772018073817862100,5.055862060546875,0.05253027752041817,0.006711339578032494,0.00747819896787405
1772018073837828900,5.075828857421875,0.06594479829072952,0.012915108352899551,0.01325301080942154
1772018073857795800,5.0957958984375,0.06453812122344971,-0.008767550811171532,0.014422671869397163
1772018073877763000,5.11576318359375,0.04105515778064728,-0.0033276998437941074,0.028854474425315857
1772018073897729800,5.135729736328125,0.02851058728992939,0.025454118847846985,0.023341068997979164
1772018073917697000,5.155697021484375,0.0224982351064682,0.03274159133434296,-0.0009099430171772838
1772018073937664000,5.1756640625,0.003307329025119543,0.01246818620711565,0.0014663806650787592
1772018073957631000,5.195630859375,0.011858129873871803,-0.0024675773456692696,0.022449972108006477
1772018073977597000,5.215596923828125,0.006675573065876961,0.06017007678747177,0.04218160733580589
1772018073997564200,5.235564208984375,-0.000548217911273241,0.09278666228055954,0.055298998951911926
1772018074017531000,5.25553076171875,-0.0018907394260168076,0.12617981433868408,0.056626323610544205
1772018074037498000,5.275498046875,0.010846193879842758,0.1390121728181839,0.04445592686533928
1772018074057465000,5.295465087890625,0.025506341829895973,0.0763818621635437,0.015021076425909996
1772018074077430000,5.315429931640625,0.025157883763313293,0.016017654910683632,-0.0006903574685566127
1772018074097396700,5.335396728515625,0.012497514486312866,-0.0011551491916179657,-0.0046563418582081795
1772018074117364000,5.355364013671875,0.012988163158297539,-0.0024191001430153847,-0.007100739050656557
1772018074137331000,5.3753310546875,0.01423849631100893,-0.003386043943464756,-0.007973985746502876
1772018074157298200,5.395298095703125,0.01854264736175537,-0.0021584141068160534,-0.01582990400493145
1772018074177265000,5.415264892578125,0.004312328528612852,0.015825409442186356,-0.005399503745138645
1772018074197232000,5.435232177734375,0.0058632525615394115,0.028342630714178085,-0.001037229667417705
1772018074217199000,5.45519921875,0.036321621388196945,0.025192568078637123,0.005407477263361216
1772018074237165800,5.475165771484375,0.040389396250247955,0.014416813850402832,0.03287224844098091
1772018074257133000,5.495133056640625,0.026226932182908058,0.016660813242197037,0.059842221438884735
1772018074277100000,5.51510009765625,0.02806284837424755,0.031604498624801636,0.057755909860134125
1772018074297067000,5.53506689453125,0.019077232107520103,0.0061690909788012505,0.013536226935684681
1772018074317034000,5.555033935546875,0.015270421281456947,0.0037663206458091736,-0.018431546166539192
1772018074337001000,5.5750009765625,0.018901607021689415,0.0368773452937603,-0.01004444807767868
1772018074356968000,5.594968017578125,0.01892584189772606,0.014735558070242405,0.020659668371081352
1772018074376935000,5.614934814453125,0.032493095844984055,-0.008138434030115604,0.036298807710409164
1772018074396902100,5.634902099609375,0.03622036799788475,-0.014264911413192749,0.02388622798025608
1772018074416868900,5.654868896484375,0.026554467156529427,0.00008577480912208557,0.0060469042509794235
1772018074436835000,5.6748349609375,0.019961556419730186,-0.012242155149579048,-0.014208568260073662
1772018074456801800,5.6948017578125,0.012660199776291847,-0.014697646722197533,-0.013610150665044785
1772018074476769000,5.71476904296875,0.002158131217584014,-0.007826598361134529,0.0020799795165657997
1772018074496736000,5.734736083984375,-0.016961347311735153,0.011919662356376648,0.01588049717247486
1772018074516703000,5.754702880859375,-0.016886455938220024,0.025917507708072662,0.01669887825846672
1772018074536670500,5.77467041015625,-0.001673420425504446,0.010759941302239895,0.0019155386835336685
1772018074556637400,5.794637451171875,0.008228534832596779,-0.003510600421577692,-0.001170274568721652
1772018074576604400,5.8146044921875,0.01655566319823265,0.0005164649337530136,-0.003011843655258417
1772018074596571400,5.8345712890625,0.018058711662888527,-0.00988715048879385,-0.004586431663483381
1772018074616538600,5.85453857421875,0.013853535056114197,-0.03848620131611824,-0.02712981589138508
1772018074636505300,5.87450537109375,0.01921825110912323,-0.06756855547428131,-0.04874563589692116
1772018074656472300,5.894472412109375,0.005380766466259956,-0.028043460100889206,-0.04244700074195862
1772018074676439600,5.914439453125,0.005166836082935333,-0.003571627661585808,-0.031989552080631256
1772018074696406300,5.93440625,0.027669914066791534,-0.008260369300842285,-0.02178594470024109
1772018074716373500,5.95437353515625,0.03460841625928879,-0.0237731896340847,-0.016072381287813187
1772018074736340500,5.974340576171875,0.019473638385534286,-0.02878398261964321,-0.020403742790222168
1772018074756307500,5.994307373046875,0.013829605653882027,-0.018901605159044266,-0.04277043417096138
1772018074776274400,6.0142744140625,0.03166187182068825,-0.045098934322595596,-0.06249207258224487
1772018074796240600,6.03424072265625,0.04838678240776062,-0.062334299087524414,-0.03055238537490368
1772018074816207400,6.054207275390625,0.03679033741354942,-0.033033985644578934,0.02384001389145851
1772018074836174600,6.074174560546875,0.032768651843070984,0.004766224883496761,0.045543186366558075
1772018074856141600,6.0941416015625,0.019235290586948395,0.022620005533099174,0.029149293899536133
1772018074876108300,6.1141083984375,0.014089036732912064,0.010421904735267162,-0.007726569660007954
1772018074896075500,6.134075439453125,-0.002343776635825634,-0.013219404965639114,-0.04224885255098343
1772018074916042500,6.15404248046875,-0.012725340202450752,-0.02063244953751564,-0.048684775829315186
1772018074936009500,6.174009521484375,-0.015003340318799019,-0.017300456762313843,-0.031195541843771935
1772018074955976400,6.1939765625,-0.01625216379761696,-0.024254348129034042,-0.003454981604591012
1772018074975943700,6.213943603515625,-0.013828415423631668,-0.004974473733454943,0.012261529453098774
1772018074995910400,6.233910400390625,-0.007004353683441877,0.012780606746673584,-0.006866621784865856
1772018075015877400,6.25387744140625,-0.0145200714468956,-0.013560295104980469,-0.015793003141880035
1772018075035844600,6.2738447265625,-0.023064035922288895,-0.011922824196517467,0.0006038153078407049
1772018075055811300,6.293811279296875,-0.018029574304819107,0.002208390273153782,0.004619591869413853
1772018075075778600,6.313778564453125,-0.012425213120877743,-0.02908649668097496,-0.010372008197009563
1772018075095745500,6.33374560546875,-0.022358469665050507,-0.05057383328676224,-0.007534952834248543
1772018075115712500,6.35371240234375,-0.027507789433002472,-0.032876573503017426,-0.0047470079734921455
1772018075135678500,6.373678466796875,-0.0276353657245636,-0.03225430101156235,-0.01965218596160412
1772018075155645400,6.3936455078125,-0.030290748924016953,-0.02153366431593895,-0.04179571568965912
1772018075175612400,6.4136123046875,-0.041960667818784714,-0.01444618683308363,-0.04372118413448334
1772018075195579600,6.43357958984375,-0.06305218487977982,-0.0015931138768792152,-0.018549641594290733
1772018075215546400,6.45354638671875,-0.06323563307523727,-0.028191538527607918,-0.016218848526477814
1772018075235513300,6.473513427734375,-0.01134613435715437,-0.029189348220825195,-0.05152210220694542
1772018075255480600,6.49348046875,0.0054510291665792465,0.002255692146718502,-0.04212821274995804
1772018075275447300,6.513447265625,-0.0003017163835465908,0.018328316509723663,-0.006996183656156063
1772018075295414500,6.53341455078125,0.009063063189387321,0.0056170253083109856,0.02441779151558876
1772018075315381500,6.553381591796875,0.016498126089572906,-0.02082541584968567,0.039148394018411636
1772018075335348500,6.573348388671875,0.015310555696487427,-0.009335320442914963,0.024174248799681664
1772018075355315500,6.5933154296875,0.012069998309016228,0.004398653283715248,0.0012391095515340567
1772018075375282400,6.613282470703125,0.005192368291318417,0.0010435748845338821,-0.00817529484629631
1772018075395249400,6.63324951171875,0.00433626864105463,0.007966550998389721,0.00850952509790659
1772018075415216400,6.65321630859375,0.005355127155780792,-0.011538819409906864,0.024686641991138458
1772018075435182600,6.6731826171875,0.0038001241628080606,-0.015155896544456482,0.00973445363342762
1772018075455149300,6.6931494140625,-0.016852423548698425,0.004634318873286247,0.008815929293632507
1772018075475116500,6.713116455078125,-0.03212409466505051,0.0074509019032120705,0.003001589560881257
1772018075495083500,6.73308349609375,-0.03291236609220505,0.0024742018431425095,-0.011394930072128773
1772018075515050500,6.753050537109375,-0.032647132873535156,0.0033199936151504517,-0.02093130722641945
1772018075535017500,6.773017578125,-0.04207263141870499,0.010719077661633492,0.0024154335260391235
1772018075554983400,6.7929833984375,-0.023949231952428818,0.015384674072265625,0.041151098906993866
1772018075574950400,6.812950439453125,-0.0007368708029389381,-0.0040878551080822945,0.045930277556180954
1772018075594917600,6.832917724609375,0.009354384616017342,-0.024035276845097542,0.025869352743029594
1772018075614884400,6.85288427734375,-0.005578452721238136,-0.02999012917280197,-0.0003333616768941283
1772018075634851300,6.872851318359375,0.002162490040063858,-0.019639331847429276,-0.0010148538276553154
1772018075654818600,6.892818603515625,0.0009646229445934296,-0.0030673318542540073,0.019783098250627518
1772018075674785300,6.912785400390625,-0.007831050083041191,-0.041867807507514954,0.02429809793829918
1772018075694752500,6.93275244140625,-0.011792927980422974,-0.05366499349474907,0.0055777886882424355
1772018075714718500,6.952718505859375,-0.008694957010447979,-0.00502915121614933,-0.021762076765298843
1772018075734685400,6.972685546875,-0.00799076072871685,0.015488377772271633,-0.03361741080880165
1772018075754652400,6.99265234375,-0.009410576894879341,0.015024316497147083,-0.017413528636097908
1772018075774619600,7.01261962890625,0.006689620204269886,0.021347995847463608,0.006781812757253647
1772018075794586400,7.03258642578125,0.02566620707511902,0.009048397652804852,0.01842249557375908
1772018075814553600,7.0525537109375,0.03042077086865902,-0.029587997123599052,0.011666851118206978
1772018075834520600,7.0725205078125,0.017092730849981308,-0.01172082033008337,0.004541161470115185
1772018075854487300,7.0924873046875,0.0031510386615991592,0.008257517591118813,-0.021108534187078476
1772018075874454500,7.11245458984375,-0.002946229185909033,-0.002667591441422701,-0.061223603785037994
1772018075894421500,7.13242138671875,-0.012297108769416809,-0.0242856927216053,-0.06181082874536514
1772018075914388500,7.152388427734375,-0.021320544183254242,-0.027766982093453407,-0.03709081932902336
1772018075934355500,7.17235546875,-0.015208454802632332,0.005353638902306557,-0.021392306312918663
1772018075954322700,7.19232275390625,-0.005262867547571659,0.025524795055389404,-0.008399277925491333
1772018075974289400,7.212289306640625,-0.008448852226138115,0.025291604921221733,0.013257822021842003
1772018075994255600,7.232255615234375,-0.0011499328538775444,0.02004179358482361,0.015149598941206932
1772018076014222300,7.252222412109375,0.008874936029314995,0.023857196792960167,-0.01696997694671154
1772018076034189600,7.272189453125,0.013162098824977875,0.01386786624789238,-0.029009729623794556
1772018076054156500,7.292156494140625,0.0069521283730864525,0.014142596162855625,-0.0009040573495440185
1772018076074123300,7.312123291015625,0.013874784111976624,0.007172892801463604,0.016117265447974205
1772018076094090500,7.332090576171875,0.0071359602734446526,0.01584385335445404,0.017734196037054062
1772018076114057500,7.352057373046875,0.02126777544617653,0.03538908809423447,-0.00017463183030486107
1772018076134024400,7.3720244140625,0.03847121447324753,0.051966916769742966,-0.007034793496131897
1772018076153991400,7.391991455078125,0.023714080452919006,0.02238377556204796,0.005817092955112457
1772018076173958700,7.411958740234375,0.013006632216274738,-0.011018918827176094,0.01183103397488594
1772018076193925400,7.43192529296875,0.020412011072039604,-0.0023445007391273975,-0.005272706970572472
1772018076213892400,7.451892333984375,0.03008330799639225,0.023817196488380432,-0.03046581521630287
1772018076233859600,7.471859619140625,0.01798989437520504,0.01687673106789589,-0.027466563507914543
1772018076253825500,7.491825439453125,0.007377457804977894,0.023746702820062637,-0.001810867222957313
1772018076273792500,7.51179248046875,0.030361630022525787,0.015006874687969685,0.004377648700028658
1772018076293759500,7.531759521484375,0.04626352712512016,-0.010581922717392445,0.005418029613792896
1772018076313726500,7.5517265625,0.04313650727272034,-0.0028706341981887817,0.006949336268007755
1772018076333693400,7.571693359375,0.03367748111486435,0.017652109265327454,-0.0003048460930585861
1772018076353660700,7.59166064453125,0.023113340139389038,0.006091466173529625,-0.004784696269780397
1772018076373627400,7.61162744140625,0.009626990184187889,-0.010750262066721916,-0.004151113796979189
1772018076393594600,7.6315947265625,0.004056552890688181,0.008821019902825356,0.0024840033147484064
1772018076413561600,7.6515615234375,0.006423252634704113,0.01681547984480858,-0.005156996659934521
1772018076433528300,7.6715283203125,0.007483202964067459,0.0015101339668035507,-0.014896444976329803
1772018076453495600,7.69149560546875,0.010060598142445087,-0.007084260694682598,0.002583480905741453
1772018076473462500,7.711462646484375,0.014131449162960052,0.0009747305884957314,0.01199403591454029
1772018076493429500,7.731429443359375,0.01919223740696907,-0.00554178562015295,0.010930771939456463
1772018076513395500,7.7513955078125,0.0026135665830224752,-0.005869646556675434,-0.004945536609739065
1772018076533362400,7.771362548828125,-0.005957845598459244,-0.01703801192343235,-0.016526952385902405
1772018076553330200,7.791330078125,-0.005929071921855211,-0.024801285937428474,-0.030678994953632355
1772018076573297200,7.811297119140625,-0.01000288687646389,-0.002183379139751196,-0.01626410521566868
1772018076593264000,7.83126416015625,-0.004584130365401506,-0.00951298326253891,-0.0018870336934924126
1772018076613231000,7.851231201171875,0.02847527526319027,-0.010846534743905067,0.0012541664764285088
1772018076633198300,7.8711982421875,0.031128281727433205,-0.028366195037961006,0.022501938045024872
1772018076653165000,7.8911650390625,0.019740361720323563,-0.003240654245018959,0.05922878533601761
1772018076673132300,7.91113232421875,0.02924124151468277,0.012855573557317257,0.05592286214232445
1772018076693099300,7.931099365234375,0.021768931299448013,-0.004539503250271082,0.02477480098605156
1772018076713066000,7.95106591796875,-0.012380534783005714,0.004562089219689369,0.001961234025657177
1772018076733033200,7.971033203125,-0.024323008954524994,0.016334936022758484,-0.0015270974254235625
1772018076752999400,7.99099951171875,-0.02416716329753399,-0.005953509360551834,0.011542489752173424
1772018076772966100,8.010966064453125,-0.019548211246728897,-0.0401429608464241,0.00801886711269617
1772018076792933000,8.03093310546875,-0.013043416664004326,-0.03416315093636513,-0.003323805518448353
1772018076812900400,8.050900390625,-0.025114525109529495,-0.03818444162607193,-0.0031409694347530603
1772018076832867000,8.0708671875,-0.03359924629330635,-0.049446601420640945,-0.016671841964125633
1772018076852834300,8.090834228515625,-0.03284349665045738,-0.044784821569919586,-0.03105703368782997
1772018076872801300,8.11080126953125,-0.02263568341732025,-0.022009864449501038,-0.022751284763216972
1772018076892768300,8.130768310546875,-0.011450615711510181,-0.007124661467969418,0.012857300229370594
1772018076912735200,8.1507353515625,0.004864227492362261,-0.009408507496118546,0.038178492337465286
1772018076932702200,8.1707021484375,0.015160749666392803,-0.015361739322543144,0.03461519256234169
1772018076952669200,8.190669189453125,0.00524985883384943,-0.018502749502658844,0.018093066290020943
1772018076972636200,8.21063623046875,-0.00879976898431778,-0.0015532462857663631,0.0022053318098187447
1772018076992602000,8.23060205078125,-0.00697198323905468,-0.008041774854063988,-0.017697811126708984
1772018077012569000,8.250569091796875,0.0002957601100206375,-0.010674254968762398,-0.010101140476763248
1772018077032536300,8.270536376953125,0.0060167801566421986,-0.002865841146558523,0.01126766111701727
1772018077052503000,8.2905029296875,0.013911522924900055,-0.02033979818224907,0.0017676223069429398
1772018077072470300,8.31047021484375,-0.002421712037175894,-0.01248650997877121,-0.008171018213033676
1772018077092437200,8.330437255859374,-0.0015239431522786617,0.009446246549487114,-0.016568100079894066
1772018077112404200,8.350404296875,0.009886648505926132,0.017113059759140015,-0.011016476899385452
1772018077132371200,8.37037109375,0.0011660757008939981,-0.005655981134623289,-0.00427321158349514
1772018077152338200,8.390338134765624,-0.0013332720845937729,-0.03267122060060501,-0.002658408135175705
1772018077172305200,8.41030517578125,-0.0003908080980181694,-0.01331683062016964,-0.006443687714636326
1772018077192272100,8.430272216796874,-0.002311434131115675,0.0029898639768362045,-0.005059916526079178
1772018077212238300,8.45023828125,-0.008499618619680405,0.02453305572271347,0.0022300975397229195
1772018077232205000,8.470205078125,-0.004559981636703014,0.010763660073280334,0.006596612744033337
1772018077252172300,8.49017236328125,0.0023689905647188425,0.010115474462509155,0.013264242559671402
1772018077272139300,8.51013916015625,0.002866011578589678,0.00947474129498005,0.012924278154969215
1772018077292106200,8.530106201171876,0.003066014964133501,-0.008426228538155556,0.0015600367914885283
1772018077312073200,8.5500732421875,0.00791794154793024,-0.01761532947421074,-0.005089462734758854
1772018077332040200,8.570040283203125,0.00898938998579979,-0.0019583413377404213,-0.0015695722540840507
1772018077352007200,8.590007080078125,0.007274665869772434,0.02012978494167328,0.007915662601590157
1772018077371974100,8.60997412109375,0.009461266919970512,0.02954121120274067,0.035607896745204926
1772018077391941400,8.62994140625,0.008370157331228256,0.030405299738049507,0.05205051973462105
1772018077411908000,8.649908203125,0.011869853362441063,0.01947280764579773,0.050224918872117996
1772018077431874300,8.669874267578125,0.007749705109745264,0.005888954736292362,0.03758301958441734
1772018077451841000,8.689841064453125,-0.0019810227677226067,0.004281632602214813,0.03306817263364792
1772018077471808300,8.709808349609375,-0.019853733479976654,-0.003424357157200575,0.027581658214330673
1772018077491775200,8.729775146484375,-0.01638471893966198,-0.017095454037189484,0.012640928849577904
1772018077511742200,8.7497421875,-0.010290855541825294,-0.002091711387038231,0.012514293193817139
1772018077531709200,8.769709228515625,-0.00023922277614474297,-0.0007056174799799919,0.027157805860042572
1772018077551676000,8.789676025390625,0.013310622423887253,-0.004779268521815538,0.029494604095816612
1772018077571643000,8.809642822265625,0.012604044750332832,-0.00016771070659160614,0.02638843283057213
1772018077591609900,8.82960986328125,0.01834268867969513,-0.002383809071034193,0.026031695306301117
1772018077611576800,8.849576904296875,0.03223857656121254,0.008483645506203175,0.029052244499325752
1772018077631543800,8.869543701171875,0.023389356210827827,0.0024927593767642975,0.01781477965414524
1772018077651509800,8.889509765625,0.016921574249863625,-0.01412975788116455,-0.006463257595896721
1772018077671476700,8.909476806640624,0.023833027109503746,-0.025523001328110695,-0.014814000576734543
1772018077691444000,8.92944384765625,0.016271241009235382,-0.006654159165918827,0.008210225962102413
1772018077711410700,8.94941064453125,0.012152401730418205,0.019412515684962273,0.03298893943428993
1772018077731378000,8.9693779296875,0.014854196459054947,0.016826611012220383,0.03764187917113304
1772018077751345000,8.989344970703126,0.01614871807396412,-0.0004615364596247673,0.02613583207130432
1772018077771311900,9.009311767578126,0.0009295810014009476,-0.009772615507245064,0.007392367348074913
1772018077791278800,9.02927880859375,-0.006749934051185846,-0.0023487326689064503,-0.007467002607882023
1772018077811245800,9.049245849609376,-0.016992781311273575,-0.0105514507740736,0.0014595245011150837
1772018077831212800,9.069212890625,-0.030018454417586327,-0.0055705476552248,0.01374014001339674
1772018077851179000,9.089178955078125,-0.03186853229999542,-0.009889635257422924,0.013444126583635807
1772018077871146000,9.10914599609375,-0.029383931308984756,0.006829855963587761,0.017562460154294968
1772018077891112700,9.12911279296875,-0.01463153026998043,0.014399220235645771,0.008566154167056084
1772018077911080000,9.149079833984375,-0.007825549691915512,0.004961696453392506,0.0013440600596368313
1772018077931047000,9.169046875,-0.013894638046622276,0.005493955686688423,0.01522152777761221
1772018077951014000,9.189013916015625,0.00458608940243721,0.005397443659603596,0.007203551009297371
1772018077970980900,9.20898095703125,0.0037942794151604176,-0.012087617069482803,0.00013299996498972178
1772018077990947800,9.22894775390625,-0.0041207969188690186,-0.01607474684715271,-0.00556351849809289
1772018078010914800,9.248914794921875,-0.002339809201657772,-0.003702252171933651,-0.014395204372704029
1772018078030881800,9.2688818359375,0.005927558522671461,-0.0011235210113227367,-0.015170203521847725
1772018078050847700,9.28884765625,0.011368576437234879,0.011681095696985722,-0.00635099783539772
1772018078070814700,9.308814697265625,0.008226352743804455,0.016671830788254738,0.008657371625304222
1772018078090782000,9.328781982421875,-0.007251760922372341,0.015140919014811516,0.016040600836277008
1772018078110748700,9.348748779296875,0.0010791392996907234,0.007550377398729324,-0.005359229166060686
1772018078130716000,9.3687158203125,-0.001287322025746107,-0.0066906665451824665,-0.030570581555366516
1772018078150683000,9.388682861328125,-0.014247212558984756,-0.024687781929969788,-0.03215890750288963
1772018078170649900,9.40864990234375,-0.01088362280279398,-0.030790124088525772,-0.015324937179684639
1772018078190616800,9.428616943359375,-0.0037082787603139877,-0.006507261656224728,-0.0033218017779290676
1772018078210583800,9.448583740234374,0.003530643880367279,0.016958706080913544,-0.0026738415472209454
1772018078230549800,9.4685498046875,0.011536046862602234,0.027226530015468597,0.002434111200273037
1772018078250517000,9.48851708984375,0.015494095161557198,0.01104116253554821,0.00916604045778513
1772018078270483700,9.508483642578126,0.01080632396042347,-0.008723506703972816,0.015722887590527534
1772018078290450700,9.52845068359375,0.009326261468231678,-0.005098501220345497,0.007290367968380451
1772018078310418000,9.54841796875,0.017181411385536194,-0.001259359996765852,-0.005176536273211241
1772018078330384600,9.568384521484376,0.010745929554104805,-0.0014402992092072964,-0.007145418785512447
1772018078350352000,9.588351806640626,-0.005598944146186113,-0.0057923318818211555,0.005695009604096413
1772018078370318800,9.60831884765625,-0.0013986011035740376,0.02037687413394451,0.02015397511422634
1772018078390285800,9.628285888671876,0.010872499085962772,0.011280392296612263,0.02141670510172844
1772018078410251800,9.648251708984375,0.009838138706982136,-0.010160078294575214,0.01690850406885147
1772018078430219000,9.668218994140625,0.004698925651609898,-0.0018084784969687462,0.012329350225627422
1772018078450185700,9.688185791015625,-0.0010066009126603603,-0.0009747790172696114,0.0009844126179814339
1772018078470153700,9.70815380859375,-0.008873336017131805,-0.00358408922329545,-0.0048620207235217094
1772018078490121000,9.728120849609375,-0.011060820892453194,-0.008108483627438545,-0.003399685025215149
1772018078510087700,9.748087646484375,-0.008688738569617271,0.00360907893627882,0.0009933311957865953
1772018078530055000,9.768054931640625,0.0014949643518775702,0.016097677871584892,0.000011816620826721191
1772018078550021600,9.788021728515625,0.010940049774944782,0.016094807535409927,0.0065458957105875015
1772018078569988600,9.807988525390625,0.010874073952436447,0.023909954354166985,0.011659686453640461
1772018078589954600,9.82795458984375,-0.0037925103679299355,0.007429836317896843,-0.0028183190152049065
1772018078609921800,9.847921875,0.0033993327524513006,-0.01898360624909401,-0.022504402324557304
1772018078629888800,9.867888671875,-0.0013243397697806358,-0.010346121154725552,-0.0032598632387816906
1772018078649855500,9.88785546875,-0.0029325406067073345,-0.007471563294529915,0.026582440361380577
1772018078669822700,9.90782275390625,0.013594629243016243,-0.00507039250805974,0.02178185060620308
1772018078689789700,9.927789794921875,0.013826869428157806,-0.018533632159233093,0.0007748333737254143
1772018078709756700,9.947756591796875,-0.000569014810025692,-0.008259193040430546,-0.008314684964716434
1772018078729723600,9.9677236328125,-0.0018253754824399948,-0.0006703650578856468,-0.00982507225126028
1772018078749691000,9.98769091796875,0.0067826127633452415,-0.0005132528021931648,-0.0052689556032419205
1772018078769656600,10.007656494140624,0.011266511864960194,-0.0013920101337134838,0.008787884376943111
1772018078789623800,10.027623779296874,0.0069894809275865555,-0.006199629046022892,0.01611650176346302
1772018078809590800,10.0475908203125,-0.0044767181389033794,0.010396094992756844,0.019341450184583664
1772018078829557800,10.067557861328124,-0.00760806305333972,0.008585412055253983,0.0002441898686811328
1772018078849524700,10.087524658203124,-0.012305635958909988,0.0008702892810106277,-0.02249573916196823
1772018078869491700,10.10749169921875,-0.010829641483724117,0.005421465262770653,-0.017544936388731003
1772018078889458700,10.127458740234376,-0.0031616310589015484,0.004081498831510544,0.000208101118914783
1772018078909425700,10.14742578125,0.0060043539851903915,-0.017079651355743408,0.011555044911801815
1772018078929391600,10.1673916015625,0.004781779833137989,-0.033039771020412445,0.004583141766488552
1772018078949358600,10.187358642578126,-0.0054756342433393,-0.029355527833104134,-0.012954175472259521
1772018078969325800,10.207325927734376,-0.01251312717795372,-0.024067148566246033,-0.041199781000614166
1772018078989292500,10.22729248046875,-0.0165004413574934,-0.02978375181555748,-0.04798111692070961
1772018079009259800,10.247259765625,-0.028941111639142036,-0.016465526074171066,-0.02983340620994568
1772018079029226800,10.267226806640625,-0.02778235450387001,0.001027737744152546,-0.01761256530880928
1772018079049193700,10.28719384765625,-0.021995719522237778,0.006211572326719761,-0.002400873228907585
1772018079069160700,10.30716064453125,-0.0233050137758255,0.021806567907333374,0.0018958842847496271
1772018079089127700,10.327127685546875,-0.02504565566778183,0.0034723039716482162,0.0027720641810446978
1772018079109094700,10.3470947265625,-0.021838709712028503,-0.007187581621110439,0.002889249473810196
1772018079129060900,10.367060791015625,-0.011256551370024681,-0.009594420902431011,-0.0011698221787810326
1772018079149027800,10.38702783203125,-0.02039312943816185,-0.023869864642620087,-0.015615861862897873
1772018079168994600,10.40699462890625,-0.02469116449356079,-0.021665062755346298,-0.03141706809401512
1772018079188961800,10.4269619140625,-0.015530422329902649,-0.011248375289142132,-0.025964247062802315
1772018079208928800,10.4469287109375,-0.0030279401689767838,0.007061842828989029,-0.012743650004267693
1772018079228895700,10.466895751953125,0.004246123135089874,0.009219225496053696,-0.012631515972316265
1772018079248862700,10.48686279296875,0.013499844819307327,0.006803521886467934,-0.025614699348807335
1772018079268829700,10.50682958984375,0.019942013546824455,-0.010700128972530365,-0.024544771760702133
1772018079288795600,10.526795654296874,0.017561709508299828,-0.01666281744837761,-0.004761083051562309
1772018079308763000,10.546762939453124,0.011919839307665825,-0.013889884576201439,-0.011225646361708641
1772018079328729600,10.5667294921875,0.04411796107888222,0.0127714229747653,-0.04744396731257439
1772018079348696800,10.58669677734375,-0.003491348121315241,-0.00028850696980953217,-0.04644475132226944
1772018079368663800,10.606663818359374,0.0006804221775382757,0.032483190298080444,-0.034597937017679214
1772018079388630500,10.626630615234374,-0.016493426635861397,0.019061140716075897,-0.02224101312458515
1772018079408597800,10.64659765625,0.0022772839292883873,0.025548182427883148,-0.02529218979179859
1772018079428564700,10.666564697265626,-0.008288032375276089,0.015680160373449326,-0.027227237820625305
1772018079448530700,10.68653076171875,-0.0013658441603183746,0.02229461632668972,-0.04443353787064552
1772018079468497700,10.70649755859375,-0.01612885110080242,0.03366927430033684,-0.04336334019899368
1772018079488465000,10.72646484375,-0.024637900292873383,0.06858893483877182,-0.05321850627660751
1772018079508431600,10.746431640625,-0.0005350024439394474,0.11988703906536102,-0.09540735930204391
1772018079528398800,10.76639892578125,0.009869784116744995,0.16856636106967926,-0.173598051071167
1772018079548365300,10.786365234375,-0.003509795293211937,0.21865732967853546,-0.03878016397356987
1772018079568332500,10.80633251953125,0.06715323776006699,-0.0312972329556942,0.21488912403583527
1772018079588299500,10.826299560546875,0.12203589081764221,-0.10684032738208771,0.3122166097164154
1772018079608265500,10.846265380859375,0.10455114394426346,-0.06452460587024689,0.06720153242349625
1772018079628232400,10.866232421875,0.02120351791381836,0.03042275831103325,-0.2940359115600586
1772018079648199700,10.88619970703125,-0.05793501064181328,0.006595861166715622,-0.390064537525177
