time,seconds_elapsed,z,y,x
1772019775097308700,0.06930859375,-0.22165101766586304,0.02613522671163082,-0.21152843534946442
1772019775117275600,0.089275634765625,-0.2753834128379822,0.054351747035980225,-0.2832351326942444
1772019775137241600,0.10924169921875,-0.31165385246276855,0.0002585155889391899,-0.2917581796646118
1772019775157207800,0.129207763671875,-0.26884913444519043,-0.04494304955005646,-0.18766719102859497
1772019775177173500,0.149173583984375,-0.23011963069438934,-0.04375730827450752,-0.05563444271683693
1772019775197140700,0.169140625,-0.25679993629455566,-0.14481553435325623,-0.0013393800472840667
1772019775217106700,0.189106689453125,-0.26397258043289185,-0.26679855585098267,0.04212247580289841
1772019775237072600,0.20907275390625,-0.31672000885009766,-0.25456035137176514,0.0776892602443695
1772019775257038600,0.22903857421875,-0.35051020979881287,-0.21625708043575287,0.07709337025880814
1772019775277005600,0.249005615234375,-0.36639365553855896,-0.2349541038274765,0.038232795894145966
1772019775296971500,0.268971435546875,-0.4218365252017975,-0.20138324797153473,-0.015058123506605625
1772019775316937700,0.288937744140625,-0.4117899239063263,-0.24865517020225525,-0.06859764456748962
1772019775336903700,0.308903564453125,-0.4063127338886261,-0.3146098852157593,-0.0945458933711052
1772019775356870700,0.32887060546875,-0.3397163152694702,-0.20073138177394867,-0.08980413526296616
1772019775376836600,0.348836669921875,-0.22439926862716675,-0.037343770265579224,-0.033400777727365494
1772019775396802600,0.368802490234375,-0.13986952602863312,-0.09404050558805466,0.07942337542772293
1772019775416768500,0.3887685546875,-0.07605978101491928,-0.1718580722808838,0.18974921107292175
1772019775436734700,0.408734619140625,-0.08869756758213043,-0.28925225138664246,0.24548877775669098
1772019775456701400,0.428701416015625,-0.12823964655399323,-0.26044145226478577,0.26791539788246155
1772019775476667600,0.448667724609375,-0.11692959070205688,-0.1306009143590927,0.2538321912288666
1772019775496633600,0.468633544921875,-0.09239385277032852,-0.023616395890712738,0.19485782086849213
1772019775516599600,0.488599609375,-0.07849545031785965,0.06485545635223389,0.13457676768302917
1772019775536566800,0.50856689453125,-0.046955130994319916,-0.002026262693107128,0.09317700564861298
1772019775556532700,0.52853271484375,-0.06655604392290115,-0.05540591478347778,0.09459273517131805
1772019775576498400,0.54849853515625,-0.09694322198629379,-0.02919119782745838,0.11989476531744003
1772019775596464600,0.568464599609375,-0.12973791360855103,-0.019050680100917816,0.1172017753124237
1772019775616431600,0.588431640625,-0.16796842217445374,0.02610241249203682,0.14003679156303406
1772019775636397600,0.6083974609375,-0.23626096546649933,-0.05732518434524536,0.1327333301305771
1772019775656363800,0.62836376953125,-0.22153867781162262,-0.07595551013946533,0.11314471811056137
1772019775676329700,0.648329833984375,-0.08868971467018127,0.08958280831575394,0.11670975387096405
1772019775696295400,0.66829541015625,0.04403433948755264,0.24319563806056976,0.15712030231952667
1772019775716262700,0.6882626953125,0.10001308470964432,0.09100706875324249,0.17564845085144043
1772019775736228600,0.708228515625,0.23724444210529327,-0.09923610836267471,0.16343599557876587
1772019775756194600,0.728194580078125,0.26988673210144043,-0.09391757100820541,0.05412041395902634
1772019775776160800,0.748160888671875,0.18685628473758698,-0.18244481086730957,-0.15130385756492615
1772019775796127500,0.76812744140625,0.09689946472644806,-0.18700841069221497,-0.34140321612358093
1772019775816093700,0.78809375,-0.00041723577305674553,0.011622386053204536,-0.3961743116378784
1772019775836059600,0.8080595703125,-0.13907849788665771,0.16214312613010406,-0.38129523396492004
1772019775856025600,0.828025634765625,-0.278097927570343,0.1516815423965454,-0.34678560495376587
1772019775875991600,0.847991455078125,-0.3199625611305237,-0.07623082399368286,-0.2614777684211731
1772019775895958800,0.867958740234375,-0.3221270740032196,-0.42439004778862,-0.16538958251476288
1772019775915924500,0.887924560546875,-0.37896212935447693,-0.5421104431152344,-0.022886885330080986
1772019775935890700,0.907890625,-0.4677743911743164,-0.4224436581134796,0.11165375262498856
1772019775955856600,0.927856689453125,-0.46992796659469604,-0.33699360489845276,0.14332006871700287
1772019775975823600,0.94782373046875,-0.41492170095443726,-0.1687467098236084,0.05115591734647751
1772019775995789600,0.96778955078125,-0.35806354880332947,0.010364463552832603,-0.10549361258745193
1772019776015756000,0.987756103515625,-0.2233792394399643,0.005580047145485878,-0.20326411724090576
1772019776035722000,1.007721923828125,-0.10375496000051498,0.21772894263267517,-0.06259488314390182
1772019776055688200,1.027688232421875,-0.09368128329515457,0.20515228807926178,0.011558573693037033
1772019776075655000,1.047655029296875,-0.06172915920615196,-0.183761328458786,0.04488137364387512
1772019776095621000,1.06762109375,-0.08040302246809006,-0.40071141719818115,0.07587377727031708
1772019776115587000,1.087587158203125,-0.27567222714424133,-0.3774357736110687,0.004378557205200195
1772019776135553000,1.107552978515625,-0.38513240218162537,-0.4306832253932953,-0.24475164711475372
1772019776155519000,1.12751904296875,-0.34438902139663696,-0.18147359788417816,-0.34127509593963623
1772019776175486200,1.147486328125,-0.30619099736213684,0.27661994099617004,-0.37087029218673706
1772019776195452000,1.167451904296875,-0.18162047863006592,0.3926040530204773,-0.33883634209632874
1772019776215418000,1.187418212890625,-0.038499075919389725,0.43889838457107544,-0.18077492713928223
1772019776235384000,1.207384033203125,0.06633540987968445,0.41575199365615845,-0.008095023222267628
1772019776255351000,1.22735107421875,0.07516710460186005,0.2726326286792755,0.09164661169052124
1772019776275317000,1.24731689453125,0.10916952788829803,-0.03733963519334793,0.14517562091350555
1772019776295283200,1.267283203125,0.10830658674240112,-0.0850563645362854,0.19934217631816864
1772019776315249000,1.287248779296875,0.05367036163806915,-0.0772438570857048,0.12322398275136948
1772019776335215000,1.307215087890625,-0.013032803311944008,-0.023374110460281372,-0.011226099915802479
1772019776355181800,1.327181884765625,-0.07211467623710632,0.06382183730602264,-0.10130593180656433
1772019776375148000,1.34714794921875,-0.11057935655117035,0.08708672970533371,-0.1259102076292038
1772019776395114000,1.367114013671875,-0.13916261494159698,0.0049407463520765305,-0.10590067505836487
1772019776415080200,1.387080078125,-0.12671712040901184,0.034688014537096024,-0.04750927537679672
1772019776435046000,1.4070458984375,-0.05688103660941124,0.07900287955999374,-0.014788745902478695
1772019776455013000,1.42701318359375,0.009950574487447739,0.0278006698936224,0.006759823299944401
1772019776474978800,1.446978759765625,0.02705397456884384,-0.05020566284656525,0.02013634890317917
1772019776494945000,1.466945068359375,-0.008172012865543365,-0.10142461210489273,0.005993230268359184
1772019776514911000,1.486910888671875,-0.06126605346798897,-0.05690886825323105,-0.048553235828876495
1772019776534877200,1.506877197265625,-0.08466693758964539,-0.01002612803131342,-0.06527189165353775
1772019776554844200,1.52684423828125,-0.0964004322886467,0.029839113354682922,-0.02430715039372444
1772019776574810000,1.54681005859375,-0.10104811936616898,0.05266101658344269,0.03896915912628174
1772019776594775800,1.56677587890625,-0.0776195302605629,0.04008977860212326,0.04445233941078186
1772019776614742000,1.586741943359375,-0.04489852860569954,0.006406452506780624,0.01731552742421627
1772019776634709000,1.606708984375,-0.028223099187016487,-0.030533939599990845,0.021436503157019615
1772019776654675000,1.626675048828125,-0.01463552936911583,-0.05025958642363548,0.04701909422874451
1772019776674641200,1.64664111328125,-0.021310405805706978,-0.02101893723011017,0.058945395052433014
1772019776694607000,1.666607177734375,-0.009114459156990051,0.011778158135712147,0.04328787326812744
1772019776714573000,1.686572998046875,0.022881193086504936,0.003346893936395645,0.02436091937124729
1772019776734540000,1.7065400390625,0.0312026534229517,-0.028760824352502823,-0.0024504568427801132
1772019776754506000,1.726506103515625,0.02355707809329033,-0.02956061251461506,-0.03651002049446106
1772019776774472000,1.746471923828125,-0.016886893659830093,0.007362903095781803,-0.07465127855539322
1772019776794438100,1.766438232421875,-0.07525312155485153,0.10094866156578064,-0.08905338495969772
1772019776814404000,1.786404052734375,-0.07824166864156723,0.13802391290664673,-0.0876363217830658
1772019776834371000,1.80637109375,-0.04382629320025444,0.12424992024898529,-0.054119642823934555
1772019776854337000,1.8263369140625,-0.03220123425126076,0.10910873860120773,0.0009048628853634
1772019776874303000,1.846302978515625,-0.042967863380908966,0.052680354565382004,0.023285003378987312
1772019776894269000,1.86626904296875,-0.05000247806310654,0.034196678549051285,0.006986853200942278
1772019776914235100,1.886235107421875,-0.02329891547560692,-0.0019142786040902138,-0.019534366205334663
1772019776934201900,1.906201904296875,-0.00862819328904152,-0.00891995057463646,-0.0006271200836636126
1772019776954168000,1.92616796875,-0.017900880426168442,0.0012274067848920822,0.033251211047172546
1772019776974134000,1.946134033203125,-0.0020802984945476055,-0.02355697751045227,0.043547261506319046
1772019776994100000,1.966099853515625,0.010868716984987259,-0.0595596581697464,0.041165996342897415
1772019777014066200,1.986066162109375,0.033462587743997574,-0.030639715492725372,0.03772679343819618
1772019777034033200,2.006033203125,0.061638396233320236,-0.032730329781770706,0.01927041821181774
1772019777053999000,2.0259990234375,0.04852339252829552,-0.0639343187212944,0.029570726677775383
1772019777073965000,2.045965087890625,0.029434170573949814,0.003363804891705513,0.01330706849694252
1772019777093931300,2.06593115234375,0.03170882165431976,0.05875494331121445,-0.0290537029504776
1772019777113897000,2.08589697265625,0.048151396214962006,0.06493981927633286,-0.04415489360690117
1772019777133864200,2.1058642578125,0.07327251136302948,0.0551542192697525,-0.020808693021535873
1772019777153830100,2.125830078125,0.03502354025840759,-0.01443110778927803,0.036823444068431854
1772019777173796000,2.145796142578125,0.001453908858820796,-0.0005782167427241802,0.030954768881201744
1772019777193762000,2.165761962890625,0.010245392099022865,-0.0011374992318451405,-0.014774502255022526
1772019777213728300,2.185728271484375,0.03073914349079132,-0.033548250794410706,-0.047099679708480835
1772019777233695000,2.205695068359375,0.0284527949988842,-0.026883313432335854,-0.03794466704130173
1772019777253661200,2.2256611328125,0.036474790424108505,-0.03645920753479004,0.007570883724838495
1772019777273627100,2.245627197265625,0.00819449219852686,0.0036404775455594063,0.03031254932284355
1772019777293593000,2.265593017578125,-0.022307999432086945,0.014983036555349827,0.006111738737672567
1772019777313559000,2.28555908203125,-0.013036664575338364,0.02890331670641899,-0.03161979466676712
1772019777333526000,2.305526123046875,0.007418324239552021,0.03213072568178177,-0.0584464855492115
1772019777353492000,2.325491943359375,0.006821438670158386,0.026447990909218788,-0.05173185467720032
1772019777373458200,2.345458251953125,0.012532176449894905,0.001106133684515953,-0.028578994795680046
1772019777393424100,2.365424072265625,0.02562722936272621,-0.02204602211713791,0.02042449824512005
1772019777413390000,2.38539013671875,0.02976609580218792,-0.018944600597023964,0.052399080246686935
1772019777433357000,2.405357177734375,0.017397819086909294,-0.028352107852697372,0.05096589773893356
1772019777453323000,2.425322998046875,-0.023415610194206238,0.0011357907205820084,0.028845416381955147
1772019777473289000,2.4452890625,-0.025863636285066605,0.009646939113736153,-0.01548130251467228
1772019777493255200,2.465255126953125,-0.044331107288599014,0.00029147230088710785,-0.0705094039440155
1772019777513221000,2.48522119140625,-0.04140731692314148,0.03561954200267792,-0.09010200947523117
1772019777533188000,2.50518798828125,-0.02811785601079464,0.03487055003643036,-0.05281176418066025
1772019777553154300,2.525154296875,-0.005121483001857996,0.0023931460455060005,0.007483400870114565
1772019777573120000,2.5451201171875,0.01246963907033205,-0.04104713350534439,0.04069621488451958
1772019777593086000,2.5650859375,0.04383344575762749,-0.06455375254154205,0.0484585277736187
1772019777613052200,2.58505224609375,0.06778191775083542,-0.04659939929842949,0.02521539479494095
1772019777633019100,2.60501904296875,0.14673210680484772,-0.07282941788434982,0.08178279548883438
1772019777652985000,2.624985107421875,0.09004093706607819,-0.014521967619657516,0.08942167460918427
1772019777672951300,2.644951416015625,0.03637225925922394,-0.019710585474967957,0.05032047629356384
1772019777692917000,2.6649169921875,0.011483177542686462,0.013226634822785854,0.00857169646769762
1772019777712883200,2.68488330078125,0.013652374036610126,0.02547546848654747,-0.0028041251935064793
1772019777732850200,2.70485009765625,0.0375942625105381,0.0006888331845402718,-0.017951784655451775
1772019777752816000,2.724816162109375,0.05304243788123131,-0.01924002356827259,-0.010630888864398003
1772019777772782000,2.744781982421875,0.059160832315683365,-0.03784242272377014,0.01212821900844574
1772019777792748300,2.764748291015625,0.05553704500198364,-0.02780124917626381,-0.008186642080545425
1772019777812714000,2.7847138671875,0.05912984535098076,-0.03535459190607071,-0.03918902948498726
1772019777832680200,2.80468017578125,0.06874300539493561,-0.039135903120040894,0.003635261207818985
1772019777852647200,2.824647216796875,0.07431364059448242,-0.10031821578741074,0.04628685116767883
1772019777872613000,2.844613037109375,0.05324244126677513,-0.11289647221565247,0.05593695491552353
1772019777892579000,2.8645791015625,0.011034074239432812,-0.05285489186644554,0.048248935490846634
1772019777912545300,2.884545166015625,-0.014417391270399094,-0.013150142505764961,0.0025710677728056908
1772019777932511000,2.904510986328125,-0.010395560413599014,0.012078722938895226,-0.08030784130096436
1772019777952478200,2.924478271484375,0.02561374194920063,-0.008471648208796978,-0.12123715877532959
1772019777972444200,2.944444091796875,0.04594792053103447,-0.07300576567649841,-0.0978466123342514
1772019777992410000,2.96441015625,0.06274218112230301,-0.0824740082025528,-0.040403299033641815
1772019778012376300,2.984376220703125,0.06456436216831207,-0.01985464245080948,0.03564339503645897
1772019778032342300,3.00434228515625,0.03324200585484505,0.012475858442485332,0.061345431953668594
1772019778052309200,3.024309326171875,-0.00043078605085611343,-0.0039224582724273205,0.03942988067865372
1772019778072275500,3.044275390625,-0.028307361528277397,0.022725917398929596,0.016787011176347733
1772019778092241400,3.064241455078125,-0.047551229596138,0.021591074764728546,-0.005866493098437786
1772019778112207000,3.08420703125,-0.0443839356303215,-0.010041537694633007,0.022890448570251465
1772019778132173300,3.10417333984375,-0.07023957371711731,0.005955604836344719,0.0721590593457222
1772019778152139300,3.12413916015625,-0.07049988955259323,0.01844117045402527,0.08180556446313858
1772019778172106200,3.144106201171875,-0.07423828542232513,0.038198117166757584,0.0612543486058712
1772019778192072400,3.164072509765625,-0.0584234744310379,0.06165425479412079,0.03594619408249855
1772019778212038400,3.184038330078125,-0.03418932855129242,0.039613258093595505,0.0000063069164752960205
1772019778232004000,3.204004150390625,-0.016967881470918655,0.0025781402364373207,-0.04066868871450424
1772019778251970300,3.22397021484375,-0.021963123232126236,-0.0356922373175621,-0.030948147177696228
1772019778271937300,3.243937255859375,-0.042221881449222565,0.00548170693218708,0.02327275089919567
1772019778291903200,3.2639033203125,-0.046730685979127884,0.03915039822459221,0.051262836903333664
1772019778311869400,3.283869384765625,-0.04068509489297867,0.04179807007312775,0.04195775091648102
1772019778331835400,3.30383544921875,-0.04081758111715317,0.019828345626592636,0.03712158277630806
1772019778351801300,3.32380126953125,-0.049728382378816605,0.011447308585047722,0.04482876509428024
1772019778371768300,3.343768310546875,-0.04560590162873268,0.02596527338027954,0.04389972612261772
1772019778391734300,3.363734375,-0.030921494588255882,0.013427644968032837,0.033085159957408905
1772019778411700200,3.3837001953125,-0.031722281128168106,0.008328646421432495,0.019751910120248795
1772019778431666400,3.40366650390625,-0.04781461879611015,0.019350972026586533,0.006929593160748482
1772019778451632400,3.42363232421875,-0.041814133524894714,0.019992128014564514,-0.01938350684940815
1772019778471598300,3.443598388671875,-0.03520412743091583,0.010056350380182266,-0.023778922855854034
1772019778491565300,3.4635654296875,-0.024444054812192917,0.009793579578399658,0.012988947331905365
1772019778511531300,3.48353125,-0.01446717232465744,0.02775353565812111,0.04767662286758423
1772019778531497200,3.503497314453125,-0.004204446449875832,-0.02299618348479271,0.030021190643310547
1772019778551463400,3.52346337890625,-0.001975082792341709,-0.024088624864816666,-0.004286177922040224
1772019778571429400,3.543429443359375,0.006458955816924572,0.005767474882304668,-0.011518124490976334
1772019778591396400,3.563396240234375,0.023432880640029907,-0.013733522035181522,-0.028304029256105423
1772019778611362300,3.5833623046875,0.05972895398736,-0.014329934492707253,-0.024649374186992645
1772019778631328300,3.603328369140625,0.07890662550926208,-0.007325335405766964,0.014875400811433792
1772019778651294200,3.623294189453125,0.07699082791805267,-0.021498801186680794,0.0498749241232872
1772019778671260400,3.643260498046875,0.07159677892923355,-0.041414063423871994,0.061047956347465515
1772019778691226400,3.663226318359375,0.061619747430086136,-0.03926116228103638,0.06467197835445404
1772019778711193300,3.683193359375,0.030940957367420197,-0.028590252622961998,0.0394250825047493
1772019778731159300,3.7031591796875,-0.004904339089989662,-0.013105947524309158,0.010814348235726357
1772019778751125200,3.723125244140625,-0.024175217375159264,-0.00754522206261754,0.006580451503396034
1772019778771091200,3.74309130859375,-0.04885405674576759,0.03634396195411682,0.03605112433433533
1772019778791057400,3.763057373046875,-0.06191982701420784,0.00413171760737896,0.04802548885345459
1772019778811023400,3.7830234375,-0.07688978314399719,-0.0058413902297616005,0.05333157628774643
1772019778830990300,3.802990234375,-0.08740440011024475,0.03905118256807327,0.04718140512704849
1772019778850956300,3.822956298828125,-0.07976186275482178,0.05892911180853844,0.04949276149272919
1772019778870922200,3.842922119140625,-0.07844065874814987,0.05645870044827461,0.05777626112103462
1772019778890888200,3.86288818359375,-0.09473013132810593,0.05508642643690109,0.046780068427324295
1772019778910854400,3.8828544921875,-0.10201264917850494,0.029863711446523666,0.013610524125397205
1772019778930820400,3.9028203125,-0.10716602206230164,0.03853567689657211,-0.03176933526992798
1772019778950787300,3.922787353515625,-0.12485087662935257,0.0775773823261261,-0.053676899522542953
1772019778970753300,3.942753173828125,-0.1350431889295578,0.08558499813079834,-0.03889089822769165
1772019778990719200,3.96271923828125,-0.12748463451862335,0.0810619443655014,-0.02380981296300888
1772019779010685200,3.982685302734375,-0.07409848272800446,0.07423245161771774,-0.04222743958234787
1772019779030651100,4.002651123046875,-0.047393132001161575,0.03749895840883255,-0.04045404493808746
1772019779050617300,4.022617431640625,-0.02580275759100914,0.0014037694782018661,-0.005325215868651867
1772019779070584000,4.042583984375,0.00784207135438919,-0.020222388207912445,0.03427679091691971
1772019779090550300,4.06255029296875,0.007391205057501793,-0.027196042239665985,0.03980591520667076
1772019779110516000,4.082515869140625,-0.008845146745443344,0.006451158784329891,0.03138939291238785
1772019779130482200,4.102482177734375,-0.027522917836904526,0.032489363104104996,0.038794972002506256
1772019779150448000,4.1224482421875,-0.053104154765605927,0.0381505973637104,0.06576467305421829
1772019779170414300,4.142414306640625,-0.0949416235089302,0.05971852317452431,0.1036277711391449
1772019779190381000,4.162381103515625,-0.11319975554943085,0.09380379319190979,0.09146910905838013
1772019779210347300,4.18234716796875,-0.08188009262084961,0.08192475140094757,0.0390624925494194
1772019779230313000,4.20231298828125,-0.06964841485023499,0.06054360419511795,0.04565674439072609
1772019779250279200,4.222279052734375,-0.06518826633691788,0.04257218539714813,0.09030623733997345
1772019779270245000,4.2422451171875,-0.06287482380867004,0.02879508212208748,0.10768389701843262
1772019779290211300,4.26221142578125,-0.06080218777060509,0.020751716569066048,0.094459168612957
1772019779310178000,4.282177978515625,-0.05184488743543625,0.02380731701850891,0.06031012162566185
1772019779330144300,4.302144287109375,-0.033455923199653625,0.0084792859852314,0.014754480682313442
1772019779350110000,4.32210986328125,-0.01762530580163002,0.032828494906425476,-0.029465440660715103
1772019779370076200,4.342076171875,-0.006474485620856285,-0.007518738973885775,-0.005175814963877201
1772019779390042000,4.3620419921875,0.027157027274370193,-0.020094677805900574,0.08784680813550949
1772019779410008300,4.38200830078125,0.06955339014530182,-0.017361555248498917,0.167037233710289
1772019779429975000,4.40197509765625,0.06845832616090775,-0.07133400440216064,0.1716490238904953
1772019779449941200,4.421941162109375,0.010831685736775398,-0.11021490395069122,0.10489476472139359
1772019779469907000,4.441906982421875,-0.054072823375463486,-0.05243409052491188,0.027789991348981857
1772019779489873200,4.461873046875,-0.1155247613787651,0.04058251529932022,-0.05726165324449539
1772019779509839000,4.481839111328125,-0.14335897564888,0.06566667556762695,-0.12995636463165283
1772019779529805000,4.50180517578125,-0.10475444048643112,0.055785492062568665,-0.13300448656082153
1772019779549772000,4.52177197265625,-0.03128734976053238,0.04374357685446739,-0.08177697658538818
1772019779569738200,4.54173828125,-0.017953649163246155,0.009215199388563633,-0.024646049365401268
1772019779589704000,4.561703857421875,-0.030197206884622574,0.004296213388442993,0.010770135559141636
1772019779609670100,4.581670166015625,-0.005387408193200827,0.03318992257118225,0.0001501074293628335
1772019779629636000,4.601635986328125,0.0056302789598703384,0.0542026050388813,-0.04184940829873085
1772019779649602000,4.62160205078125,-0.012290741316974163,0.04662385582923889,-0.06956426054239273
1772019779669568000,4.641568115234375,-0.05502850562334061,0.03744090348482132,-0.09959498792886734
1772019779689535200,4.66153515625,-0.08606553077697754,0.003045829012989998,-0.12196861207485199
1772019779709501000,4.6815009765625,-0.10128303617238998,0.013071145862340927,-0.10744985938072205
1772019779729467100,4.701467041015625,-0.09516102075576782,0.11304556578397751,-0.0856524109840393
1772019779749433000,4.72143310546875,-0.06925062090158463,0.17021122574806213,-0.0327584408223629
1772019779769399000,4.74139892578125,0.0023494670167565346,0.11688611656427383,0.013415713794529438
1772019779789365000,4.761364990234375,0.053807660937309265,0.022523237392306328,0.06373507529497147
1772019779809332200,4.781332275390625,0.04892469197511673,-0.03873144090175629,0.11341874301433563
1772019779829298000,4.8012978515625,0.008042708970606327,-0.09869449585676193,0.12810806930065155
1772019779849264000,4.82126416015625,-0.05204299837350845,-0.09551042318344116,0.107554592192173
1772019779869230000,4.84122998046875,-0.10578791052103043,-0.03877158463001251,0.04664503410458565
1772019779889196000,4.861196044921875,-0.12209268659353256,-0.02992304041981697,-0.018728379160165787
1772019779909162000,4.881161865234375,-0.11875228583812714,0.00413879007101059,-0.034002672880887985
1772019779929128200,4.901128173828125,-0.07982920855283737,0.028913911432027817,-0.010299870744347572
1772019779949095000,4.921094970703125,-0.0163038969039917,-0.004969521425664425,0.016188330948352814
1772019779969061000,4.94106103515625,0.0169186033308506,-0.03605279698967934,0.043407827615737915
1772019779989027000,4.961027099609375,0.018739283084869385,-0.03970571607351303,0.03431325778365135
1772019780008993000,4.980992919921875,0.042061612010002136,-0.0398101806640625,-0.0016496615717187524
1772019780028958700,5.000958740234375,0.05034869536757469,-0.036487922072410583,-0.015964549034833908
1772019780048925000,5.020925048828125,0.034633178263902664,-0.024460438638925552,-0.0036500967107713223
1772019780068891000,5.040890869140625,0.020408624783158302,-0.010710193775594234,0.026966532692313194
1772019780088857900,5.06085791015625,-0.0004898305051028728,-0.0030424981378018856,0.048992082476615906
1772019780108823800,5.08082373046875,-0.01913425698876381,-0.012638588435947895,0.05619020015001297
1772019780128790000,5.1007900390625,0.002327702706679702,-0.05530809983611107,0.03842997923493385
1772019780148755700,5.120755615234375,0.00348716601729393,-0.077277772128582,0.015546100214123726
1772019780168722000,5.140721923828125,-0.0008385810069739819,-0.07394919544458389,0.0037178038619458675
1772019780188688000,5.16068798828125,0.02196667715907097,-0.012687783688306808,0.011378787457942963
1772019780208653800,5.18065380859375,0.05446988716721535,-0.007837408222258091,0.0388406440615654
1772019780228620800,5.200620849609375,0.06915675103664398,-0.03938163444399834,0.06610608100891113
1772019780248587000,5.2205869140625,0.06942424178123474,-0.012867841869592667,0.0923113152384758
1772019780268552700,5.240552734375,0.07822076976299286,0.03951340913772583,0.08650615811347961
1772019780288519000,5.260518798828125,0.10915489494800568,0.05511500686407089,0.06417808681726456
1772019780308484900,5.28048486328125,0.13106542825698853,0.023194368928670883,0.07288049161434174
1772019780328448800,5.30044873046875,0.135623961687088,-0.07279501110315323,0.10193237662315369
1772019780348415000,5.3204150390625,0.11184344440698624,-0.1464034616947174,0.12653027474880219
1772019780368380700,5.340380615234375,0.07722709327936172,-0.08309562504291534,0.12084495276212692
1772019780388347000,5.360346923828125,0.046657830476760864,-0.010670892894268036,0.09261438250541687
1772019780408312800,5.380312744140625,0.018825048580765724,0.060570523142814636,0.06970814615488052
1772019780428279000,5.400279052734375,0.0004781973548233509,0.09119012206792831,0.05415540933609009
1772019780448244700,5.42024462890625,-0.01693911664187908,-0.03134310618042946,0.02440616860985756
1772019780468212000,5.4402119140625,-0.046495385468006134,-0.15814830362796783,0.011954958550632
1772019780488177700,5.460177734375,-0.061752207577228546,-0.13337351381778717,-0.0020407538395375013
1772019780508143900,5.480143798828125,-0.056383438408374786,-0.054228298366069794,-0.011346369050443172
1772019780528109800,5.50010986328125,-0.035366252064704895,-0.023401105776429176,-0.004069546237587929
1772019780548076000,5.520075927734375,-0.004426333121955395,0.005110590718686581,0.009070753119885921
1772019780568041700,5.540041748046875,-0.005460276268422604,0.028903469443321228,0.055448904633522034
1772019780588008000,5.560008056640625,-0.0013998071663081646,0.019790364429354668,0.09159331768751144
1772019780607974000,5.579973876953125,-0.013325655832886696,-0.032073065638542175,0.06516464799642563
1772019780627940900,5.59994091796875,-0.0558762326836586,-0.04386775195598602,0.0011080342810600996
1772019780647906800,5.61990673828125,-0.08145621418952942,-0.05789652094244957,-0.06863882392644882
1772019780667873000,5.639873046875,-0.10870629549026489,0.008616978302598,-0.1136370599269867
1772019780687838700,5.659838623046875,-0.14578650891780853,0.11624301970005035,-0.14770781993865967
1772019780707805000,5.679804931640625,-0.1421739012002945,0.14830559492111206,-0.18465904891490936
1772019780727774000,5.69977392578125,-0.0909830629825592,0.1340179741382599,-0.19910988211631775
1772019780747740000,5.719739990234375,-0.04227488115429878,0.13688378036022186,-0.16875503957271576
1772019780767705900,5.739705810546875,0.019627954810857773,0.0658716931939125,-0.1230168491601944
1772019780787671800,5.759671875,0.04197240620851517,0.07615406066179276,-0.09613436460494995
1772019780807638000,5.779637939453125,0.1275354027748108,-0.04796333238482475,-0.03263155743479729
1772019780827604700,5.799604736328125,0.0781131312251091,-0.09102606028318405,-0.021637367084622383
1772019780847571000,5.819571044921875,0.02007610723376274,-0.0866956114768982,-0.041693489998579025
1772019780867537000,5.839536865234375,-0.003281355369836092,-0.056756917387247086,-0.0811929702758789
1772019780887502800,5.8595029296875,-0.009854462929069996,-0.06287573277950287,-0.08298474550247192
1772019780907468800,5.87946875,-0.011408630758523941,0.003896246664226055,-0.02785758301615715
1772019780927435000,5.89943505859375,0.026254724711179733,-0.008548912592232227,0.02650485374033451
1772019780947400700,5.919400634765625,0.06380785256624222,-0.0850415751338005,0.07858484983444214
1772019780967367000,5.939366943359375,0.0498272106051445,-0.12267380207777023,0.10883676260709763
1772019780987334000,5.959333984375,0.02673097513616085,-0.1583123356103897,0.09668568521738052
1772019781007299800,5.9792998046875,0.009568019770085812,-0.14286305010318756,0.05190383642911911
1772019781027265500,5.999265625,0.0022159400396049023,-0.11777883023023605,0.02723870240151882
1772019781047231700,6.019231689453125,0.0002371068112552166,-0.09401247650384903,0.03959362581372261
1772019781067197400,6.039197509765625,-0.0003223433159291744,-0.053628917783498764,0.0676131471991539
1772019781087163600,6.05916357421875,-0.0006458107382059097,-0.03329562023282051,0.080718033015728
1772019781107129600,6.079129638671875,-0.007436845451593399,-0.03960157185792923,0.08564288169145584
1772019781127095800,6.099095703125,-0.022486822679638863,-0.028931699693202972,0.08022721856832504
1772019781147061500,6.1190615234375,-0.01224140077829361,-0.027703333646059036,0.08142683655023575
1772019781167028700,6.13902880859375,0.003382912604138255,-0.0041897292248904705,0.08095105737447739
1772019781186994400,6.158994384765625,0.023660246282815933,0.04340776428580284,0.06745908409357071
1772019781206960600,6.178960693359375,0.08443976193666458,0.07674045115709305,0.0550713911652565
1772019781226926600,6.198926513671875,0.1624279022216797,0.07079659402370453,0.052955109626054764
1772019781246892800,6.218892822265625,0.1960824728012085,0.02609487622976303,0.07059215754270554
1772019781266858500,6.2388583984375,0.17334435880184174,-0.05165667086839676,0.056205492466688156
1772019781286824700,6.25882470703125,0.14694614708423615,-0.13237634301185608,0.012214608490467072
1772019781306790700,6.278790771484375,0.13412529230117798,-0.14440934360027313,-0.06515327841043472
1772019781326757600,6.298757568359375,0.1159415990114212,-0.08994966000318527,-0.11102037876844406
1772019781346723600,6.3187236328125,0.1572316437959671,-0.08042523264884949,-0.11011956632137299
1772019781366689800,6.338689697265625,0.19925960898399353,-0.04015960544347763,-0.049161795526742935
1772019781386655500,6.358655517578125,0.20398810505867004,-0.011160674504935741,0.06888947635889053
1772019781406621700,6.37862158203125,0.15164829790592194,-0.0037269899621605873,0.1675952672958374
1772019781426587600,6.398587646484375,0.11790682375431061,-0.01727425679564476,0.15991723537445068
1772019781446553600,6.4185537109375,0.08437056839466095,-0.025748226791620255,0.08396988362073898
1772019781466519600,6.43851953125,0.052226029336452484,-0.03453961759805679,0.016355562955141068
1772019781486485800,6.45848583984375,0.03040238469839096,-0.04756323993206024,-0.012800199910998344
1772019781506452500,6.478452392578125,-0.02351650595664978,-0.03209533542394638,-0.0013012023409828544
1772019781526418700,6.498418701171875,-0.07034994661808014,-0.005594843998551369,0.004206477198749781
1772019781546384600,6.518384521484375,-0.07709323614835739,0.006299542263150215,-0.014033783227205276
1772019781566350600,6.5383505859375,-0.08960585296154022,0.00933741219341755,-0.03144858777523041
1772019781586316500,6.558316650390625,-0.0977417379617691,-0.014789734035730362,-0.030071072280406952
1772019781606282800,6.57828271484375,-0.0909777581691742,-0.03847438097000122,-0.038839928805828094
1772019781626248700,6.598248779296875,-0.10303239524364471,-0.015785105526447296,-0.055812787264585495
1772019781646214700,6.618214599609375,-0.1215023547410965,0.012658313848078251,-0.07362654060125351
1772019781666180600,6.6381806640625,-0.12061070650815964,0.0044495342299342155,-0.07484614104032516
1772019781686146600,6.658146484375,-0.12883515655994415,-0.030929937958717346,-0.09116105735301971
1772019781706113500,6.678113525390625,-0.14013469219207764,-0.04770119488239288,-0.10486116260290146
1772019781726079700,6.698079833984375,-0.13634248077869415,-0.07645871490240097,-0.11176499724388123
1772019781746045700,6.718045654296875,-0.13398264348506927,-0.13946831226348877,-0.09978184103965759
1772019781766011600,6.73801171875,-0.13855710625648499,-0.09699180722236633,-0.06950889527797699
1772019781785977600,6.7579775390625,-0.1327667534351349,-0.02024225890636444,-0.07316648215055466
1772019781805943800,6.77794384765625,-0.08927515149116516,-0.03161659091711044,-0.06927640736103058
1772019781825909500,6.797909423828125,-0.0622643306851387,-0.058462999761104584,-0.01911403238773346
1772019781845875500,6.81787548828125,-0.042141322046518326,-0.018131734803318977,0.03591087460517883
1772019781865841700,6.837841552734375,-0.02957540936768055,-0.038621000945568085,0.04012586176395416
1772019781885808600,6.85780859375,-0.007262357976287603,-0.03159930929541588,0.015591615810990334
1772019781905774600,6.877774658203125,0.029961150139570236,0.00029136426746845245,0.008761806413531303
1772019781925740800,6.89774072265625,0.04972992092370987,0.023341353982686996,0.03096257895231247
1772019781945706500,6.91770654296875,0.06529255956411362,0.00029272492974996567,0.04158100485801697
1772019781965672700,6.937672607421875,0.06989002972841263,-0.01888320967555046,0.05504221469163895
1772019781985638700,6.957638671875,0.06042958050966263,-0.04636227712035179,0.06004577502608299
1772019782005604600,6.9776044921875,0.026946771889925003,-0.0429021492600441,0.06308603286743164
1772019782025570300,6.9975703125,-0.00824621133506298,-0.01609855517745018,0.04323509335517883
1772019782045536500,7.01753662109375,-0.039907947182655334,-0.0188509039580822,0.006484802812337875
1772019782065502500,7.03750244140625,-0.060938507318496704,-0.012115025892853737,-0.013227651827037334
1772019782085468400,7.057468505859375,-0.028544321656227112,-0.02000848948955536,-0.010089515708386898
1772019782105435400,7.077435302734375,-0.006355796474963427,-0.02286599576473236,0.03449779003858566
1772019782125401600,7.097401611328125,-0.013883030973374844,-0.0077304900623857975,0.07625629752874374
1772019782145367300,7.1173671875,-0.009227640926837921,-0.014403214678168297,0.06067134067416191
1772019782165333500,7.13733349609375,-0.009862592443823814,-0.0021782666444778442,0.027599403634667397
1772019782185299500,7.157299560546875,-0.002232267986983061,0.019284602254629135,0.01266226265579462
1772019782205265400,7.177265380859375,0.029152102768421173,0.0012932568788528442,-0.003885952290147543
1772019782225231400,7.1972314453125,0.029280632734298706,-0.012712759897112846,0.0006134628783911467
1772019782245197300,7.217197265625,0.030565982684493065,-0.018319841474294662,0.03022090159356594
1772019782265163500,7.23716357421875,0.030816789716482162,-0.02738608419895172,0.04345652461051941
1772019782285129200,7.257129150390625,-0.0025864881463348866,-0.013348722830414772,0.0322137326002121
1772019782305095400,7.277095458984375,-0.0071847569197416306,0.0031524626538157463,0.01821589097380638
1772019782325062400,7.2970625,0.010190961882472038,0.01253101509064436,-0.0009821663843467832
1772019782345028400,7.3170283203125,0.013998927548527718,0.0250968299806118,-0.008860206231474876
1772019782364994600,7.33699462890625,0.026577569544315338,0.011908058077096939,0.011986220255494118
1772019782384960500,7.35696044921875,0.026119910180568695,-0.019328758120536804,0.026684075593948364
1772019782404926200,7.37692626953125,0.0013738437555730343,-0.012043800204992294,0.014701050706207752
1772019782424892400,7.396892333984375,-0.0051895384676754475,0.018615566194057465,-0.030462559312582016
1772019782444858400,7.4168583984375,-0.009120883420109749,0.019237292930483818,-0.0536377988755703
1772019782464824300,7.43682421875,-0.018481839448213577,0.03150516748428345,-0.02813403680920601
1772019782484790300,7.456790283203125,-0.0016129822470247746,0.034269072115421295,-0.0007829774986021221
1772019782504756500,7.476756591796875,0.037019602954387665,0.023201093077659607,0.008269239217042923
1772019782524722400,7.496722412109375,0.04480856657028198,0.006951279006898403,0.002548784948885441
1772019782544689400,7.516689453125,0.024786382913589478,-0.006126043386757374,-0.01260780543088913
1772019782564655400,7.5366552734375,0.013102671131491661,0.004039029590785503,-0.025212543085217476
1772019782584621300,7.556621337890625,0.021419981494545937,0.026368705555796623,-0.02747197635471821
1772019782604587300,7.576587158203125,0.004224749747663736,0.020021595060825348,-0.006121414713561535
1772019782624553500,7.596553466796875,-0.017185622826218605,0.031733427196741104,0.024555807933211327
1772019782644519400,7.61651953125,-0.038738880306482315,0.06089676171541214,0.04043051227927208
1772019782664485400,7.6364853515625,-0.04399128630757332,0.06438187509775162,0.04615655913949013
1772019782684451300,7.656451416015625,-0.0328279472887516,0.07332270592451096,0.03000529110431671
1772019782704417500,7.67641748046875,-0.008855126798152924,0.0815868079662323,0.006567348726093769
1772019782724383200,7.69638330078125,-0.041114769876003265,0.07552027702331543,-0.008695625700056553
1772019782744349400,7.716349365234375,-0.10834994912147522,0.13313312828540802,-0.022958992049098015
1772019782764315400,7.7363154296875,-0.17758290469646454,0.1927747279405594,-0.07798536121845245
1772019782784281600,7.756281494140625,-0.21904946863651276,0.21837005019187927,-0.12626966834068298
1772019782804248300,7.776248291015625,-0.22052332758903503,0.22792237997055054,-0.13385367393493652
1772019782824214500,7.796214599609375,-0.1753598004579544,0.20615053176879883,-0.09232248365879059
1772019782844180200,7.81618017578125,-0.09073013067245483,0.154976025223732,-0.0156125258654356
1772019782864146400,7.836146484375,-0.015880711376667023,0.0759618729352951,0.0497310571372509
1772019782884112400,7.8561123046875,0.04500250145792961,0.014660120010375977,0.0950697809457779
1772019782904078600,7.87607861328125,0.0671364963054657,0.008290587924420834,0.10417100042104721
1772019782924044300,7.896044189453125,0.04449976608157158,-0.01186064537614584,0.08475600928068161
1772019782944010500,7.916010498046875,0.024510957300662994,-0.01908288151025772,0.07565787434577942
1772019782963976400,7.9359765625,0.017732247710227966,0.00754412729293108,0.04260138422250748
1772019782983942400,7.9559423828125,-0.00014088768512010574,0.0353248193860054,-0.0018077569548040628
1772019783003908400,7.975908447265625,-0.01863405480980873,0.04345952346920967,-0.010837484151124954
1772019783023875000,7.995875,-0.01264105923473835,0.03960476443171501,0.0025602157693356276
1772019783043841000,8.015841064453125,-0.0016594603657722473,0.027086861431598663,0.020526699721813202
1772019783063807000,8.035806884765625,0.007608018349856138,-0.0015922077000141144,0.02834494039416313
1772019783083774200,8.055774169921875,0.0021808177698403597,-0.010134274140000343,0.02876199409365654
1772019783103740200,8.075740234375,-0.00660774065181613,0.010880578309297562,0.022702492773532867
1772019783123706000,8.0957060546875,-0.0051799071952700615,0.006527949124574661,0.0025077443569898605
1772019783143672300,8.11567236328125,-0.006141532212495804,0.00818442553281784,-0.014852993190288544
1772019783163638000,8.135637939453124,-0.014015279710292816,0.012364476919174194,-0.019687701016664505
1772019783183604000,8.15560400390625,-0.0035066427662968636,-0.018845317885279655,-0.03412563353776932
1772019783203570200,8.175570068359375,-0.0020405310206115246,-0.030702786520123482,-0.03286954388022423
1772019783223536000,8.1955361328125,-0.013498376123607159,0.007502768188714981,-0.04579201340675354
1772019783243502000,8.215502197265625,-0.010628776624798775,0.07216190546751022,-0.0990297868847847
1772019783263468000,8.235468017578125,-0.01024797186255455,0.10129354894161224,-0.1663927286863327
1772019783283434200,8.255434326171875,-0.014232903718948364,0.14108625054359436,-0.22231552004814148
1772019783303400000,8.27539990234375,-0.006413805764168501,0.19208315014839172,-0.23139183223247528
1772019783323366100,8.2953662109375,0.043174996972084045,0.1731867492198944,-0.18569983541965485
1772019783343332000,8.31533203125,0.1066700667142868,0.11240184307098389,-0.08284083753824234
1772019783363298300,8.33529833984375,0.18978014588356018,0.03303141891956329,0.04228391498327255
1772019783383264000,8.355263916015625,0.25491148233413696,-0.002797987312078476,0.14737452566623688
1772019783403231200,8.375231201171875,0.25772905349731445,-0.00045229773968458176,0.17609059810638428
1772019783423197000,8.395197021484375,0.2204144150018692,0.023487020283937454,0.17165562510490417
1772019783443163100,8.4151630859375,0.1573868691921234,0.024589363485574722,0.14860595762729645
1772019783463129000,8.435129150390624,0.10709798336029053,-0.00710407504811883,0.1195647343993187
1772019783483095300,8.45509521484375,0.06132211536169052,-0.01113006379455328,0.09279128164052963
1772019783503061000,8.47506103515625,0.028263818472623825,0.023166954517364502,0.05519573390483856
1772019783523027200,8.495027099609375,0.01751573383808136,0.02446364238858223,0.013049199245870113
1772019783542993200,8.5149931640625,0.010292792692780495,0.014712109230458736,-0.024839725345373154
1772019783562959000,8.534958984375,0.009015019051730633,-0.006277020089328289,-0.0753384530544281
1772019783582925000,8.554925048828125,0.006929649040102959,-0.012643875554203987,-0.13461829721927643
1772019783602891300,8.574891357421874,-0.034071408212184906,-0.01010982133448124,-0.15991751849651337
1772019783622857200,8.594857177734376,-0.10776574164628983,0.03399812430143356,-0.19071300327777863
1772019783642823200,8.6148232421875,-0.17252208292484283,0.06957107782363892,-0.2796565592288971
1772019783662789000,8.6347890625,-0.20257365703582764,0.07137489318847656,-0.34056371450424194
1772019783682755300,8.65475537109375,-0.2076779305934906,0.05922101065516472,-0.30187785625457764
1772019783702721000,8.674720947265625,-0.18427854776382446,0.05163101851940155,-0.20635533332824707
1772019783722687000,8.69468701171875,-0.11281983554363251,0.030186042189598083,-0.12346111983060837
1772019783742654200,8.714654296875,-0.02823534794151783,0.010006947442889214,-0.04968143627047539
1772019783762620200,8.7346201171875,0.025616593658924103,-0.02248014509677887,-0.002290074247866869
1772019783782586000,8.754586181640626,0.040854062885046005,-0.04640636593103409,0.015703028067946434
1772019783802552300,8.77455224609375,0.03148730471730232,-0.08623337000608444,0.027628134936094284
1772019783822518000,8.79451806640625,0.0032075580675154924,-0.04496774449944496,0.04666280746459961
1772019783842484000,8.81448388671875,-0.0024166000075638294,-0.005630137864500284,0.005983293987810612
1772019783862450200,8.8344501953125,-0.024249423295259476,0.013058522716164589,-0.07556163519620895
1772019783882416000,8.854416015625,-0.05434346944093704,0.07241664081811905,-0.12035894393920898
1772019783902382000,8.874382080078124,-0.052495185285806656,0.06226330250501633,-0.1053561419248581
1772019783922348000,8.89434814453125,-0.05291355773806572,0.004981154575943947,-0.05027306079864502
1772019783942314200,8.914314208984376,-0.07696501910686493,0.010373949073255062,0.002772715874016285
1772019783962280000,8.934280029296875,-0.07332438230514526,-0.010546298697590828,0.005395391024649143
1772019783982246100,8.95424609375,-0.08318276703357697,-0.03207024931907654,-0.028855910524725914
1772019784002212000,8.974212158203125,-0.1020708754658699,-0.05833018571138382,-0.06207950785756111
1772019784022178000,8.994177978515625,-0.10643720626831055,-0.09355992078781128,-0.07731866091489792
1772019784042144000,9.01414404296875,-0.1181095764040947,-0.0949876457452774,-0.09760768711566925
1772019784062110000,9.03410986328125,-0.11455091089010239,-0.09086696803569794,-0.11944027990102768
1772019784082076200,9.054076171875,-0.11793718487024307,-0.08189751207828522,-0.1027437224984169
1772019784102041900,9.074041748046875,-0.12330276519060135,-0.07061773538589478,-0.07153573632240295
1772019784122008000,9.094008056640625,-0.09361343830823898,-0.07040045410394669,-0.06661555916070938
1772019784141974000,9.11397412109375,-0.08087144792079926,-0.06444407254457474,-0.06431218981742859
1772019784161940200,9.133940185546875,-0.07824021577835083,-0.06316348910331726,-0.05329376086592674
1772019784181906000,9.153906005859374,-0.04645612835884094,-0.12123183161020279,-0.04461292177438736
1772019784201873200,9.173873046875,-0.016082726418972015,-0.10962581634521484,-0.038741838186979294
1772019784221838800,9.1938388671875,-0.003152064047753811,-0.060198575258255005,-0.031710170209407806
1772019784241805000,9.21380517578125,0.010428138077259064,-0.058326851576566696,-0.030541719868779182
1772019784261771000,9.23377099609375,0.010337581858038902,-0.07387983798980713,-0.02644975483417511
1772019784281737200,9.2537373046875,0.01683666557073593,-0.08212520182132721,-0.018869593739509583
1772019784301703000,9.273702880859375,-0.00610489072278142,-0.11332502216100693,-0.03625018894672394
1772019784321669000,9.293669189453125,-0.06639654189348221,-0.14258338510990143,-0.052828650921583176
1772019784341632000,9.313632080078126,-0.12833945453166962,-0.1758730262517929,-0.04921114072203636
1772019784361598000,9.333597900390625,-0.14878074824810028,-0.21901534497737885,-0.04083270952105522
1772019784381564200,9.353564208984375,-0.10388636589050293,-0.18450726568698883,-0.03715421259403229
1772019784401530000,9.373530029296875,-0.050168365240097046,-0.1147177591919899,-0.01908998377621174
1772019784421495800,9.393495849609375,-0.044874243438243866,-0.03916539251804352,-0.030461672693490982
1772019784441462000,9.4134619140625,-0.061931464821100235,-0.025900911539793015,-0.05426860600709915
1772019784461428000,9.433427978515626,-0.07038664072751999,-0.008584286086261272,-0.0626320093870163
1772019784481394200,9.453394287109376,-0.067716583609581,-0.0010274401865899563,-0.046878475695848465
1772019784501359900,9.47335986328125,-0.0466284342110157,-0.0038458178751170635,-0.046120535582304
1772019784521326000,9.493326171875,-0.016530070453882217,0.014993947930634022,-0.02985633909702301
1772019784541292000,9.5132919921875,-0.002205217257142067,0.024343769997358322,0.0019773361273109913
1772019784561258000,9.533258056640625,-0.010080747306346893,0.023631766438484192,0.0322730578482151
1772019784581225000,9.553224853515625,-0.005132952239364386,0.02668265625834465,0.06524793058633804
1772019784601190100,9.573190185546874,-0.0025125169195234776,0.02574845775961876,0.052443306893110275
1772019784621156900,9.593156982421876,-0.030879560858011246,0.03518234193325043,0.03450625762343407
1772019784641123000,9.613123046875,-0.028897400945425034,0.014686590060591698,0.011740214191377163
1772019784661089000,9.633089111328125,-0.01515193935483694,-0.023784290999174118,-0.0010160478996112943
1772019784681055000,9.653054931640625,-0.01823626644909382,0.006188690662384033,0.013183265924453735
1772019784701021000,9.67302099609375,0.008875216357409954,0.014893092215061188,0.00806906446814537
1772019784720988200,9.69298828125,0.04569205641746521,0.0030555371195077896,0.01699650287628174
1772019784740953900,9.712953857421875,0.060485564172267914,-0.0020076236687600613,0.030400196090340614
1772019784760920000,9.732920166015624,0.07629187405109406,-0.029078811407089233,0.03215828165411949
1772019784780886000,9.752885986328126,0.057510606944561005,-0.04017462953925133,0.041984543204307556
1772019784800852000,9.77285205078125,0.04112169146537781,-0.03032747656106949,0.024237366393208504
1772019784820818000,9.79281787109375,0.0691893994808197,-0.007193371653556824,-0.008802072145044804
1772019784840784100,9.8127841796875,0.08653785288333893,0.0038138926029205322,-0.019437534734606743
1772019784860750000,9.83275,0.05739405006170273,-0.022376228123903275,0.003227285575121641
1772019784880716000,9.852716064453125,0.03460970148444176,-0.026988353580236435,0.026858458295464516
1772019784900682000,9.872681884765624,0.04886651784181595,-0.035812824964523315,0.041496776044368744
1772019784920648200,9.892648193359374,0.05107661709189415,-0.013001264072954655,0.03732626140117645
1772019784940614000,9.91261376953125,0.06296630203723907,-0.013699626550078392,0.04246470704674721
1772019784960580000,9.932580078125,0.05002502351999283,-0.009494875557720661,0.053194720298051834
1772019784980546000,9.952546142578125,0.04231109097599983,0.004151542671024799,0.051902685314416885
1772019785000512000,9.972511962890625,0.05614656209945679,0.013866807334125042,0.033107541501522064
1772019785020478200,9.992478271484375,0.04361307993531227,-0.021524133160710335,0.022094853222370148
1772019785040444400,10.0124443359375,0.01932019554078579,-0.03114934265613556,0.020195217803120613
1772019785060410400,10.032410400390624,0.007112826220691204,-0.006883992347866297,0.01858426257967949
1772019785080376300,10.052376220703126,0.0004817345179617405,0.01893991231918335,0.004942493047565222
1772019785100342300,10.07234228515625,-0.004883030895143747,0.013597818091511726,-0.0018893282394856215
1772019785120308500,10.09230859375,-0.016761790961027145,0.0062741488218307495,-0.006418402306735516
1772019785140274200,10.112274169921875,-0.013809645548462868,-0.025041138753294945,-0.027038345113396645
1772019785160240000,10.132240234375,-0.0029847542755305767,-0.03954453766345978,-0.039995547384023666
1772019785180206300,10.152206298828125,-0.01019488088786602,-0.024626918137073517,-0.03802802041172981
1772019785200172300,10.17217236328125,0.0018101190216839314,0.00011322833597660065,-0.033948980271816254
1772019785220138200,10.19213818359375,0.018329085782170296,-0.013261315412819386,-0.034538209438323975
1772019785240104200,10.212104248046876,0.023455483838915825,-0.025951478630304337,-0.026130491867661476
1772019785260070400,10.2320703125,0.026655368506908417,-0.02356416918337345,-0.011531028896570206
1772019785280036000,10.2520361328125,0.03202767297625542,-0.03848068043589592,-0.012817738577723503
1772019785300002300,10.272002197265625,0.02503838762640953,-0.039638862013816833,-0.01482788659632206
1772019785319968300,10.29196826171875,0.016914887353777885,-0.018020661547780037,-0.024357743561267853
1772019785339934500,10.3119345703125,0.006469256244599819,-0.000486704520881176,-0.033361099660396576
1772019785359900200,10.331900146484376,0.0031328785698860884,-0.009334386326372623,-0.042839955538511276
1772019785379866400,10.351866455078126,0.00405486486852169,-0.028645500540733337,-0.025968829169869423
1772019785399832300,10.371832275390625,0.0042064315639436245,-0.0794263407588005,-0.013085776008665562
1772019785419798300,10.39179833984375,0.009146386757493019,-0.1136595830321312,-0.0032918760553002357
1772019785439764200,10.41176416015625,-0.012971354648470879,-0.0833684504032135,0.03588626906275749
1772019785459730400,10.43173046875,-0.04715615138411522,-0.01303321123123169,0.033002886921167374
1772019785479696400,10.4516962890625,-0.04994872212409973,-0.010388368740677834,-0.009817700833082199
1772019785499662300,10.471662353515624,-0.038069386035203934,-0.01836404949426651,-0.04614998400211334
1772019785519628300,10.491628173828126,-0.02960631251335144,-0.02873700112104416,-0.039560411125421524
1772019785539594200,10.51159423828125,-0.025227123871445656,-0.05164242908358574,-0.007633497938513756
1772019785559560200,10.531560302734375,-0.01954195275902748,-0.03012486733496189,0.01823166012763977
1772019785579526100,10.551526123046875,-0.022104717791080475,-0.03498797118663788,0.012526492588222027
1772019785599492400,10.571492431640625,-0.03278881683945656,-0.00666858721524477,-0.010968581773340702
1772019785619458300,10.591458251953124,-0.03381916135549545,0.008207608014345169,-0.02787191979587078
1772019785639424300,10.61142431640625,0.0000019073486328125,-0.008912860415875912,-0.03472505509853363
1772019785659390200,10.63139013671875,0.015043563209474087,-0.01973806321620941,-0.032882675528526306
1772019785679356400,10.6513564453125,0.011114698834717274,-0.02489975467324257,-0.015308725647628307
1772019785699322000,10.671322021484375,0.005460656713694334,-0.0035818382166326046,-0.011876583099365234
1772019785719288300,10.691288330078125,0.006464661564677954,-0.020028356462717056,-0.022569851949810982
1772019785739254300,10.711254150390625,0.006542433053255081,-0.02871355600655079,-0.04043525829911232
1772019785759220500,10.731220458984374,0.006084810942411423,-0.017028283327817917,-0.0769641101360321
1772019785779186200,10.751186279296874,-0.002880462445318699,-0.0004252353683114052,-0.12053170055150986
1772019785799152400,10.77115234375,-0.008928973227739334,0.012323322705924511,-0.1640205979347229
1772019785819118300,10.791118408203126,-0.04908981919288635,0.012492582201957703,-0.22029410302639008
1772019785839084300,10.811084228515625,-0.0390438437461853,0.04739650338888168,-0.28887316584587097
1772019785859050200,10.83105029296875,-0.011214816942811012,0.11961930990219116,-0.39369145035743713
1772019785879016400,10.851016357421875,0.02744724601507187,0.2157166302204132,-0.43683162331581116
1772019785898982400,10.870982421875,-0.00007638195529580116,0.37354251742362976,-0.4838065505027771
1772019785918948000,10.890947998046874,-0.09612225741147995,0.4202425181865692,-0.14063815772533417
1772019785938914300,10.910914306640626,-0.09394972771406174,-0.08123493939638138,0.13131959736347198
1772019785958880300,10.93088037109375,0.02557653933763504,-0.27561578154563904,0.030948365107178688
1772019785978846200,10.95084619140625,0.11543925851583481,-0.13876447081565857,-0.16092945635318756
