time,seconds_elapsed,z,y,x
1772017994343748000,0.071748046875,0.13416297125220297,0.018368600383400917,-0.019064729421399532
1772017994363716000,0.091716064453125,0.15242752673923968,0.03556289629042148,0.020647559899743644
1772017994383684000,0.11168408203125,0.02492752050757408,0.03906476693153381,0.003271057559922337
1772017994403651800,0.13165185546875,0.04717500815093517,0.03450841880142688,-0.003485193500947207
1772017994423620000,0.1516201171875,-0.018824527457356452,-0.031037527820467946,0.015125654673110693
1772017994443588000,0.171588134765625,-0.06422317358553409,0.007173837152123451,-0.026825755344331265
1772017994463556400,0.191556396484375,0.06899696385860443,-0.012616320466995238,0.024370964337047187
1772017994483524400,0.2115244140625,0.09435001630187034,-0.07006839248239993,-0.023502784934081134
1772017994503493400,0.231493408203125,0.04311901075839996,-0.08408288930952548,-0.030869952701218423
1772017994523461400,0.25146142578125,0.02357376781105995,-0.04459902018308639,-0.004357647220231593
1772017994543429400,0.271429443359375,0.015397475618124008,-0.07362111652791499,-0.02799890904324129
1772017994563397400,0.2913974609375,-0.2128852103114128,0.012070669282972813,0.06373144454583525
1772017994583365000,0.311365234375,-0.08037818957269191,-0.24541677608191967,-0.1290877138145268
1772017994603333000,0.3313330078125,-0.0023836802661418915,-0.11857026532292365,-0.011557696525845675
1772017994623301400,0.35130126953125,-0.06685644469857216,-0.12032616907954215,-0.04947329342225566
1772017994643269400,0.371269287109375,-0.06579319938123226,-0.07448562440276145,0.02115114377401769
1772017994663237400,0.3912373046875,0.007518120545148849,-0.059657765366137025,0.0020954379092901943
1772017994683205400,0.411205322265625,0.06445172164440155,-0.07305734516531229,-0.035821145367808636
1772017994703173400,0.43117333984375,0.06289513985216617,-0.042377837002277374,-0.055890722716506566
1772017994723141000,0.45114111328125,0.08428104223012924,-0.02837912226617336,0.04055559001117944
1772017994743109000,0.471109130859375,-0.052182022657990455,-0.029103637148439884,-0.01763533593909815
1772017994763077400,0.491077392578125,0.0157943659812212,-0.029025895737111566,-0.05928995496705174
1772017994783045400,0.51104541015625,0.09583820903301238,-0.04988602067530155,-0.06143650200907141
1772017994803013400,0.531013427734375,0.12290215704739094,-0.006396715299785137,0.022142894757725295
1772017994822982400,0.550982421875,0.16114333263635636,-0.07288783381730318,-0.04844416957022622
1772017994842950400,0.570950439453125,0.12359481548666953,-0.10572539679706096,0.03606101853828877
1772017994862918400,0.59091845703125,-0.24112170923650264,-0.0524672693401575,0.01807982830358669
1772017994882886400,0.610886474609375,-0.15437340011000633,-0.07086509581804275,-0.006679021106194704
1772017994902854100,0.630854248046875,-0.0020657003581523894,-0.08568067989498376,0.04316005515484139
1772017994922822100,0.650822265625,-0.03415186044871807,-0.05851765542030334,-0.04117467175759375
1772017994942790100,0.6707900390625,0.04387713564932346,-0.08328238658159971,-0.0997312526824884
1772017994962758400,0.69075830078125,0.07425415373444556,-0.0923299086511135,-0.05959193358831107
1772017994982726400,0.710726318359375,0.078522332572937,-0.09706044430434703,-0.06407112482897936
1772017995002694400,0.7306943359375,-0.06337152519226073,-0.046593993392586706,-0.03814060129132121
1772017995022662400,0.750662353515625,-0.17271394344270227,-0.0456596351519227,-0.07825648471098393
1772017995042630100,0.770630126953125,-0.0006102408528327941,-0.06270400119423866,-0.03593706336505711
1772017995062598100,0.79059814453125,0.08257540735602378,-0.10269435853809118,-0.00044230040740221734
1772017995082566100,0.810566162109375,-0.10782090777158737,-0.08556172969043255,-0.03300322013655677
1772017995102534400,0.830534423828125,-0.18398644808530806,-0.04491144713312387,-0.041549642549827695
1772017995122502400,0.85050244140625,0.05146306073367595,-0.04484335033297539,0.016466694018524138
1772017995142470400,0.870470458984375,0.1646878733754158,-0.06867839942872524,-0.013134170328639446
1772017995162438400,0.8904384765625,0.04693710774183273,-0.05875321774184703,0.054420978957507755
1772017995182406400,0.910406494140625,-0.024217910933494565,-0.024307342782616613,0.007789777093380689
1772017995202374100,0.9303740234375,-0.014160627299547195,-0.0068771922931075095,-0.008732190776336938
1772017995222343200,0.95034326171875,-0.0025496844828128812,-0.060576049254834646,0.02114438523966819
1772017995242311200,0.970311279296875,0.01008475616276264,-0.0803308432996273,0.018442432804591954
1772017995262279200,0.990279052734375,-0.11032207693755626,-0.07592062564194202,0.01703161615859717
1772017995282247400,1.010247314453125,-0.06976619466543198,-0.06686258217841387,-0.004562028952222318
1772017995302215400,1.03021533203125,0.0584019200861454,-0.04384323337972164,0.005636307120230048
1772017995322183400,1.050183349609375,0.02586684718430042,-0.06767272951751947,-0.034727486645895984
1772017995342151400,1.0701513671875,-0.08261749293208122,-0.02748772638440132,-0.008664605432841926
1772017995362119200,1.090119140625,-0.0019271686702966688,-0.023925649988651276,-0.017941534077748657
1772017995382087200,1.110087158203125,0.114686701887846,-0.05273965654075145,-0.025193989424034953
1772017995402055200,1.13005517578125,0.1427460906803608,-0.057254795877635475,-0.010501538536418229
1772017995422023400,1.1500234375,-0.004876081603765487,-0.0364729968726635,0.0071596624962985515
1772017995441991400,1.169991455078125,-0.09163608116805552,0.00639613077789545,-0.022380247177556156
1772017995461958700,1.189958740234375,0.03175122904777527,-0.0024602526336908338,-0.04144581684917211
1772017995481926700,1.2099267578125,0.1574631828188896,-0.04056143523007631,0.013409096546191721
1772017995501894700,1.229894775390625,-0.005562894824147224,-0.025509412048757073,-0.032296094780508426
1772017995521862700,1.249862548828125,-0.056420975401997565,-0.0211424490109086,0.012012582420185207
1772017995541830700,1.26983056640625,-0.09862053322792053,-0.06293956351578235,-0.016802794105093926
1772017995561798700,1.289798583984375,-0.03398702527582645,-0.02841185549199581,0.016966715962532908
1772017995581766700,1.3097666015625,-0.011555997759103775,-0.05607172357290983,-0.022922464295476674
1772017995601734700,1.329734619140625,0.03826397194266319,-0.08220861987024546,-0.04381850079726428
1772017995621702700,1.34970263671875,-0.00816810888648033,-0.07544950099885463,-0.01274182827649638
1772017995641670700,1.369670654296875,0.002327566164731979,-0.04741173951625824,-0.05622477697646245
1772017995661638700,1.389638671875,-0.037927871856093406,-0.04587532372921705,-0.04928562536304816
1772017995681606700,1.409606689453125,0.06939326969981194,-0.03958966758847236,-0.05561733086891472
1772017995701574700,1.42957470703125,-0.004231353959441185,-0.04673340186327696,-0.061522919917199756
1772017995721542700,1.449542724609375,-0.06688625531494617,-0.08256751631051301,-0.08245382680296898
1772017995741510700,1.4695107421875,-0.08533610424101352,-0.07199293080419301,-0.04333846219535917
1772017995761478700,1.489478759765625,-0.05580547385215759,-0.07196253566592932,-0.0024307708108797666
1772017995781446700,1.50944677734375,0.030789690539240834,-0.1162590657711029,-0.0516263798029162
1772017995801414700,1.52941455078125,0.0498182161360979,-0.07336947985440492,-0.04754126591375098
1772017995821382400,1.54938232421875,0.08048398803472519,-0.05365004938393831,-0.04081323630036786
1772017995841351700,1.5693515625,-0.05694353797137737,-0.00855506237745285,-0.0332707119663246
1772017995861319400,1.5893193359375,-0.028599487018585203,0.03227379161715507,-0.07295450584534555
1772017995881287700,1.60928759765625,0.0687543872743845,0.007344517543911934,-0.04469424245217815
1772017995901255700,1.629255615234375,0.10254968937039374,-0.02144406230598688,-0.008143723363894968
1772017995921223700,1.6492236328125,0.020913608691096305,-0.043462709629535676,-0.019496818962041286
1772017995941191700,1.669191650390625,-0.010005845707654953,-0.051878071275353425,-0.0061087652038782836
1772017995961159700,1.68915966796875,-0.059037879902124404,-0.049127311262488364,0.005961191693041473
1772017995981127700,1.709127685546875,-0.03627893560528755,-0.08607406312674283,-0.022707853430416435
1772017996001095400,1.729095458984375,0.03266717484891415,-0.0831385941967368,-0.018679821757040915
1772017996021063700,1.749063720703125,0.11615677444040774,-0.11401157910525798,-0.02478891575448215
1772017996041031700,1.76903173828125,0.017600538620352744,-0.1145139756694436,-0.019790723874699323
1772017996060999700,1.788999755859375,-0.09354980583488941,-0.08734042980074883,-0.020386899669561535
1772017996080967700,1.8089677734375,-0.12390695017576217,-0.07284691728502511,-0.016567871104367075
1772017996100935700,1.828935791015625,0.005145546194911003,-0.039671500653028484,-0.0037488676721230147
1772017996120903700,1.848903564453125,0.016825462594628332,-0.07850742726475,0.007345047266874462
1772017996140871400,1.868871337890625,0.08855623533129692,-0.041426527626812454,0.00016540142847225068
1772017996160839700,1.888839599609375,0.0940244376093149,-0.09225216723978519,0.018441044565103946
1772017996180807700,1.9088076171875,0.06339724415540694,-0.05966594867259264,-0.019036142647732048
1772017996200775700,1.928775634765625,-0.06988134547770022,-0.028046237049996852,-0.012536350565962492
1772017996220743700,1.94874365234375,-0.03842997615933418,-0.04566577263176441,0.0034804077279753983
1772017996240711700,1.968711669921875,-0.003370353215932846,-0.06587006400972605,-0.017541501909494397
1772017996260679700,1.9886796875,0.03690495854914188,-0.0704267044007778,-0.02619870948716998
1772017996280647700,2.008647705078125,-0.025506781700253486,-0.06096855570375919,-0.017415299980249255
1772017996300615400,2.028615478515625,0.010610825863480567,-0.10045739326626062,0.022953535287175326
1772017996320583700,2.048583740234375,0.023422376641631125,-0.1000549499452114,0.058253104466293004
1772017996340551700,2.0685517578125,0.039081718066334724,-0.0904436565130949,0.0031919644417241215
1772017996360519700,2.088519775390625,0.006613865181803703,-0.053937049631774425,0.011652736131846904
1772017996380487700,2.10848779296875,-0.09686696755886078,-0.010493921485543251,0.00005372121492400765
1772017996400455700,2.12845556640625,0.014698387438058852,-0.01911269674897194,0.039929585333634166
1772017996420423700,2.148423583984375,0.04571779507994651,-0.058550680907070635,-0.01010972620723769
1772017996440391400,2.168391357421875,-0.0007101940959692001,-0.029313188245892522,-0.005451086746435612
1772017996460360200,2.188360107421875,-0.0024397943675518036,-0.05753975029885768,-0.013603285677731036
1772017996480328400,2.208328369140625,0.05507540601193905,-0.08153758874088525,0.0072808411905542015
1772017996500296400,2.22829638671875,0.05756196213066578,-0.06267682092636823,-0.009053093293774872
1772017996520264200,2.24826416015625,0.015302198550105095,-0.07388765850961208,-0.01761811080966145
1772017996540232200,2.268232177734375,-0.017107786667346952,-0.055175651516020295,-0.012195482972729951
1772017996560200200,2.2882001953125,-0.0855985545694828,-0.08205226026475429,-0.046092382279690355
1772017996580168200,2.308168212890625,-0.060848144194483755,-0.029357904170453548,-0.030243217371311037
1772017996600136200,2.32813623046875,-0.018086276310682294,-0.0428512997329235,-0.06413865537354722
1772017996620104200,2.348104248046875,-0.097323479154706,-0.045022506292164324,-0.05811576008852571
1772017996640072400,2.368072509765625,-0.04984568866491317,-0.05010609316676855,-0.07451013778951018
1772017996660040400,2.38804052734375,-0.0035129765570163724,-0.07021656878143548,-0.05828792005134746
1772017996680008200,2.40800830078125,-0.05577624775767326,-0.037981063348054886,-0.036641722769383336
1772017996699976200,2.42797607421875,-0.006296469795703887,0.015319149684906004,-0.0595698678869754
1772017996719944200,2.447944091796875,0.08767536084353923,0.0022448563173413276,-0.0006158851423300803
1772017996739912200,2.467912109375,0.13674772704839705,-0.0067556117400527,-0.03886562763024121
1772017996759880200,2.487880126953125,0.005243161350488662,-0.033977380664646624,-0.02734183337399736
1772017996779848400,2.507848388671875,-0.013958382725715637,-0.020919453909993172,-0.01626733552152291
1772017996799816400,2.52781640625,-0.013395488145947456,-0.07311258248388766,-0.022043361639697102
1772017996819784200,2.5477841796875,0.01701952386200428,-0.09866028071641922,0.026191768289729953
1772017996839752200,2.567752197265625,-0.10500117417573929,-0.10743600010722874,0.053237632658146315
1772017996859720200,2.58772021484375,-0.15403613097965715,-0.0707344551756978,0.0276455472946167
1772017996879688200,2.607688232421875,0.013587795847654342,-0.0661532648652792,-0.002994304711464792
1772017996899656200,2.62765625,0.08758183734118938,-0.04474164352416992,0.013613167750928551
1772017996919624400,2.64762451171875,0.06762742907106876,0.02259527816772461,-0.0021555705986917016
1772017996939592400,2.667592529296875,0.03810615103244781,0.029869653084874152,0.02445827729431912
1772017996959560200,2.687560302734375,-0.04445756588578224,0.008629296657443046,0.05269495888249948
1772017996979528200,2.707528076171875,-0.050017538100481033,0.0034703064590692516,-0.004489603036828339
1772017996999496200,2.72749609375,-0.007691139024496078,-0.0574649314969778,0.030741832809522748
1772017997019464200,2.747464111328125,-0.0407645565867424,-0.054656596077978604,-0.002700746858678758
1772017997039432200,2.76743212890625,-0.08812427365481854,-0.052578913021087643,-0.043654980798624454
1772017997059400400,2.787400390625,-0.03302840937674045,-0.03881254573613405,-0.012321337842103094
1772017997079368400,2.807368408203125,0.05727262379527091,-0.0761959354519844,-0.041755978776887054
1772017997099336200,2.827336181640625,-0.023134791871905324,-0.07944353907108306,-0.010031382007710634
1772017997119304200,2.84730419921875,-0.07464344531297683,-0.07657002946138382,0.020811025099456308
1772017997139272200,2.867272216796875,-0.1265939973026514,-0.08424187926352024,-0.018720628691464663
1772017997159240200,2.887240234375,0.05824293013215065,-0.04035363769829273,-0.041618780529592184
1772017997179208200,2.907208251953125,0.14532558577954768,-0.05661854380071163,-0.013707294041477143
1772017997199176200,2.92717626953125,0.03269464737772941,0.008035422417521476,0.0015758710145950317
1772017997219144400,2.94714453125,-0.007910919255018235,0.004752747485041618,-0.036325679090153426
1772017997239112400,2.967112548828125,0.012219430103898048,-0.028218086485564706,-0.0410609091848135
1772017997259080200,2.987080078125,0.07350596571564674,0.002307400159537792,0.007334799867495894
1772017997279048200,3.007048095703125,0.13805530251562595,0.0024158289700746535,-0.008718454511929303
1772017997299016200,3.02701611328125,0.053631052422523494,-0.01841243952512741,-0.0012306925724260508
1772017997318984200,3.046984130859375,-0.013761398848891257,0.003901391352713108,-0.06314622853640467
1772017997338952200,3.0669521484375,0.11394202100038528,-0.029090485405921934,0.007274320118222385
1772017997358920400,3.08692041015625,0.06899228768348693,-0.07719429883956909,0.04351599245304241
1772017997378888400,3.106888427734375,0.010716039803624152,-0.06666326021403074,0.061440319667663425
1772017997398856200,3.126856201171875,-0.09850538241565227,-0.03985153339505195,0.0398261797580868
1772017997418824200,3.14682421875,-0.031022330251336095,-0.06371960797756909,-0.022690975360851733
1772017997438792200,3.166792236328125,0.08411153088212013,-0.061055357204377644,-0.015393256100732833
1772017997458760000,3.186760009765625,0.1031008935123682,-0.10374386759102344,-0.033565913786925375
1772017997478728000,3.20672802734375,-0.06857786166369914,-0.08343903844803571,0.011941252483334391
1772017997498696200,3.2266962890625,-0.1616980439096689,-0.05062631764858961,-0.06653786200238392
1772017997518664200,3.246664306640625,0.015393968486785889,-0.08340601296126841,-0.03535665139490738
1772017997538632200,3.266632080078125,0.11683481983244419,-0.07542787368893623,-0.02768109353203326
1772017997558599200,3.28659912109375,0.03967266969680786,-0.037221184891462325,-0.013749069090280681
1772017997578567000,3.30656689453125,0.012929039677977561,-0.03329962753355503,-0.028703385784476995
1772017997598535200,3.32653515625,0.002436287236213684,-0.04981266317814588,-0.0397772077835165
1772017997618503200,3.346503173828125,0.04632335975766182,-0.0395946360245347,-0.00030464550238102673
1772017997638471200,3.36647119140625,0.016299977415800092,-0.044782267795503136,0.005898008530028164
1772017997658439200,3.386439208984375,-0.1070657054901123,-0.07725012068003416,-0.02926779646789655
1772017997678407200,3.4064072265625,-0.11417875236570835,-0.061817573748528955,-0.0216095915986225
1772017997698375200,3.426375244140625,-0.006997311541438103,-0.0641895635768771,-0.018520959667209534
1772017997718343200,3.44634326171875,0.03664367726445198,-0.08812719626426696,-0.028976339240651575
1772017997738311200,3.466311279296875,-0.07760580224990844,-0.10204758506715297,-0.06953141779517755
1772017997758279200,3.486279052734375,-0.05164309347569942,-0.08984861322939396,-0.013877298579830676
1772017997778247200,3.5062470703125,-0.004712415474653244,-0.06706190414279699,-0.0016386340525001287
1772017997798215200,3.526215087890625,0.006589315262436867,-0.05945522853136062,0.052140905196312815
1772017997818183200,3.54618310546875,0.01166296526491642,-0.05229600442647934,0.03133607237562537
1772017997838151200,3.566151123046875,-0.04093991315364837,-0.02541764211207628,0.019844956546276805
1772017997858119200,3.586119140625,-0.00279459915459156,-0.029225217701494693,0.01953883147286251
1772017997878087200,3.606087158203125,-0.07591536494493484,-0.022188450932502744,0.018584745618421585
1772017997898055200,3.62605517578125,-0.028610592934489247,-0.026553952665627,-0.014619221254624426
1772017997918023200,3.646023193359375,-0.0009019172757863998,-0.03032119624465704,-0.023638211349397895
1772017997937991200,3.6659912109375,0.03016775924861431,-0.0035901334464550016,-0.03183631351534277
1772017997957959200,3.685959228515625,0.03510696921646595,0.012847791135311126,-0.03531887666778639
1772017997977927200,3.70592724609375,-0.010333762487769127,0.015124211634695529,-0.04315870344797149
1772017997997895200,3.725895263671875,0.05091477920114994,0.0061804422006011,0.02809829603079706
1772017998017863000,3.74586279296875,0.05815174471735954,-0.055852235603332516,0.02675484553258866
1772017998037831200,3.7658310546875,-0.20695348217487333,-0.1038610642299056,-0.03436471774810925
1772017998057799200,3.785799072265625,-0.22576222754120825,-0.07224602878242731,-0.04636811221484095
1772017998077767200,3.80576708984375,-0.012953005075454712,-0.06850304286181927,-0.07977609549369663
1772017998097735200,3.825735107421875,0.13967968884706497,-0.007736731731891632,-0.07139158564386888
1772017998117703200,3.845703125,0.06889233444035053,-0.03177548670619726,-0.07261261533880606
1772017998137671200,3.865671142578125,-0.032279636836051936,0.04597440018951893,-0.0240439791386947
1772017998157639000,3.885638916015625,-0.007761281651258468,0.01576952380090952,-0.0015613675652071833
1772017998177607200,3.905607177734375,-0.0883393777102232,-0.014509294606745242,0.0296039878860116
1772017998197574100,3.92557421875,-0.00737082102894783,0.0057423430442810055,-0.0008827559175901115
1772017998217542100,3.945542236328125,0.07956219701468945,-0.05656885944008827,0.0046934002469293775
1772017998237510100,3.96551025390625,0.05234685783088207,-0.055960664413869377,-0.019976912362873554
1772017998257478100,3.98547802734375,-0.08299567859470844,-0.050854865707457064,-0.0035986638127826153
1772017998277446100,4.005446044921875,-0.06147592070400715,-0.009639350482821465,-0.01472463612416759
1772017998297414100,4.0254140625,-0.0038379707276821134,-0.04189385287761688,-0.05188353290176019
1772017998317382100,4.045382080078125,0.12178513571619987,-0.021780746914446352,-0.028555337349604814
1772017998337350100,4.06535009765625,0.12644728230834007,-0.015374094742536544,-0.002392027969378978
1772017998357318100,4.085318115234375,-0.04364274237155914,-0.010898118372261524,-0.06539590715933591
1772017998377286100,4.1052861328125,0.012021861705183982,-0.0038031916752457617,-0.0608035926667042
1772017998397254100,4.125254150390625,0.05928454813957214,-0.030421441748738287,-0.01173931843675673
1772017998417222100,4.14522216796875,0.007729132947325706,-0.05434796852022409,-0.007197400690801441
1772017998437190100,4.165190185546875,-0.029155367335677144,-0.04288900139480829,-0.058968522726651276
1772017998457158100,4.185158203125,-0.017735563176870344,-0.047864159458875656,-0.06791742499358952
1772017998477125600,4.205125732421875,-0.11599018570184708,-0.023203180932998654,-0.029461930800508705
1772017998497093600,4.22509375,-0.01313479138314724,-0.03036386634260416,0.007608575307577848
1772017998517061600,4.2450615234375,-0.001830138036608696,-0.04705342759788036,0.013439162890892475
1772017998537029600,4.265029541015625,0.04207096301019191,-0.05052081144750118,-0.006835764304175973
1772017998556997600,4.28499755859375,-0.05225158076286315,-0.09609832127392291,-0.054038920837361365
1772017998576965600,4.304965576171875,0.0019265841484069823,-0.06242576877474784,0.009739614253211766
1772017998596933600,4.32493359375,-0.06509937189817429,-0.07595861956477165,-0.055164125475008034
1772017998616901600,4.344901611328125,0.0424199225783348,-0.03336918563842773,-0.014077588658593595
1772017998636869600,4.36486962890625,0.021257892084121703,-0.06561696603149175,-0.037192433721013364
1772017998656836900,4.3848369140625,-0.05167524217963219,-0.053555064576864236,-0.0461258096252568
1772017998676804600,4.4048046875,0.003611760756373405,-0.044993280197679994,-0.025798056264407933
1772017998696772600,4.424772705078125,0.010168927314877509,-0.05019552501589059,-0.021929361604899167
1772017998716740600,4.44474072265625,-0.005147884282469749,0.0020095862567424774,-0.043326242034602905
1772017998736708600,4.46470849609375,0.044319618719816205,-0.054881637005507945,-0.014536931532341986
1772017998756676600,4.484676513671875,0.045026305684447286,-0.02936521069407463,0.025737649580370635
1772017998776644600,4.50464453125,-0.009048983374238014,-0.05707827026695013,-0.0300461786955595
1772017998796612900,4.52461279296875,0.028792379242181778,-0.05540010792165994,-0.02169438380524516
1772017998816580600,4.54458056640625,0.01213525895178318,-0.055909811009466646,-0.02627696235515177
1772017998836548600,4.564548583984375,-0.00807400086224079,-0.03906359788775444,-0.064705915601179
1772017998856516600,4.5845166015625,-0.0490951625585556,-0.059791036356985565,-0.01955388291152194
1772017998876484600,4.604484619140625,-0.04714052135944366,-0.06285217749327421,-0.062343606916628776
1772017998896452600,4.62445263671875,0.06940846726894379,-0.06663987933844327,-0.0007021569199860096
1772017998916420600,4.644420654296875,0.048525838238000864,-0.07395721661448479,0.0016746004150249062
1772017998936388600,4.664388671875,0.02689092953503132,-0.054557519617676735,-0.004087652906123548
1772017998956356600,4.684356689453125,-0.017819734328985214,-0.036005379360914226,-0.01577372505199164
1772017998976324600,4.70432470703125,-0.02135433819591999,-0.02069295167773962,-0.05879375068163499
1772017998996292600,4.724292724609375,0.08961948064863681,-0.011209668539464474,-0.028561164302192625
1772017999016259600,4.744259521484375,0.06083060853779316,0.03243365835398435,-0.03328886867752299
1772017999036227600,4.7642275390625,0.020088848304748535,-0.0014212649747729301,0.01344148271214217
1772017999056195800,4.78419580078125,-0.004441781839728355,0.0016448445975780486,-0.01876012045163661
1772017999076163600,4.80416357421875,-0.01680032815337181,-0.007573357863724231,0.0012313136269338429
1772017999096131600,4.824131591796875,0.11580723035037517,-0.05204875166714191,0.01893839962799102
1772017999116099600,4.844099609375,0.13540508026778697,-0.07709434559643268,0.005247179938480257
1772017999136067600,4.864067626953125,0.019453473010659215,-0.084259122659266,-0.03609181553535163
1772017999156035600,4.88403564453125,-0.040675709259510036,-0.08120294995903968,0.02590469497665763
1772017999176003600,4.904003662109375,-0.07632628383338451,-0.11144348218291997,0.014136314842198043
1772017999195971800,4.923971923828125,-0.11775251919925211,-0.11203852546662092,0.04293601887430996
1772017999215939600,4.943939697265625,-0.14068857362866402,-0.1330018185183406,-0.0014592954302206636
1772017999235907600,4.963907470703125,-0.11647066269516944,-0.11312865879088639,-0.013270820586662738
1772017999255875600,4.98387548828125,-0.079285133638978,-0.09298954160362481,-0.030963658866658805
1772017999275843600,5.003843505859375,0.07224924365282058,-0.07608107690066099,0.00344930020365864
1772017999295811600,5.0238115234375,0.027346856608986853,-0.05330751955658197,-0.009856701294239609
1772017999315778800,5.04377880859375,0.0660047963052988,-0.007426642869412898,0.012589651655778288
1772017999335746600,5.06374658203125,0.02692249371707439,-0.012025661097466944,-0.0037641383064910766
1772017999355714600,5.083714599609375,0.05396773703098297,0.013436404678225516,-0.02706241364441812
1772017999375682600,5.1036826171875,0.043000352814793585,-0.019599603483080864,0.02327915051234886
1772017999395650600,5.123650634765625,0.0025999533653259274,-0.046076106998324394,0.009048508450202643
1772017999415618600,5.14361865234375,-0.08283551959693432,-0.07978080820143223,-0.045792595615517344
1772017999435586800,5.1635869140625,-0.05521744483113288,-0.08224164535701274,0.01613084966028109
1772017999455554800,5.183554931640625,-0.08470306703448295,-0.15494535477906465,-0.023502492673136293
1772017999475523000,5.203523193359375,-0.036569442984461784,-0.092011928743124,0.024933566655870525
1772017999495490800,5.22349072265625,-0.12917583048939704,-0.05819003090113401,-0.09224266875907779
1772017999515458800,5.243458740234375,-0.05785071594417095,0.02486906831860542,-0.061704651425965124
1772017999535426800,5.2634267578125,0.03590776420533657,0.06002396833002567,-0.061325570714194325
1772017999555394800,5.283394775390625,0.07819675388038158,0.050132396651804446,-0.05471362349484116
1772017999575362800,5.30336279296875,0.03238368173241615,0.035467911483347415,-0.08653428278332576
1772017999595330000,5.323330078125,-0.004174655336141586,0.014559855750203132,-0.059268802581168706
1772017999615297800,5.3432978515625,-0.01352116035223007,-0.0117640875518322,-0.04168481323681771
1772017999635265800,5.363265869140625,0.006635492491722106,-0.012146364867687224,-0.016224701956193893
1772017999655233800,5.38323388671875,0.01253390288054943,-0.015493921729922294,-0.04175318403160199
1772017999675201800,5.403201904296875,0.057635611888766286,-0.023866905538737774,0.02546880604373291
1772017999695170000,5.423170166015625,0.07532675140202046,-0.005667524242401123,0.07825440235175192
1772017999715138000,5.443137939453125,0.05694879866838455,0.0337038244202733,0.08404666721867397
1772017999735106000,5.46310595703125,0.07031506071984768,0.05556143596321344,0.12213267051223664
1772017999755073800,5.48307373046875,0.015514964517951011,0.061223991769552226,0.13803011327544226
1772017999775041800,5.503041748046875,-0.12929215034544467,0.030384032347798344,0.022679522385075687
1772017999795009800,5.523009765625,-0.153982354965806,-0.00592646743953228,-0.04619936805181205
1772017999814977800,5.542977783203125,-0.09215396756231785,-0.11418167497515677,-0.06470916700419038
1772017999834945000,5.562945068359375,-0.05130640886723995,-0.15434329723268747,-0.0655244471761398
1772017999854913000,5.5829130859375,-0.13641981026828287,-0.1919555272683501,-0.10889326797714456
1772017999874880800,5.602880859375,-0.08363046936690807,-0.2243064757749438,-0.14199934569997713
1772017999894848800,5.622848876953125,0.049607788255810734,-0.20365093349814414,-0.07212121509267017
1772017999914816800,5.642816650390625,0.010094108512997626,-0.18686346482634544,0.018248006211034954
1772017999934784800,5.66278466796875,0.014657470905780791,-0.13776713322401046,-0.028953031430300324
1772017999954753000,5.6827529296875,0.008559738552570343,-0.08547112879753112,0.03549191341344267
1772017999974723800,5.702723876953125,-0.091933602809906,-0.09724603000432253,0.026555413970351216
1772017999994691800,5.72269189453125,-0.07462883226573466,0.011890928801894187,0.018296357131097465
1772018000014659800,5.742659912109375,-0.01581833137869835,0.04053016330897808,0.028831871002353727
1772018000034627800,5.7626279296875,0.06443944668471813,0.0771592275261879,0.06561793414587154
1772018000054595800,5.782595947265625,0.07353694537580013,0.12372808647751807,0.046447150534112004
1772018000074562800,5.802562744140625,0.06197217978835105,0.13381781107634305,0.028959716899413613
1772018000094530800,5.82253076171875,0.05883972698152065,0.06866144829392433,-0.004636281498521566
1772018000114498800,5.842498779296875,0.006060907474160194,0.0390174206584692,-0.04446784981777891
1772018000134466800,5.862466796875,0.11098141762912273,-0.02742021410614252,-0.06780342495879157
1772018000154434800,5.882434814453125,0.05719312881827354,-0.07283785719573498,-0.0546778032627888
1772018000174403000,5.902403076171875,-0.05895253970623016,-0.05635609347224235,-0.10266511417729779
1772018000194371000,5.92237109375,-0.06789630914032459,-0.07429010183066129,-0.07657001119507477
1772018000214338800,5.9423388671875,-0.008277999001741409,-0.08776771530210971,-0.07184793284293264
1772018000234306800,5.962306884765625,0.043857846426963804,-0.09106120388954878,-0.026038422625232486
1772018000254274800,5.98227490234375,-0.055824763074517246,-0.06746113259345293,-0.04856529346555471
1772018000274242800,6.002242919921875,-0.15228198078870772,-0.037760990856587885,-0.041074755047075445
1772018000294210000,6.0222099609375,-0.10009002125859259,-0.020613456700742244,-0.03338416401185095
1772018000314178000,6.042177978515625,0.018597148442268372,-0.009170563927292824,-0.06262965731639415
1772018000334145800,6.062145751953125,0.13430384102761744,-0.04008797249943018,-0.03531991784740239
1772018000354113800,6.08211376953125,0.05444295332729816,-0.012156886261701583,-0.055162828567065295
1772018000374081800,6.102081787109375,-0.012230536019802092,-0.005655541543662547,-0.030722251326218246
1772018000394049800,6.1220498046875,-0.029233693268895147,0.028034254351258277,-0.0314719371823594
1772018000414017800,6.142017822265625,0.02857961327433586,-0.003161386640369892,0.011819416201952844
1772018000433986000,6.161986083984375,-0.04589607425630093,-0.020903671818971632,-0.030697938868869096
1772018000453954000,6.1819541015625,0.054395022532343865,-0.015844050341844558,-0.004254259910993278
1772018000473922000,6.201922119140625,0.18052958562970162,-0.05151216057240963,0.020998656626045702
1772018000493888800,6.221888671875,0.07721475710570812,-0.09413929616063833,0.04455134511645883
1772018000513856800,6.241856689453125,-0.02573357619345188,-0.0668701809629798,0.0568870585437864
1772018000533825000,6.261824951171875,-0.08935995292961597,-0.04323006991744041,0.029951924540847538
1772018000553793000,6.28179296875,-0.08861644108593464,-0.06735270378291607,-0.018051643388718366
1772018000573761000,6.301760986328125,-0.053954293027520174,-0.0255257786616683,-0.013013101232238113
1772018000593729000,6.32172900390625,0.059600774481892584,-0.05570727417469024,-0.009930113590322434
1772018000613696800,6.34169677734375,0.10086451276242732,-0.05271452209949493,0.000030449937190860507
1772018000633664800,6.361664794921875,0.027573651102185247,-0.014712708224356174,0.005036021405830979
1772018000653632800,6.3816328125,-0.055041503742337225,-0.05310556724369526,0.008242014372907579
1772018000673601000,6.40160107421875,0.015695581781864164,-0.02779956881254911,0.03543400921374559
1772018000693568000,6.421568115234375,0.10194061756134033,-0.03393003439158201,0.0406916740136221
1772018000713536000,6.441535888671875,0.08245441132485866,-0.03667261109799146,0.04498549875002354
1772018000733503700,6.461503662109375,-0.007243395256996154,-0.060823302014172076,0.019095690815243867
1772018000753471700,6.4814716796875,-0.019916998869180677,-0.08803162693530321,0.015654080727696418
1772018000773440000,6.50143994140625,-0.07869009035527706,-0.05214636682271957,0.01118588580507785
1772018000793408000,6.521407958984375,-0.019758593437075613,-0.07989040605574846,0.0012072568979114293
1772018000813376000,6.5413759765625,-0.005906593695282936,-0.08570113816112279,0.04093247876586392
1772018000833344000,6.561343994140625,0.02441197220087051,-0.08521013977378607,0.018179617149941624
1772018000853312000,6.58131201171875,-0.09307342049479483,-0.0779606070369482,-0.005373875058069825
1772018000873279000,6.601279052734375,0.008722235637903213,-0.06971387995630503,-0.027220654679741708
1772018000893247000,6.6212470703125,0.01609305666685104,-0.06891016235798597,-0.038661118034087116
1772018000913215000,6.641215087890625,0.053070495930314064,-0.04467413124591112,-0.07887560299001634
1772018000933183000,6.661182861328125,0.0208440505862236,-0.08000000391006469,-0.05514573130179196
1772018000953151000,6.68115087890625,0.025561726757884023,-0.02753916431069374,-0.07817719066338613
1772018000973119000,6.701118896484375,0.025905425629019735,-0.017105448579788206,-0.09421119235306978
1772018000993086700,6.721086669921875,0.07359539756476878,-0.05479980394095182,-0.08090100787039846
1772018001013054700,6.7410546875,-0.010214520022273063,-0.09231003490686417,-0.08246484138732775
1772018001033023000,6.76102294921875,0.014189853394031523,-0.0553822800040245,-0.07648478059703484
1772018001052990000,6.780989990234375,0.020664017844200133,-0.05999912614971399,-0.04125562803931534
1772018001072958000,6.8009580078125,-0.029802433067560193,-0.05928893205374479,-0.035264826659299434
1772018001092926000,6.820926025390625,-0.1017933180451393,-0.03582330079227686,-0.006611070436518639
1772018001112893700,6.840893798828125,-0.03592471534013748,-0.06454349158108234,-0.023454872405435888
1772018001132862000,6.860862060546875,-0.016101239973306654,-0.08367898468375205,-0.004623111489694565
1772018001152830000,6.880829833984375,-0.05496960754990577,-0.04126812219470739,-0.017902115382812916
1772018001172798000,6.9007978515625,-0.03158756291866302,-0.03447159392237663,-0.0285086486636661
1772018001192766000,6.920765869140625,0.05065174435079097,-0.053123102900385855,-0.03237306900685653
1772018001212733000,6.94073291015625,0.04036299004852772,-0.05030336930453777,-0.029521478968020525
1772018001232701000,6.960700927734375,0.01469546482861042,-0.0556415154621005,-0.042242465385887766
1772018001252669000,6.9806689453125,0.01670095943212509,-0.0789104551076889,-0.0671517013181001
1772018001272637000,7.000636962890625,-0.04088263000845909,-0.06163403387516737,-0.07334027202622964
1772018001292605000,7.02060498046875,-0.0062146367311477655,0.007812135055661201,-0.039529315703362225
1772018001312573000,7.040572998046875,-0.017872925820946694,-0.0016673486903309822,-0.06851544568566605
1772018001332541000,7.060541015625,0.06927227366864681,0.039701603530347344,-0.08993815467637031
1772018001352509000,7.080509033203125,0.0974754548460245,0.005230886390805244,-0.06855508357631042
1772018001372477000,7.100476806640625,0.13705986173748969,-0.01767915681451559,-0.07037888320367783
1772018001392444000,7.12044384765625,-0.04176759614944458,-0.02939005287438631,-0.0425454121215269
1772018001412412000,7.140411865234375,-0.196642516040802,-0.022714228372275828,-0.035611375074647365
1772018001432380000,7.1603798828125,-0.11253215420246124,-0.0011786883905529975,-0.0148175203057006
1772018001452348000,7.180347900390625,-0.038509471136331554,-0.037947453339397905,0.046550647441204636
1772018001472316000,7.20031591796875,0.08749649714529514,-0.009577391162514687,0.020672402080055326
1772018001492284000,7.220283935546875,0.08050269273519516,-0.08727379430532455,-0.0507632784338668
1772018001512252000,7.240251953125,-0.14512275668382643,-0.053901101535558694,0.023503990510478613
1772018001532220000,7.260219970703125,-0.2166243968397379,-0.08472761695384978,-0.00137731623519212
1772018001552187000,7.280186767578125,-0.11758476141691207,-0.07365648010224103,-0.018137385443411768
1772018001572155000,7.30015478515625,0.026056232276558875,-0.06231558639854192,-0.04185341126937419
1772018001592123000,7.320122802734375,0.16972352945506572,-0.00044102176576852795,-0.01833857057131827
1772018001612091000,7.3400908203125,0.07235562663674354,0.030924422834813593,0.016456848477944732
1772018001632059000,7.360058837890625,-0.042758945274353026,0.04932312609553337,0.04479600405991077
1772018001652027000,7.38002685546875,-0.07932078947424888,0.030258944663405417,0.019835092739388344
1772018001671995000,7.399994873046875,0.00653729281425476,-0.011217559584975242,0.01417944159787148
1772018001691962000,7.419962158203125,0.05253916553258896,-0.06701835726201534,0.021837080211564896
1772018001711929900,7.439929931640625,0.050128597259521485,-0.0555935846671462,0.02061762141920626
1772018001731897900,7.45989794921875,-0.08896715421974659,-0.06625877106636763,0.0332862383290194
1772018001751865900,7.479865966796875,-0.04557984791398048,-0.04406096778362989,0.048899439057055856
1772018001771833900,7.499833740234375,-0.01183072304725647,-0.07999678903967142,0.038569603825733066
1772018001791801900,7.5198017578125,-0.035438977649807926,-0.05575754305720329,0.05235443834913894
1772018001811769900,7.539769775390625,-0.13404548235237598,-0.04789046294391155,0.029058537631388753
1772018001831738000,7.559738037109375,-0.08734335241019725,-0.006930676046013832,0.03572393207103014
1772018001851704800,7.579704833984375,0.020949264526367185,0.03912497268617153,0.04641308386772871
1772018001871672800,7.5996728515625,0.014329554125666617,-0.09885171163529156,-0.06722124115666374
1772018001891640800,7.619640869140625,0.05888648873269558,0.06980798798054456,0.08483710521031171
1772018001911608800,7.63960888671875,0.014547580790519713,-0.021145956142246722,-0.04271313337124884
1772018001931577000,7.6595771484375,0.01875087769925594,0.018224515737593174,0.024586488517560064
1772018001951545000,7.679545166015625,0.032848961156606675,0.02656710440814495,0.0007395297883078456
1772018001971512800,7.699512939453125,0.01867956602871418,0.04811433482766151,-0.01853160892538726
1772018001991479800,7.719479736328125,0.04585223511457443,-0.0037201895669102666,-0.03224869370851666
1772018002011447800,7.73944775390625,-0.004859130468964576,-0.008569967685639857,0.0009095160603523254
1772018002031416000,7.759416015625,-0.042415830925107,-0.018480244064331054,-0.007921148388087749
1772018002051384000,7.779384033203125,-0.12142682379782199,-0.036063539288938046,-0.004730097261816263
1772018002071352000,7.79935205078125,-0.08477613227069378,-0.05254647205621004,0.0009042188307270407
1772018002091319800,7.81931982421875,-0.05880407114624977,-0.07032236724346876,-0.025048735734447835
1772018002111287800,7.839287841796875,0.007426350608468055,-0.06031564475297928,0.00006192278768867254
1772018002131254800,7.8592548828125,0.08361760988533497,-0.005410042349994182,-0.02552760529257357
1772018002151223000,7.87922314453125,0.0633422990977764,-0.00957329950928688,-0.04540489320587367
1772018002171191000,7.89919091796875,0.049724108111858366,0.04029167837798595,-0.08519965491238982
1772018002191158800,7.91915869140625,-0.0039759178936481475,-0.011296177779138088,-0.125494182834588
1772018002211126800,7.939126708984375,-0.08485036655068397,0.001767301933467388,-0.06639547612331807
1772018002231094800,7.9590947265625,-0.07907236767113208,-0.05384323386847972,-0.08112937326617538
1772018002251062800,7.979062744140625,-0.0671375997275114,-0.03480243331193924,-0.08169073347598314
1772018002271030000,7.999030029296875,-0.014490882167220115,-0.1021247419565916,-0.06709485656432806
1772018002290998000,8.018998046875,-0.06344985112547874,-0.09298486542850733,-0.021785496154800056
1772018002310965800,8.0389658203125,-0.12317220616042614,-0.12241028187721967,-0.016602029102295635
1772018002330933800,8.058933837890624,-0.025026304706931114,-0.07375409525781869,0.010741576103679835
1772018002350901800,8.07890185546875,0.0705757574826479,-0.04989595754742622,-0.010790639409795404
1772018002370869800,8.098869873046874,0.05364040477275848,-0.05632394476830959,-0.019034918805025516
1772018002390838000,8.118838134765625,-0.024955577558279037,-0.00792582456320524,-0.02024476951882243
1772018002410805000,8.138804931640625,-0.06010697043836116,-0.022120938654243943,-0.05116809637509286
1772018002430772700,8.158772705078125,-0.11158055256605148,-0.03239537217020988,-0.04487169964462519
1772018002450740700,8.17874072265625,-0.03760638481676578,-0.06939502326548098,-0.05059756647814065
1772018002470709000,8.198708984375,-0.024308511826395988,-0.00942950712442398,0.0076942808296531435
1772018002490677000,8.218677001953125,-0.032552608558535576,-0.04634060315340757,-0.05510121630663052
1772018002510645200,8.238645263671875,-0.0007189619243144989,-0.0506309938237071,-0.040438886562641704
1772018002530613000,8.258613037109376,0.029907062485814092,-0.025994565217196938,0.01354390190700069
1772018002550580000,8.278580078125,0.01489712488055229,-0.0802113085731864,0.05926304869381711
1772018002570548000,8.2985478515625,0.01939502082169056,-0.022367022369802,0.042394532408751545
1772018002590516000,8.318515869140626,-0.010729483807086944,-0.0006128712013363837,0.03816907846713438
1772018002610484200,8.338484130859374,0.02417465631365776,-0.043135377371311186,-0.0059435647048056124
1772018002630452200,8.3584521484375,0.05848842932581901,-0.02298866139948368,0.06119852853473275
1772018002650420000,8.378419921875,0.012094926941394805,-0.04215191929191351,0.011549239224754274
1772018002670387000,8.398386962890624,-0.03245791601240635,-0.0240486918464303,0.01888411215748638
1772018002690355000,8.41835498046875,-0.049532384932041165,-0.02690612710416317,0.038332324471138414
1772018002710323200,8.4383232421875,0.07329729140102863,-0.05855038864612579,0.04463736116578802
1772018002730291200,8.458291259765625,0.05125263285338878,-0.04277618867009878,0.02165299234893173
1772018002750259200,8.47825927734375,0.01475508606135845,-0.07530161696076393,0.002354399372730404
1772018002770227000,8.49822705078125,-0.04128770367801189,-0.049800680479407305,0.022614622189011422
1772018002790195000,8.51819482421875,0.03683306235671043,-0.07760726355463266,0.022218078885786235
1772018002810162200,8.538162109375,0.08581132053732872,-0.06652882017940283,0.03875029415488243
1772018002830130200,8.558130126953126,0.049590837121009826,-0.03876461494117975,0.006826466752868145
1772018002850098200,8.57809814453125,-0.022813304832577704,-0.028001521125435826,0.016497326618805527
1772018002870066200,8.598066162109374,-0.04537117359936237,-0.025264497376978397,0.032794491023011504
1772018002890034000,8.618033935546874,-0.02541851889491081,-0.068930620624125,-0.010601546578481794
1772018002910002000,8.638001953125,0.03552957854270935,-0.052528644138574596,-0.024484580779355017
1772018002929969200,8.65796923828125,0.000699088180065155,-0.07663257330358028,-0.014962974924687296
1772018002949937200,8.677937255859375,-0.053852586218714714,-0.07848638447672128,-0.0468572474386543
1772018002969905200,8.6979052734375,0.03123860335052013,-0.05213613768965006,-0.019275522627867758
1772018002989873200,8.717873046875,0.09355565105378627,-0.044502574071288103,-0.000041062662750482553
1772018003009841000,8.7378408203125,0.0032879356294870377,-0.01902326489984989,-0.02775883494336158
1772018003029809000,8.757808837890625,-0.0009387421548366546,-0.03170154468715191,0.0015169621679000556
1772018003049776000,8.777776123046875,0.0019219079732894896,-0.034385084682703015,0.017458718996867538
1772018003069744000,8.797744140625,-0.039703649356961246,-0.053422962629795075,-0.016846669779438526
1772018003089712000,8.817712158203125,-0.028522330129146574,-0.030115152278542518,-0.06139542108001187
1772018003109679900,8.837679931640626,-0.02787818700671196,-0.026762919241189956,-0.023134718806669115
1772018003129647900,8.85764794921875,-0.044136663368344306,-0.013727204318344592,-0.04754130244636908
1772018003149616000,8.8776162109375,-0.04803776246011257,-0.022033260370790956,0.00009924085708335041
1772018003169583000,8.8975830078125,-0.07629530417323112,-0.03450637297481298,-0.023210213461983948
1772018003189551000,8.917551025390624,-0.005247837525606155,-0.10469985314160585,-0.08336619240753353
1772018003209519000,8.93751904296875,-0.14697802916169167,-0.10338906280398369,-0.10567945702979341
1772018003229486800,8.95748681640625,-0.08741934025585651,-0.04706657934039831,-0.09787921334132552
1772018003249454800,8.977454833984375,0.06729600515961646,-0.05413140316009521,-0.10102014171555637
1772018003269423000,8.997423095703125,0.1737239972680807,-0.01521218217909336,-0.047571861981414255
1772018003289390000,9.01739013671875,0.1807037731528282,-0.00428688353896141,-0.023174539360404013
1772018003309358000,9.037358154296875,0.07021218486726284,0.005121580797433853,-0.0363542293312028
1772018003329326000,9.057326171875,-0.0039174657046794886,0.054416649842262264,-0.018530951338261364
1772018003349293800,9.0772939453125,0.001710311049222946,-0.003598316752910614,-0.07038586093373596
1772018003369262000,9.097261962890625,-0.010861001232266425,-0.01466273160278797,-0.04626951067857444
1772018003389229000,9.11722900390625,-0.005671031373739242,-0.02345131047517061,-0.035522162421233947
1772018003409197000,9.137197021484376,-0.09942892700135707,-0.027422552193701266,-0.02040248083118349
1772018003429165000,9.1571650390625,-0.02542553315758705,-0.044786359448730946,0.028664368948340416
1772018003449133000,9.177133056640624,-0.07372165429294109,-0.05483633655905723,0.027312990872003135
1772018003469101300,9.197101318359374,-0.0863303759753704,-0.050313598437607285,0.06543371841907501
1772018003489069300,9.2170693359375,-0.08773907372951507,-0.08882599218338727,0.09714417706504463
1772018003509036000,9.2370361328125,-0.031056232520937917,-0.0537552633240819,0.015709062317945062
1772018003529004000,9.257004150390625,0.06740472623109817,-0.06903846491277217,0.004707483571209013
1772018003548972000,9.276971923828125,0.07851473378837108,-0.05087152458131313,0.043443566537648436
1772018003568940300,9.296940185546875,-0.008711129721999169,-0.04767740471512079,0.03737549867033958
1772018003588905200,9.3169052734375,-0.07057926461398602,-0.02911766567379236,0.0029302447656169533
1772018003608873200,9.336873291015625,-0.045834114935994145,0.0356973363250494,-0.01670183621495962
1772018003628840200,9.356840087890625,0.08111234906613826,0.021015607760846614,-0.00758705759551376
1772018003648808200,9.37680810546875,0.14925065026879308,0.004506956030428409,-0.002000051243416965
1772018003668776000,9.39677587890625,0.055611412584781646,-0.012260638897120951,0.018491459578089415
1772018003688744200,9.416744140625,-0.07680792987048625,-0.006860533419251442,0.027423100182972848
1772018003708712200,9.436712158203125,-0.09115677321851252,-0.03749766374528408,0.0447921316023916
1772018003728679200,9.45667919921875,0.059302668318152424,-0.03893471081107855,0.05144183528255671
1772018003748647200,9.476647216796875,0.0691939477354288,-0.08719137671887874,0.007109174418076873
1772018003768615200,9.496615234375,0.03761281455755233,-0.07040946100503206,0.01609636286878958
1772018003788583200,9.516583251953126,0.06705284405350685,-0.05777355905473232,0.0019269129419699311
1772018003808551200,9.53655126953125,0.062144029223918915,-0.09909399595856666,0.02863643976179883
1772018003828519200,9.556519287109374,0.025439561682939527,-0.09050210870206356,-0.011749529303517192
1772018003848486100,9.576486083984374,-0.11448737992346286,-0.11488017863333225,-0.008862886217609047
1772018003868454100,9.5964541015625,-0.07559329338371754,-0.05509615653902292,0.054555656454153355
1772018003888422100,9.616422119140625,0.02818915265202522,-0.07545680752247572,-0.03125062258187681
1772018003908390100,9.63639013671875,0.14680968685746193,-0.06960866601616143,-0.03295317044975236
1772018003928358100,9.656358154296875,0.07278174309432506,-0.05830459719151258,-0.020653697379585355
1772018003948325000,9.6763251953125,-0.09125088124275207,-0.013299918816983699,-0.04527419776460156
1772018003968293000,9.696293212890625,-0.03083002254962921,0.012551146276295184,-0.07948577077761292
1772018003988263200,9.71626318359375,0.11713526408374308,-0.021807342660427092,-0.08874605881497263
1772018004008231200,9.736231201171876,0.15725217041671274,-0.05110416429340839,-0.05866183139765635
1772018004028199200,9.75619921875,-0.010420271727442742,-0.045865971378982066,-0.1004471641331911
1772018004048166100,9.776166259765626,-0.021964579048752784,-0.04249474138021469,-0.010465480842348187
1772018004068134100,9.796134033203124,-0.08976093494594097,-0.13544599680006503,-0.029142014663759618
1772018004088102100,9.81610205078125,-0.10649696569144725,-0.16395839005708693,-0.002490118048992008
1772018004108070100,9.836070068359374,-0.17523790896236896,-0.12866612740159034,0.019400062322989103
1772018004128038100,9.8560380859375,-0.08710545200109482,-0.09435527699887752,-0.04480780409555882
1772018004148005000,9.876005126953125,0.048643911659717556,-0.10095715948194264,-0.006522679767012596
1772018004167973000,9.89597314453125,0.04260229340791702,-0.04900543844848871,-0.046097734308242794
1772018004187941000,9.915941162109375,0.06690320644974708,-0.02215630222856998,-0.024540749679692088
1772018004207909000,9.9359091796875,0.0369260013371706,-0.02175648925602436,-0.03588754340121522
1772018004227877000,9.955877197265625,0.04576280326545238,-0.026266075634956358,-0.016046240116748958
1772018004247844000,9.975843994140625,-0.07071721177995205,-0.005076864872872829,-0.026727610465791075
1772018004267812400,9.995812255859375,0.02892681927680969,0.00540098226070404,-0.049077170244138685
1772018004287780000,10.015780029296875,0.12123334705233574,-0.009726444244384765,-0.05199324035393074
1772018004307748000,10.035748046875,0.09447744207382201,-0.020594167478382587,-0.05089260390195995
1772018004327716000,10.055716064453126,-0.04044131598174572,-0.021720541159808635,-0.030457554241735487
1772018004347683000,10.07568310546875,-0.10814356385469436,-0.022691724279522894,-0.07482227247860282
1772018004367651300,10.0956513671875,-0.09886720146536826,0.015306582464277744,-0.020515202224347738
1772018004387619300,10.115619384765624,-0.10812369011044502,0.0051630818516016,-0.04039924867199734
1772018004407587000,10.135587158203125,0.11137070920765399,-0.043894379045069216,-0.03451203553061932
1772018004427555000,10.15555517578125,0.12141221075057983,-0.06010580139458179,-0.05005027132630348
1772018004447522000,10.17552197265625,0.0339805955350399,-0.05270224713981151,-0.01768516643019393
1772018004467490600,10.195490478515625,-0.07228139235675335,-0.010951894386112689,-0.016588475500978528
1772018004487458600,10.21545849609375,-0.005470540365576744,-0.04780073883384466,-0.04958248941777274
1772018004507426600,10.235426513671875,0.003630465456843376,-0.07487579276412724,-0.02515422366922721
1772018004527394600,10.25539453125,-0.013978840991854667,-0.04900953010171651,-0.032598730988893654
1772018004547361500,10.275361572265625,-0.019959668967127798,-0.04428483966737985,-0.02736473932554945
1772018004567329300,10.295329345703125,0.0015741174489259718,-0.04804331541806459,-0.000021846505627036094
1772018004587297500,10.315297607421876,-0.011342647269368171,-0.06750438721328973,0.03688665570747107
1772018004607265500,10.335265625,-0.08645078748464584,-0.011537293058633803,0.003601842150557786
1772018004627233500,10.355233642578124,0.003531681257486343,0.01181114156395197,-0.022055216474272308
1772018004647200500,10.375200439453126,0.12691373077630996,-0.0013625205248594284,-0.04154047286268323
1772018004667168500,10.39516845703125,0.07442541864812374,-0.009885141937434673,0.00525023041209206
1772018004687136500,10.415136474609374,-0.08839724537730216,-0.013117547987401485,0.031241452894732354
1772018004707104500,10.4351044921875,-0.10941197635531424,-0.0036357261538505553,-0.023896277763694525
1772018004727071500,10.455071533203125,0.1599906554698944,-0.015610826107859611,-0.042764461699686944
1772018004747039500,10.47503955078125,0.16956512402296064,-0.04561258113980293,-0.01299910923950374
1772018004767007500,10.495007568359375,0.016013561689853666,-0.03156944274008274,0.011101458924636244
1772018004786975700,10.514975830078125,-0.1154489184319973,-0.000775076025724411,0.05030583525625989
1772018004806943500,10.534943603515625,-0.170347798833251,-0.008656476925313471,0.020981595893390475
1772018004826910500,10.554910400390625,-0.1374035606086254,-0.06441665033102036,-0.012622512745764106
1772018004846878500,10.57487841796875,-0.0006669394761323928,-0.08159078023284673,-0.030133089794032272
1772018004866846500,10.594846435546875,0.12715689188241958,-0.08577391113638877,0.0204292044413276
1772018004886814700,10.614814697265626,0.06399287196099758,-0.062220893852412695,-0.08809692899016663
1772018004906782700,10.63478271484375,0.04443944570720196,-0.03698299222141504,0.0011678747355937957
1772018004926749400,10.65474951171875,-0.05306055905818939,-0.01475596284419298,-0.06312482042219489
1772018004946717400,10.674717529296874,0.1506412278443575,0.004487374547123908,-0.05866634317599237
1772018004966685400,10.694685546875,-0.2033212631523609,0.16959084298610685,0.08297722962256521
1772018004986653400,10.7146533203125,0.003739771050214767,-0.027155133429169653,0.23718718279916792
1772018005006620400,10.734620361328124,0.5114379487752914,-0.2887482605472207,-0.06542389114480465
1772018005026588400,10.75458837890625,0.359996510463953,-0.057115679667890065,-0.13377842891402542
