time,seconds_elapsed,z,y,x
1772018006723628500,0.081628662109375,-0.006390371825546026,0.0007659932598471642,-0.06437180191278458
1772018006743596300,0.10159619140625,-0.008446721360087395,0.02513330802321434,-0.07281399518251419
1772018006763563500,0.1215634765625,-0.002008903305977583,0.01984252780675888,-0.03556038811802864
1772018006783531500,0.141531494140625,0.004081113263964653,-0.006803673226386309,0.007862064987421036
1772018006803499500,0.16149951171875,0.0032675995025783777,0.012048098258674145,0.033217739313840866
1772018006823467500,0.181467529296875,0.002222666284069419,0.00880487635731697,0.024596696719527245
1772018006843434200,0.201434326171875,0.0006620120257139206,-0.011031698435544968,-0.015968555584549904
1772018006863402200,0.22140234375,-0.002756277099251747,-0.020709671080112457,-0.049472883343696594
1772018006883370500,0.24137060546875,-0.004452626686543226,-0.013690639287233353,-0.03624400123953819
1772018006903338500,0.26133837890625,0.006751920096576214,-0.0022372156381607056,0.0075539518147706985
1772018006923305500,0.281305419921875,0.012790126726031303,-0.0034173941239714622,0.028517404571175575
1772018006943273200,0.301273193359375,0.0007359986193478107,0.010190543718636036,0.004087553359568119
1772018006963241200,0.3212412109375,-0.001964961178600788,0.005765856243669987,-0.026739733293652534
1772018006983208400,0.34120849609375,0.0009307856671512127,-0.009202999994158745,-0.0060167377814650536
1772018007003176400,0.361176513671875,0.004509252961724997,-0.00646460335701704,0.02551497519016266
1772018007023144400,0.38114453125,0.004776686429977417,-0.00843829195946455,0.01363723911345005
1772018007043112400,0.401112548828125,-0.001241894904524088,0.00827843602746725,-0.015990015119314194
1772018007063079400,0.421079345703125,-0.0019149482250213623,0.0014769015833735466,-0.03559195250272751
1772018007083047400,0.44104736328125,-0.0007017138414084911,0.015350700356066227,-0.04155329242348671
1772018007103015400,0.461015380859375,-0.007611273787915707,0.0038383472710847855,-0.012733647599816322
1772018007122983400,0.4809833984375,-0.007468941155821085,0.003685801289975643,0.03269684687256813
1772018007142950700,0.50095068359375,-0.0007011815905570984,-0.011040426790714264,0.028759485110640526
1772018007162918400,0.52091845703125,-0.001866817008703947,-0.012081606313586235,-0.0071816211566329
1772018007182886400,0.540886474609375,-0.0035434896126389503,-0.0007328782230615616,-0.015387749299407005
1772018007202853400,0.560853271484375,-0.004587835632264614,0.008047206327319145,0.013400500640273094
1772018007222821400,0.5808212890625,-0.007072641048580408,0.008310033939778805,0.03484757989645004
1772018007242789600,0.60078955078125,-0.006259326823055744,-0.005361784715205431,0.00803382508456707
1772018007262757400,0.62075732421875,-0.0016879774630069733,0.0011944901198148727,-0.021566826850175858
1772018007282724400,0.640724365234375,-0.00596126401796937,0.013764969073235989,-0.011619899421930313
1772018007302692400,0.6606923828125,-0.006301423069089651,0.00835040956735611,0.004265584051609039
1772018007322660400,0.680660400390625,-0.011129381135106087,-0.010336418636143208,-0.001557963783852756
1772018007342628400,0.70062841796875,-0.0032503590919077396,-0.020028861239552498,-0.009100011549890041
1772018007362595300,0.72059521484375,-0.0024945721961557865,0.00038304831832647324,0.0020371938589960337
1772018007382563300,0.740563232421875,-0.0015344368293881416,0.021656539291143417,0.010353831574320793
1772018007402531300,0.76053125,-0.0034367800690233707,-0.007294423878192902,-0.004209382459521294
1772018007422498600,0.78049853515625,-0.0022965790703892708,-0.0015468508936464787,-0.0091779213398695
1772018007442466600,0.800466552734375,-0.0016058753244578838,0.006025221198797226,-0.00812729261815548
1772018007462434600,0.8204345703125,-0.006508065387606621,0.012354894541203976,0.007838881574571133
1772018007482402000,0.840402099609375,-0.006752204615622759,0.006085633300244808,0.01796848699450493
1772018007502369300,0.860369384765625,-0.0024357899092137814,-0.016819193959236145,0.00599624402821064
1772018007522337300,0.880337158203125,0.004883302841335535,-0.005399646237492561,0.0023042981047183275
1772018007542305300,0.90030517578125,0.0026334282010793686,-0.001975929830223322,0.0022592877503484488
1772018007562273300,0.920273193359375,-0.0003468245267868042,-0.0006582215428352356,0.001007209299132228
1772018007582240000,0.940239990234375,0.0015612572897225618,0.006930634379386902,-0.0007547435816377401
1772018007602208300,0.960208251953125,-0.004062647465616465,0.02108200266957283,-0.0190485380589962
1772018007622176300,0.98017626953125,-0.003496405202895403,-0.00937050860375166,-0.024278583005070686
1772018007642143200,1.000143310546875,0.0012348240707069635,-0.017293330281972885,-0.003208195324987173
1772018007662111200,1.020111328125,0.006729546468704939,-0.008777891285717487,0.022019801661372185
1772018007682079000,1.040078857421875,0.009297632612287998,0.01325683668255806,0.026950644329190254
1772018007702047200,1.060047119140625,0.005813418887555599,0.020023129880428314,0.002524664858356118
1772018007722014200,1.08001416015625,-0.0006354255601763725,0.0015551736578345299,-0.027255868539214134
1772018007741982200,1.099982177734375,0.000352323055267334,0.012623914517462254,-0.014484014362096786
1772018007761950200,1.1199501953125,0.0059147970750927925,0.008986475877463818,0.009997089393436909
1772018007781917200,1.139917236328125,0.0022973192390054464,0.008799329400062561,-0.006161496043205261
1772018007801885200,1.15988525390625,0.00403515575453639,-0.01658663898706436,-0.03267061337828636
1772018007821853200,1.179853271484375,-0.0018893457017838955,-0.010808215476572514,-0.010898587293922901
1772018007841821200,1.1998212890625,0.0005783198866993189,0.015494927763938904,0.03140304237604141
1772018007861788200,1.2197880859375,0.001214676070958376,0.015199122950434685,0.02895106002688408
1772018007881756200,1.239756103515625,-0.0022163311950862408,0.001271612010896206,-0.01938210241496563
1772018007901724200,1.25972412109375,-0.0003678766079246998,-0.018878567963838577,-0.04744385555386543
1772018007921691100,1.279691162109375,0.0011876861099153757,-0.002456327900290489,-0.00022332428488880396
1772018007941659100,1.2996591796875,0.0022402203176170588,0.013612323440611362,0.037781719118356705
1772018007961627100,1.319627197265625,-0.0014599580317735672,0.01338690984994173,0.03061901405453682
1772018007981595400,1.339595458984375,-0.0034365379251539707,0.004169332794845104,-0.006091726012527943
1772018008001562000,1.35956201171875,-0.0026134620420634747,-0.01361992210149765,-0.015202675014734268
1772018008021530000,1.379530029296875,0.0011760566849261522,-0.008941409178078175,0.0024234650190919638
1772018008041498000,1.399498046875,-0.00303321098908782,0.009538876824080944,0.015285991132259369
1772018008061465300,1.41946533203125,-0.0038840374909341335,0.0072967009618878365,0.0037098985631018877
1772018008081433000,1.43943310546875,0.0014642823953181505,0.004119090735912323,0.0017448968719691038
1772018008101401000,1.459401123046875,-0.0023811631835997105,0.019316017627716064,0.015335531905293465
1772018008121369000,1.479369140625,-0.0046130153350532055,0.005790055729448795,-0.0066809626296162605
1772018008141336300,1.49933642578125,-0.006233993452042341,-0.01052155438810587,-0.01827249675989151
1772018008161304300,1.51930419921875,0.0024088548962026834,-0.00844612717628479,0.005078085698187351
1772018008181272300,1.539272216796875,-0.000670755747705698,-0.004229980055242777,0.024580951780080795
1772018008201239000,1.559239013671875,-0.0007431404665112495,0.0018595438450574875,0.02706342190504074
1772018008221207000,1.57920703125,-0.003958907909691334,0.005352811887860298,0.012012566439807415
1772018008241175300,1.59917529296875,-0.0029388642869889736,0.00884388666599989,-0.00732078030705452
1772018008261142300,1.619142333984375,-0.0014305724762380123,0.012065746821463108,-0.01143950130790472
1772018008281110300,1.6391103515625,0.0038985530845820904,0.003804011270403862,0.007350176107138395
1772018008301078000,1.659078125,0.0006713913753628731,0.012454470619559288,0.021777302026748657
1772018008321046000,1.6790458984375,0.0030137808062136173,-0.0059128920547664165,0.024935023859143257
1772018008341013200,1.69901318359375,-0.00002980511635541916,-0.007841633632779121,0.01417213398963213
1772018008360981200,1.718981201171875,0.0007589571177959442,-0.01268810871988535,0.0017038555815815926
1772018008380949200,1.73894921875,-0.009151746518909931,-0.0077212052419781685,0.012015746906399727
1772018008400916200,1.758916259765625,-0.010719534009695053,-0.0032551921904087067,0.04094180464744568
1772018008420884200,1.77888427734375,-0.007476737257093191,0.006713083013892174,0.041548728942871094
1772018008440852200,1.798852294921875,-0.003082016482949257,0.007329955697059631,0.024228880181908607
1772018008460820200,1.8188203125,0.0014191207010298967,0.015712324529886246,-0.0038179452531039715
1772018008480787500,1.838787353515625,-0.0014598323032259941,0.005217475816607475,-0.00577495526522398
1772018008500755500,1.85875537109375,0.0023587180767208338,0.0046666469424963,0.026887239888310432
1772018008520723500,1.878723388671875,-0.0006923791952431202,-0.0054493797942996025,0.04629969224333763
1772018008540690400,1.8986904296875,0.000458570197224617,0.0044590774923563,0.03726305067539215
1772018008560658400,1.918658447265625,-0.003483834210783243,0.012925996445119381,0.016446992754936218
1772018008580626400,1.93862646484375,0.0010203863494098186,0.0013653701171278954,-0.002754263114184141
1772018008600593700,1.95859375,-0.003478473052382469,0.022501438856124878,0.014748431742191315
1772018008620561400,1.9785615234375,-0.01276313979178667,0.01941245049238205,0.023317545652389526
1772018008640529400,1.998529296875,-0.01832861453294754,0.013230722397565842,0.006611269898712635
1772018008660496400,2.018496337890625,-0.01634759083390236,0.00511885154992342,-0.0017180400900542736
1772018008680464400,2.03846435546875,-0.012736241333186626,0.008531041443347931,0.004082865081727505
1772018008700432600,2.0584326171875,-0.011262232437729836,0.015319231897592545,0.03070768155157566
1772018008720400600,2.078400634765625,-0.005160852801054716,0.002665610983967781,0.03525860980153084
1772018008740367400,2.098367431640625,-0.004374645184725523,-0.015252489596605301,0.009882168844342232
1772018008760335400,2.11833544921875,-0.00413676630705595,-0.018191315233707428,-0.01675238646566868
1772018008780303400,2.138303466796875,-0.00671745277941227,-0.0005880799144506454,-0.03502633795142174
1772018008800270600,2.1582705078125,-0.006439934950321913,0.008433802053332329,-0.017175832763314247
1772018008820238300,2.17823828125,-0.011578203178942204,-0.004373287782073021,-0.00328957661986351
1772018008840206300,2.198206298828125,-0.009008871391415596,-0.013455461710691452,-0.028021426871418953
1772018008860173600,2.218173583984375,-0.007701208349317312,-0.022471114993095398,-0.060013048350811005
1772018008880141600,2.2381416015625,-0.000421157106757164,-0.02373846247792244,-0.05305074155330658
1772018008900109600,2.258109619140625,0.007918897084891796,-0.030088763684034348,-0.005767660215497017
1772018008920077600,2.27807763671875,-0.003071052487939596,-0.023131471127271652,0.011236232705414295
1772018008940044300,2.298044189453125,-0.00779889477416873,0.007540254853665829,-0.0003921890165656805
1772018008960012500,2.318012451171875,-0.006045687478035688,0.012420560233294964,-0.02287820540368557
1772018008979980500,2.33798046875,-0.007997180335223675,0.01126286294311285,-0.028453510254621506
1772018008999947500,2.357947509765625,-0.008948382921516895,0.010931156575679779,-0.01608540304005146
1772018009019915300,2.377915283203125,-0.0018812031485140324,-0.0030522476881742477,0.0014958502724766731
1772018009039883300,2.39788330078125,0.00683166366070509,-0.02136686071753502,0.017333654686808586
1772018009059850500,2.4178505859375,0.0032919710502028465,-0.020890794694423676,0.026366177946329117
1772018009079818500,2.437818603515625,0.004584486596286297,-0.02008092775940895,0.02066049538552761
1772018009099786500,2.457786376953125,0.010234914720058441,0.0035804584622383118,-0.005628633312880993
1772018009119753500,2.47775341796875,0.005398966372013092,0.006318713538348675,-0.040952131152153015
1772018009139721500,2.497721435546875,-0.0001696390099823475,-0.006078610196709633,-0.024989422410726547
1772018009159689500,2.517689453125,0.0030378391966223717,-0.010742923244833946,-0.0009133840794675052
1772018009179656400,2.537656494140625,0.013551831245422363,-0.007215142250061035,0.004082180559635162
1772018009199624400,2.55762451171875,0.013358553871512413,-0.00004341360181570053,0.003818532219156623
1772018009219592400,2.577592529296875,0.011944131925702095,0.02072588913142681,-0.012293193489313126
1772018009239560400,2.597560546875,0.004709173459559679,0.01240037102252245,-0.05055231228470802
1772018009259527400,2.61752734375,0.013059314340353012,0.004927116446197033,-0.05930319055914879
1772018009279495400,2.637495361328125,0.020460039377212524,0.005848675034940243,-0.018886255100369453
1772018009299463400,2.65746337890625,0.028372623026371002,0.011686163023114204,0.0098812161013484
1772018009319430400,2.677430419921875,0.02692880854010582,0.006366981193423271,0.006384876556694508
1772018009339398400,2.6973984375,0.024948779493570328,-0.004443002864718437,0.0042061470448970795
1772018009359366400,2.717366455078125,0.031144456937909126,0.0068279169499874115,-0.0018581297481432557
1772018009379333400,2.73733349609375,0.0282749030739069,0.011883238330483437,-0.022742392495274544
1772018009399301600,2.757301513671875,0.028501370921730995,0.009185885079205036,-0.02389979548752308
1772018009419269600,2.77726953125,0.03374699875712395,0.008166573010385036,0.00554093811661005
1772018009439236400,2.797236328125,0.033053115010261536,0.008057286962866783,0.014840135350823402
1772018009459204400,2.817204345703125,0.026462987065315247,0.021549344062805176,-0.004439543932676315
1772018009479172400,2.83717236328125,0.01616004854440689,0.020761366933584213,-0.01547648012638092
1772018009499139600,2.8571396484375,0.013072330504655838,0.0008771941065788269,-0.0012619943590834737
1772018009519107600,2.877107666015625,0.016208887100219727,-0.0078761400654912,0.009028584696352482
1772018009539075600,2.89707568359375,0.010237944312393665,-0.00076688127592206,0.010118093341588974
1772018009559042600,2.91704248046875,0.0035073915496468544,0.00494089350104332,-0.003093159757554531
1772018009579010600,2.937010498046875,-0.0008453475311398506,-0.02249029651284218,-0.012049108743667603
1772018009598978600,2.956978515625,-0.0016711950302124023,-0.011381336487829685,-0.014116007834672928
1772018009618945500,2.976945556640625,-0.0029082177206873894,0.014119922183454037,0.0037187838461250067
1772018009638913500,2.99691357421875,-0.005027044098824263,-0.01201623398810625,0.00774694699794054
1772018009658881500,3.016881591796875,-0.007104818243533373,-0.025543242692947388,0.006635459139943123
1772018009678848500,3.0368486328125,-0.003407598938792944,-0.025929883122444153,0.005811341106891632
1772018009698816500,3.05681640625,-0.007512313779443502,-0.00818321667611599,0.01358950324356556
1772018009718784500,3.076784423828125,-0.01423545740544796,0.0023507215082645416,0.012005607597529888
1772018009738752500,3.09675244140625,-0.013340683653950691,0.002680206671357155,0.020751027390360832
1772018009758719500,3.116719482421875,-0.0064055039547383785,-0.01588747464120388,0.02255450189113617
1772018009778687500,3.1366875,-0.002649238333106041,-0.006423279643058777,0.007706457749009132
1772018009798655500,3.156655517578125,-0.0061411429196596146,0.010004483163356781,-0.0028356630355119705
1772018009818622500,3.17662255859375,-0.012431828305125237,0.004384093917906284,0.003889082232490182
1772018009838590700,3.1965908203125,-0.011502932757139206,-0.0009447867050766945,0.016833242028951645
1772018009858558700,3.216558837890625,-0.004616102669388056,-0.0006137490272521973,0.00823177583515644
1772018009878525400,3.236525390625,-0.003910090308636427,0.00865361001342535,-0.005146365147083998
1772018009898493400,3.256493408203125,-0.0041019609197974205,0.0019159307703375816,-0.004200533032417297
1772018009918461400,3.27646142578125,-0.006137164309620857,-0.0014691073447465897,0.009175591170787811
1772018009938428700,3.2964287109375,-0.006431976333260536,0.002620709128677845,0.009610751643776894
1772018009958396400,3.316396484375,-0.00285541545599699,0.016081813722848892,0.007582217454910278
1772018009978364400,3.336364501953125,-0.0009344927966594696,0.01042989082634449,0.0002655808348208666
1772018009998331600,3.35633154296875,-0.006868984550237656,0.0027580223977565765,-0.0031483182683587074
1772018010018299600,3.376299560546875,-0.005860981531441212,-0.009154378436505795,-0.002793470863252878
1772018010038267600,3.396267578125,-0.0067160120233893394,-0.005207771901041269,-0.003174428828060627
1772018010058234400,3.416234375,-0.01152174361050129,-0.0006279721856117249,-0.005641167052090168
1772018010078202400,3.436202392578125,-0.006252462975680828,-0.010239269584417343,-0.0026758734602481127
1772018010098170600,3.456170654296875,-0.003787027671933174,0.01599031314253807,-0.00011163856834173203
1772018010118137600,3.4761376953125,-0.004609483294188976,0.019559301435947418,-0.014501120895147324
1772018010138105600,3.496105712890625,-0.0024553462862968445,-0.007385934703052044,-0.01317034661769867
1772018010158073300,3.5160732421875,-0.0030305050313472748,-0.012073545716702938,-0.0003962030168622732
1772018010178040600,3.53604052734375,0.0022257387172430754,-0.007565478794276714,0.012411050498485565
1772018010198008600,3.556008544921875,0.004880173597484827,-0.0013077333569526672,0.03193948045372963
1772018010217976600,3.5759765625,0.005969359539449215,0.005702286027371883,0.029101215302944183
1772018010237943600,3.595943603515625,0.0037349567282944918,-0.0002707354724407196,0.00941488053649664
1772018010257911600,3.61591162109375,0.006596911698579788,0.0030545443296432495,0.0047532543540000916
1772018010277879600,3.635879638671875,0.007819397374987602,0.004114476032555103,-0.0020448388531804085
1772018010297846500,3.655846435546875,0.0031216260977089405,0.013426355086266994,0.007193384692072868
1772018010317814500,3.675814453125,-0.0045099747367203236,0.010340864770114422,-0.0006502934847958386
1772018010337782500,3.695782470703125,-0.004042246378958225,0.0012749433517456055,-0.007931769825518131
1772018010357749500,3.71574951171875,-0.003076675347983837,0.010911235585808754,0.001861085183918476
1772018010377717500,3.735717529296875,0.0004750550724565983,0.006603879854083061,0.006513352505862713
1772018010397685500,3.755685546875,0.0010674213990569115,0.012975677847862244,0.004667769186198711
1772018010417652500,3.775652587890625,0.002931382739916444,-0.0019389279186725616,-0.010812253691256046
1772018010437620700,3.795620849609375,0.004178227856755257,-0.012953624129295349,-0.014003504067659378
1772018010457587500,3.81558740234375,0.0023061814717948437,-0.017197437584400177,-0.006235470529645681
1772018010477555200,3.83555517578125,0.0022328514605760574,-0.00847070012241602,0.02455386146903038
1772018010497523200,3.855523193359375,0.001216009957715869,-0.0049120476469397545,0.04812471568584442
1772018010517490400,3.875490478515625,0.0028637077193707228,-0.017052333801984787,0.032202739268541336
1772018010537458200,3.895458251953125,-0.0077382284216582775,-0.006880142726004124,-0.003227964974939823
1772018010557426200,3.91542626953125,-0.012011364102363586,-0.001984539907425642,-0.005652095191180706
1772018010577393400,3.935393310546875,-0.005499636754393578,-0.004113235976547003,0.014154482632875443
1772018010597361400,3.955361328125,-0.00338616780936718,-0.007525973487645388,0.021793626248836517
1772018010617329400,3.975329345703125,-0.006400881335139275,-0.030839446932077408,0.0027385747525840998
1772018010637296000,3.995296142578125,-0.01513830665498972,-0.03126275911927223,0.0012731803581118584
1772018010657264000,4.01526416015625,-0.01364706177264452,-0.01654663309454918,0.007321743294596672
1772018010677232400,4.035232421875,-0.018066545948386192,0.005023433826863766,0.011607303284108639
1772018010697199400,4.055199462890625,-0.019889023154973984,0.00030909106135368347,0.0029396414756774902
1772018010717167400,4.07516748046875,-0.020503338426351547,0.0002395976334810257,0.007945723831653595
1772018010737135400,4.09513525390625,-0.02118031494319439,-0.0031687160953879356,0.021682575345039368
1772018010757102300,4.115102294921875,-0.01898251473903656,-0.005999199114739895,0.03490582853555679
1772018010777070300,4.1350703125,-0.01598246395587921,-0.00982056837528944,0.032628025859594345
1772018010797038300,4.155038330078125,-0.012488555163145065,-0.0208534374833107,0.033456411212682724
1772018010817005300,4.17500537109375,-0.015531796030700207,-0.005443010479211807,0.034618474543094635
1772018010836973300,4.194973388671875,-0.017181387171149254,-0.01474948599934578,0.018422728404402733
1772018010856941300,4.21494140625,-0.015043789520859718,-0.01769758202135563,-0.01404733955860138
1772018010876908300,4.234908203125,-0.016917329281568527,-0.014746159315109253,-0.027897492051124573
1772018010896876300,4.254876220703125,-0.010226404294371605,-0.014586636796593666,0.015605512075126171
1772018010916844300,4.27484423828125,-0.01182414311915636,-0.00900924950838089,0.050630196928977966
1772018010936811300,4.294811279296875,-0.010047683492302895,-0.004692403599619865,0.031008953228592873
1772018010956779300,4.314779296875,-0.010456036776304245,-0.004773281514644623,-0.012159829027950764
1772018010976746200,4.334746337890625,-0.011470034718513489,-0.016470009461045265,-0.01866845414042473
1772018010996714200,4.35471435546875,-0.012673142366111279,-0.015488824807107449,0.018335778266191483
1772018011016682500,4.3746826171875,-0.003933287691324949,-0.0010694819502532482,0.04396350309252739
1772018011036649200,4.394649169921875,-0.009491275064647198,0.006132565438747406,0.024249721318483353
1772018011056617200,4.4146171875,-0.014908324927091599,0.0004138583317399025,-0.011989787220954895
1772018011076585200,4.434585205078125,-0.010121453553438187,-0.001331760548055172,-0.02172829583287239
1772018011096552400,4.454552490234375,-0.005131665151566267,0.020204339176416397,0.0005061768461018801
1772018011116520400,4.4745205078125,-0.01139361597597599,0.0057539064437150955,0.005041536409407854
1772018011136488200,4.49448828125,-0.013816595077514648,-0.010136865079402924,-0.003003724617883563
1772018011156455200,4.514455078125,-0.011056650429964066,-0.020680081099271774,0.000020017963834106922
1772018011176423400,4.53442333984375,0.0003962893970310688,-0.007301793899387121,0.006427984219044447
1772018011196390400,4.554390380859375,-0.0033585624769330025,0.009432325139641762,0.017684895545244217
1772018011216358100,4.574358154296875,-0.0059065367095172405,0.019831303507089615,0.0058451564982533455
1772018011236326100,4.594326171875,-0.007278499659150839,0.016706954687833786,-0.001132736331783235
1772018011256293400,4.61429345703125,0.00035701971501111984,0.014950539916753769,0.005934758111834526
1772018011276261400,4.634261474609375,0.003057053778320551,0.019485611468553543,0.005792819894850254
1772018011296229400,4.6542294921875,0.006806396879255772,0.013643726706504822,-0.00014470587484538555
1772018011316196000,4.674196044921875,0.005417352542281151,0.002904650755226612,-0.00518073933199048
1772018011336164400,4.694164306640625,0.008031938225030899,0.008767519146203995,-0.00893966481089592
1772018011356132400,4.71413232421875,0.005069415550678968,0.012366998009383678,-0.006032542325556278
1772018011376099300,4.734099365234375,0.011175503954291344,-0.0023445808328688145,0.0002261343179270625
1772018011396067300,4.7540673828125,0.01128706056624651,-0.006939662154763937,0.0036232604179531336
1772018011416034300,4.774034423828125,0.007596437819302082,0.011311614885926247,0.014580702409148216
1772018011436002300,4.794002197265625,0.0010271307546645403,0.012173756957054138,0.00739628728479147
1772018011455970300,4.81397021484375,0.0005964227020740509,-0.0018842639401555061,-0.005772099364548922
1772018011475938000,4.83393798828125,-0.0037605352699756622,-0.0034785321913659573,-0.013663331046700478
1772018011495906000,4.853906005859375,0.002053871052339673,-0.00037005916237831116,-0.01231028139591217
1772018011515874000,4.8738740234375,0.0069808354601264,-0.00435208436101675,-0.00031995936296880245
1772018011535841300,4.89384130859375,0.006582838483154774,0.006091820076107979,0.003916340880095959
1772018011555809300,4.913809326171875,0.008955750614404678,-0.0017516477964818478,-0.007712065242230892
1772018011575777000,4.933777099609375,0.012248832732439041,-0.0025727935135364532,-0.015409411862492561
1772018011595744300,4.953744140625,0.007935428991913795,-0.0008377884514629841,-0.010488432832062244
1772018011615712300,4.973712158203125,-0.0019326484762132168,-0.014252929948270321,-0.005848141387104988
1772018011635679200,4.99367919921875,-0.008835487067699432,-0.013516008853912354,-0.00046788540203124285
1772018011655647200,5.013647216796875,0.002780747367069125,-0.015481298789381981,-0.010455533862113953
1772018011675615000,5.033614990234375,0.010032953694462776,-0.01297895796597004,-0.010167103260755539
1772018011695582200,5.053582275390625,0.006770194508135319,0.0030769677832722664,0.001078068045899272
1772018011715550200,5.07355029296875,0.008436739444732666,-0.004477445036172867,0.0036658751778304577
1772018011735518200,5.093518310546875,0.006654065568000078,0.0010871551930904388,-0.0019623308908194304
1772018011755485200,5.113485107421875,0.007230226881802082,-0.00625463854521513,-0.01633831486105919
1772018011775453200,5.133453125,0.008744454011321068,-0.007373147644102573,0.0035505504347383976
1772018011795420200,5.153420166015625,0.009934915229678154,-0.009005867876112461,0.027348559349775314
1772018011815388200,5.17338818359375,0.009636256843805313,-0.013718286529183388,0.013099325820803642
1772018011835356200,5.193356201171875,0.00509204575791955,-0.005041563883423805,-0.009774302132427692
1772018011855323100,5.2133232421875,0.0010966700501739979,-0.002591787837445736,-0.02959526516497135
1772018011875291100,5.233291015625,0.007479364983737469,-0.0058702509850263596,-0.028676632791757584
1772018011895259100,5.253259033203125,0.007645986974239349,-0.00039521045982837677,-0.01569451205432415
1772018011915226000,5.27322607421875,0.008528737351298332,-0.0028532305732369423,-0.00036349729634821415
1772018011935194400,5.2931943359375,0.002351434202864766,-0.0020623630844056606,-0.0031743375584483147
1772018011955160000,5.31316015625,0.000764127355068922,-0.010579771362245083,-0.02102256380021572
1772018011975127300,5.333127197265625,0.0007557927165180445,-0.008103807456791401,-0.03752406686544418
1772018011995095300,5.35309521484375,-0.00010829046368598938,0.00033494923263788223,-0.04234517738223076
1772018012015062000,5.37306201171875,-0.002850122284144163,0.004785844124853611,-0.033409327268600464
1772018012035030000,5.393030029296875,-0.007395043503493071,0.01300069410353899,-0.008403044193983078
1772018012054998300,5.412998291015625,0.0023462045937776566,0.0061083510518074036,0.02194085717201233
1772018012074965200,5.43296533203125,0.003311827313154936,0.018189772963523865,0.02474970743060112
1772018012094933200,5.452933349609375,-0.00497634569182992,0.0015569888055324554,-0.009572836570441723
1772018012114900200,5.472900146484375,-0.007369859144091606,-0.011666557751595974,-0.033677514642477036
1772018012134868200,5.4928681640625,-0.003068758174777031,-0.01854056864976883,-0.023888278752565384
1772018012154836200,5.512836181640625,0.0036243684589862823,0.000504261814057827,0.006297457963228226
1772018012174803200,5.53280322265625,0.007316027767956257,0.009725555777549744,0.03222186490893364
1772018012194771000,5.55277099609375,0.0017200708389282227,0.008361010812222958,0.01685250550508499
1772018012214739200,5.5727392578125,-0.003754438366740942,-0.0003786766901612282,-0.010182315483689308
1772018012234706200,5.5927060546875,-0.0012331805191934109,-0.0012847199104726315,-0.01905716210603714
1772018012254674200,5.612674072265625,-0.0010306271724402905,0.0033095022663474083,-0.012050660327076912
1772018012274641200,5.63264111328125,-0.0017139380797743797,-0.002308835741132498,0.0020579714328050613
1772018012294609200,5.652609130859375,-0.002634607255458832,-0.011520343832671642,-0.009696023538708687
1772018012314577200,5.6725771484375,-0.0046068038791418076,-0.014306709170341492,-0.033025190234184265
1772018012334544100,5.692544189453125,-0.007433789782226086,0.011787470430135727,-0.03875283524394035
1772018012354512100,5.71251220703125,-0.006967218592762947,0.007464761845767498,-0.01952802576124668
1772018012374480100,5.732480224609375,0.0003253878094255924,0.0034103598445653915,0.013925825245678425
1772018012394447000,5.752447021484375,-0.0019813338294625282,-0.013140078634023666,0.005694117397069931
1772018012414415000,5.7724150390625,0.0026962566189467907,-0.009448770433664322,-0.011985409073531628
1772018012434382000,5.792382080078125,-0.0022655767388641834,-0.003744113724678755,-0.01677950657904148
1772018012454350300,5.812350341796875,-0.009945867583155632,0.0024594534188508987,-0.005026442930102348
1772018012474317600,5.832317626953125,-0.005048846825957298,-0.007123132236301899,0.004473851062357426
1772018012494284300,5.8522841796875,-0.0015129116363823414,-0.0090170381590724,0.018466636538505554
1772018012514252500,5.87225244140625,-0.0016864361241459846,0.008787021972239017,0.01579454354941845
1772018012534219500,5.892219482421875,-0.008481338620185852,0.0035197921097278595,-0.014409554190933704
1772018012554187500,5.9121875,-0.007797872181981802,0.00019017141312360764,-0.033302828669548035
1772018012574155500,5.932155517578125,-0.0055674477480351925,0.0010949140414595604,-0.0166586022824049
1772018012594122500,5.95212255859375,-0.011575105600059032,-0.003561486955732107,0.0008788560517132282
1772018012614090500,5.972090576171875,-0.008343439549207687,-0.010258784517645836,-0.001962325070053339
1772018012634057500,5.992057373046875,-0.005514801945537329,-0.007191741373389959,-0.010369669646024704
1772018012654025500,6.012025390625,-0.008571325801312923,0.006723108701407909,-0.012718711979687214
1772018012673993500,6.031993408203125,-0.01214863732457161,0.012907000258564949,-0.00700237974524498
1772018012693960400,6.05196044921875,-0.011938710696995258,0.007807613350450993,0.006442992947995663
1772018012713928400,6.071928466796875,-0.008104544132947922,0.0026247361674904823,0.0008299823384732008
1772018012733895400,6.0918955078125,-0.007502949796617031,0.007405209355056286,-0.018501505255699158
1772018012753863700,6.11186376953125,-0.003521769307553768,0.0036860210821032524,-0.032181646674871445
1772018012773831400,6.13183154296875,-0.00763368234038353,0.0036414330825209618,-0.005537501536309719
1772018012793798400,6.15179833984375,-0.006848359014838934,-0.008198682218790054,0.022209838032722473
1772018012813766400,6.171766357421875,-0.007727468851953745,0.0015279809013009071,0.02411213517189026
1772018012833733600,6.191733642578125,-0.0009117941372096539,0.012448006309568882,0.009342515841126442
1772018012853701400,6.211701416015625,-0.003869472537189722,0.0073603680357337,-0.0008488668245263398
1772018012873669400,6.23166943359375,-0.0036547654308378696,-0.0009519909508526325,0.0056357840076088905
1772018012893636400,6.25163623046875,-0.0027785985730588436,-0.01156432181596756,0.010123342275619507
1772018012913604600,6.2716044921875,0.002165238605812192,-0.008898369036614895,0.0048047397285699844
1772018012933571600,6.291571533203125,0.0016620529349893332,0.0002618134021759033,-0.0018618088215589523
1772018012953539300,6.311539306640625,-0.005926666781306267,-0.005500967614352703,-0.007969903759658337
1772018012973507300,6.33150732421875,-0.004498043563216925,-0.021057169884443283,0.004070769064128399
1772018012993474600,6.351474609375,-0.0002493811771273613,-0.0036726766265928745,0.021576933562755585
1772018013013442600,6.371442626953125,-0.006619327235966921,0.014909566380083561,0.0018699450884014368
1772018013033409300,6.3914091796875,-0.004074361640959978,-0.0003309221938252449,-0.023721182718873024
1772018013053377300,6.411377197265625,0.000016641803085803986,-0.0028892415575683117,-0.025237180292606354
1772018013073345500,6.431345458984375,-0.0057972511276602745,-0.007311551831662655,-0.02892352268099785
1772018013093312500,6.4513125,-0.009825548157095909,-0.023230597376823425,-0.015618637204170227
1772018013113280500,6.471280517578125,-0.005263539031147957,-0.02748163416981697,0.009751568548381329
1772018013133247500,6.49124755859375,-0.005163128022104502,-0.001822866965085268,0.02355005592107773
1772018013153215500,6.511215576171875,-0.008921192958950996,0.013783479109406471,0.019828833639621735
1772018013173183500,6.53118359375,-0.008824998512864113,0.009630146436393261,0.0011006882414221764
1772018013193150500,6.551150390625,-0.00434970622882247,0.002140827476978302,-0.007723571732640266
1772018013213118500,6.571118408203125,-0.00653472077101469,0.012930368073284626,-0.0024353263434022665
1772018013233085400,6.59108544921875,-0.003133597783744335,0.010515413247048855,0.020746426656842232
1772018013253053400,6.611053466796875,0.0005985558964312077,0.0017783809453248978,0.03355143591761589
1772018013273021400,6.631021484375,-0.0063416967168450356,-0.013184194453060627,0.02392170950770378
1772018013292988400,6.650988525390625,-0.006915300618857145,-0.011333858594298363,0.0034059169702231884
1772018013312956700,6.670956787109375,-0.008536235429346561,0.0013592178001999855,-0.0006351720076054335
1772018013332923400,6.69092333984375,-0.0012582275085151196,0.0032920530065894127,0.015276557765901089
1772018013352891400,6.710891357421875,-0.00021935580298304558,0.010767477564513683,0.02373129315674305
1772018013372859400,6.730859375,-0.000960642471909523,0.007332873530685902,0.011648273095488548
1772018013392826600,6.75082666015625,0.0005338410846889019,-0.0004946263507008553,-0.019026819616556168
1772018013412794400,6.77079443359375,-0.0006939582526683807,0.010763679631054401,-0.03397781401872635
1772018013432761300,6.79076123046875,-0.00012485357001423836,0.003222505562007427,-0.03130945935845375
1772018013452729300,6.810729248046875,-0.0022402694448828697,0.005554327741265297,-0.014637940563261509
1772018013472696600,6.830696533203125,0.005744207184761763,-0.009281736798584461,-0.007658591493964195
1772018013492665000,6.8506650390625,0.0002106507308781147,0.009222200140357018,0.006878670305013657
1772018013512633000,6.870633056640625,-0.0014163404703140259,-0.002063519787043333,0.006204754114151001
1772018013532599800,6.890599853515625,-0.0007279915735125542,-0.0008333534933626652,0.002810816513374448
1772018013552568000,6.910568115234375,0.005446918308734894,0.0017115827649831772,-0.0027325470000505447
1772018013572535000,6.93053515625,-0.001182781532406807,0.00377466157078743,-0.005770948715507984
1772018013592503000,6.9505029296875,0.001126087037846446,-0.022827599197626114,0.002300703665241599
1772018013612471000,6.970470947265625,-0.0015991507098078728,-0.021870438009500504,0.02485792711377144
1772018013632438000,6.99043798828125,0.004062607418745756,-0.02161611057817936,0.02581627294421196
1772018013652406000,7.010406005859375,0.003570322412997484,-0.0014899875968694687,0.014553241431713104
1772018013672373000,7.030373046875,0.0016387456562370062,0.004593373276293278,0.0031262836419045925
1772018013692341000,7.050341064453125,-0.0002404218539595604,-0.003679174929857254,-0.00894196704030037
1772018013712309200,7.070309326171875,-0.0018075322732329369,-0.004087716806679964,-0.010846666060388088
1772018013732276000,7.09027587890625,0.0014859463553875685,0.00004456751048564911,0.018081383779644966
1772018013752244000,7.110243896484375,0.004647517576813698,0.011468548327684402,0.02462451346218586
1772018013772211200,7.130211181640625,0.0007967224810272455,0.001684173010289669,0.005141635425388813
1772018013792179200,7.15017919921875,0.00021428707987070084,0.004432658664882183,-0.0046798535622656345
1772018013812146000,7.17014599609375,0.003136373357847333,0.0055842529982328415,-0.0046727922745049
1772018013832114000,7.190114013671875,0.005678853020071983,0.012461360543966293,-0.005982137285172939
1772018013852082000,7.21008203125,0.0048470571637153625,0.006071520037949085,-0.009027334861457348
1772018013872049200,7.230049072265625,0.0035049021244049072,0.01302019041031599,0.0020540831610560417
1772018013892017200,7.25001708984375,0.0010950076393783092,0.020732171833515167,0.007456038612872362
1772018013911983900,7.26998388671875,0.004140812903642654,0.01762039214372635,0.00846830289810896
1772018013931951900,7.289951904296875,-0.0012038201093673706,0.014697616919875145,-0.0005801816005259752
1772018013951919000,7.309919189453125,0.002012852346524596,0.010690372437238693,0.015258975327014923
1772018013971887000,7.32988720703125,0.011034736409783363,0.0009045731276273727,0.02875746600329876
1772018013991855000,7.349855224609375,0.010005854070186615,0.013582797721028328,0.016391605138778687
1772018014011822000,7.369822021484375,0.006927960552275181,0.019140595570206642,-0.010388081893324852
1772018014031790000,7.3897900390625,0.01401757076382637,0.008950628340244293,-0.021957503631711006
1772018014051757000,7.409757080078125,0.018735839053988457,0.0002283696085214615,-0.014637808315455914
1772018014071725000,7.42972509765625,0.014035306870937347,-0.0041763740591704845,0.002738781739026308
1772018014091693000,7.449693115234375,0.008120758458971977,-0.003043421544134617,0.01475323736667633
1772018014111660000,7.469659912109375,0.012244518846273422,-0.008860823698341846,0.01235172338783741
1772018014131628000,7.4896279296875,0.018681710585951805,0.0026102568954229355,0.0036358668003231287
1772018014151595000,7.509594970703125,0.016444947570562363,0.00906769372522831,-0.008166195824742317
1772018014171563300,7.529563232421875,0.017326897010207176,0.016267966479063034,-0.005966830067336559
1772018014191530000,7.549530029296875,0.015453895553946495,0.011416484601795673,0.003027197439223528
1772018014211498000,7.569498046875,0.020336445420980453,-0.012302548624575138,0.00394345261156559
1772018014231466000,7.589466064453125,0.017689405009150505,-0.00801139697432518,0.0041601094417274
1772018014251433200,7.60943310546875,0.014764519408345222,0.00007800012826919556,0.0008179792203009129
1772018014271401000,7.62940087890625,0.013447430916130543,-0.0030907951295375824,0.010818938724696636
1772018014291368000,7.649367919921875,0.014075860381126404,-0.0028742323629558086,0.01664433442056179
1772018014311336000,7.6693359375,0.011854263953864574,0.0023052524775266647,0.007298901677131653
1772018014331303200,7.68930322265625,0.009692996740341187,-0.001067204400897026,-0.00887925922870636
1772018014351271200,7.709271240234375,0.012280096299946308,0.004619459621608257,-0.011021500453352928
1772018014371239000,7.729239013671875,0.011640353128314018,-0.00015599466860294342,0.0009986741933971643
1772018014391206100,7.7492060546875,0.009707048535346985,-0.010190555825829506,0.010727445594966412
1772018014411174100,7.769174072265625,0.00935826450586319,0.006019804626703262,0.017735308036208153
1772018014431141000,7.78914111328125,0.006790580227971077,-0.005486210808157921,0.018677260726690292
1772018014451108900,7.80910888671875,0.0031881099566817284,-0.0036788927391171455,0.006209804676473141
1772018014471076000,7.829076171875,0.0013081133365631104,-0.009429584257304668,-0.004666134715080261
1772018014491044400,7.84904443359375,-0.0035996646620333195,-0.008949168026447296,0.0018900292925536633
1772018014511011300,7.86901123046875,-0.006437645759433508,-0.016340967267751694,0.021236421540379524
1772018014530979300,7.888979248046875,-0.0012307828292250633,-0.015191884711384773,0.03052114136517048
1772018014550947000,7.908947021484375,-0.005314247217029333,-0.0021373098716139793,0.006048685871064663
1772018014570914300,7.928914306640625,-0.00960376113653183,-0.019296880811452866,-0.023845426738262177
1772018014590882300,7.94888232421875,-0.006399916019290686,-0.038373954594135284,-0.018206195905804634
1772018014610849300,7.968849365234375,0.0030272926669567823,-0.02285926789045334,0.0001222199061885476
1772018014630817500,7.988817626953125,0.006792292930185795,-0.013281460851430893,0.008549517020583153
1772018014650784300,8.0087841796875,0.0029491479508578777,-0.006398733239620924,0.007728333584964275
1772018014670752300,8.028752197265625,0.0014071906916797161,-0.004833689425140619,-0.0026125863660126925
1772018014690720300,8.04872021484375,-0.005082336720079184,-0.0033214963041245937,-0.00868738628923893
1772018014710687500,8.0686875,-0.005697969812899828,-0.00432150112465024,-0.007499892730265856
1772018014730655200,8.0886552734375,-0.008898228406906128,0.004444881342351437,-0.0045806653797626495
1772018014750622200,8.108622314453125,-0.006198847200721502,-0.015932561829686165,0.0014993315562605858
1772018014770590200,8.128590087890625,-0.007321333047002554,-0.021881818771362305,0.00877921748906374
1772018014790557400,8.148557373046875,-0.010781794786453247,-0.0005699926987290382,0.00750702852383256
1772018014810525200,8.168525146484376,-0.009387603029608727,0.015854861587285995,-0.004684388637542725
1772018014830492200,8.1884921875,-0.007043793331831694,0.006887754425406456,-0.016685793176293373
1772018014850460400,8.20846044921875,-0.003999495413154364,0.0031814100220799446,-0.00023797492031008005
1772018014870428400,8.228428466796874,-0.00011339876800775528,-0.004746650345623493,0.017080694437026978
1772018014890395400,8.2483955078125,0.0037911152467131615,-0.004737029783427715,0.02178582362830639
1772018014910363100,8.268363037109374,0.0022114019375294447,-0.009167238138616085,-0.0014830098953098059
1772018014930330400,8.288330322265624,0.0009851169306784868,-0.006599389482289553,-0.01651894487440586
1772018014950298400,8.30829833984375,0.0024092255625873804,-0.005993858445435762,-0.00750187411904335
1772018014970265300,8.328265380859374,0.003192396368831396,0.02183878794312477,0.009887897409498692
1772018014990233000,8.348233154296874,-0.0003351867198944092,0.025430459529161453,0.011646636761724949
1772018015010200300,8.368200439453124,0.006351744756102562,0.011438744142651558,0.008831675164401531
1772018015030168300,8.388168212890625,0.008671482093632221,0.031123608350753784,-0.0035677296109497547
1772018015050136300,8.40813623046875,0.0028732609935104847,0.024937523528933525,-0.02208269014954567
1772018015070103300,8.428103271484375,-0.0021911561489105225,-0.00035390444099903107,-0.011115801520645618
1772018015090071300,8.4480712890625,0.007347624748945236,-0.013577284291386604,0.0049458639696240425
1772018015110038300,8.468038330078125,0.011292032897472382,0.0005654329434037209,0.008055103942751884
1772018015130006300,8.48800634765625,0.012096642516553402,0.00501816812902689,0.0074380384758114815
1772018015149973500,8.507973388671875,0.004802962299436331,0.02284100651741028,0.018994970247149467
1772018015169941200,8.527941162109375,0.009720279835164547,0.012081327848136425,0.01654551550745964
1772018015189908200,8.547908203125,0.012425821274518967,-0.004348797257989645,-0.007126389071345329
1772018015209876200,8.567876220703125,0.016976220533251762,0.01240579318255186,-0.010812995955348015
1772018015229844200,8.58784423828125,0.009115559980273247,0.003987048752605915,0.010891229845583439
1772018015249811500,8.6078115234375,0.008632584474980831,0.002547682262957096,0.012231324799358845
1772018015269779200,8.627779296875,-0.0009183697402477264,0.0034123938530683517,-0.0024963440373539925
1772018015289746200,8.64774609375,0.0012838104739785194,0.0017052115872502327,-0.019114602357149124
1772018015309714400,8.66771435546875,0.0015429486520588398,0.00975771714001894,0.0021436826791614294
1772018015329681400,8.687681396484376,0.01241890899837017,0.010237240232527256,0.014547348022460938
1772018015349649200,8.707649169921876,0.008391955867409706,0.0032854964956641197,0.014100071042776108
1772018015369616400,8.727616455078126,0.006065091118216515,0.008809634484350681,0.02990100346505642
1772018015389584400,8.74758447265625,0.005453363060951233,0.008653040044009686,0.02767486684024334
1772018015409551400,8.76755126953125,0.001711223041638732,-0.0003697313368320465,0.01996675133705139
1772018015429519000,8.78751904296875,0.004904981702566147,-0.006025488022714853,0.03106573224067688
1772018015449487000,8.807487060546874,0.0005742828361690044,-0.0005433494225144386,0.04103275388479233
1772018015469454300,8.827454345703124,0.0042871772311627865,0.014250109903514385,0.024261360988020897
1772018015489421600,8.847421630859374,-0.0015890761278569698,0.007693312130868435,-0.004518755711615086
1772018015509388500,8.867388427734374,0.005386639386415482,-0.0004987996071577072,-0.010006459429860115
1772018015529356500,8.8873564453125,0.0005007428117096424,0.011542360298335552,0.007915944792330265
1772018015549323500,8.907323486328124,-0.0029268297366797924,0.008832725696265697,0.012883135117590427
1772018015569291500,8.92729150390625,-0.0074548195116221905,-0.004714648239314556,-0.0028967643156647682
1772018015589258500,8.947258544921874,-0.005184670444577932,-0.004746371880173683,-0.007746377028524876
1772018015609226500,8.9672265625,-0.00351123558357358,-0.006085141561925411,-0.004160687327384949
1772018015629193500,8.987193359375,-0.0023166630417108536,0.011293203569948673,0.02120804600417614
1772018015649161500,9.007161376953125,-0.005983315873891115,0.020530737936496735,0.034447282552719116
1772018015669129700,9.027129638671875,-0.009174399077892303,0.02148454450070858,0.007025908678770065
1772018015689096400,9.047096435546875,-0.004207544028759003,0.0036603333428502083,-0.025734830647706985
1772018015709064400,9.067064453125,-0.005524270702153444,0.004138576798141003,0.0050948504358530045
1772018015729031700,9.08703173828125,-0.004081286024302244,-0.0033010910265147686,0.03314339742064476
1772018015748999700,9.106999755859375,-0.004222237039357424,-0.009857455268502235,0.019016940146684647
1772018015768966400,9.12696630859375,-0.0040648700669407845,0.005390889011323452,-0.011107955127954483
1772018015788934400,9.146934326171875,-0.0038197278045117855,0.005358424969017506,-0.029839690774679184
1772018015808901600,9.166901611328125,-0.0039470866322517395,-0.0011248341761529446,-0.015407891012728214
1772018015828869600,9.18686962890625,0.0033186092041432858,0.009871949441730976,-0.0011675659334287047
1772018015848836600,9.206836669921875,0.0024742200039327145,0.01155505608767271,-0.012693469412624836
1772018015868804400,9.226804443359375,0.006195005960762501,0.01124067883938551,-0.01722257025539875
1772018015888771600,9.246771484375,0.0013549525756388903,0.006687927059829235,-0.011625939048826694
1772018015908739600,9.266739501953126,0.0007125008851289749,-0.006594850681722164,-0.006264453753829002
1772018015928707600,9.28670751953125,0.0028984853997826576,-0.006616411730647087,-0.010967474430799484
1772018015948674600,9.306674560546876,0.007543714717030525,0.013040046207606792,-0.014840767718851566
1772018015968642600,9.326642578125,0.0021568303927779198,0.03250354528427124,-0.015161018818616867
1772018015988609500,9.346609619140626,-0.0003321119584143162,0.004298160783946514,-0.01447871420532465
1772018016008577500,9.36657763671875,0.005667026154696941,0.0171995647251606,-0.009255465120077133
1772018016028544500,9.38654443359375,0.004729917738586664,0.021904099732637405,-0.012185871601104736
1772018016048512500,9.406512451171874,0.004515846259891987,0.015128644183278084,-0.02111518196761608
1772018016068479500,9.4264794921875,-0.0010110465809702873,0.005117570981383324,-0.002856684383004904
1772018016088447500,9.446447509765624,0.008388432674109936,-0.012796059250831604,0.011042093858122826
1772018016108414700,9.466414794921874,0.011471840552985668,-0.015971612185239792,0.026735035702586174
1772018016128382500,9.486382568359375,0.0020406695548444986,0.011104623787105083,0.003988971002399921
1772018016148349400,9.506349365234374,-0.009042476303875446,0.010719290934503078,-0.022740770131349564
1772018016168317400,9.5263173828125,-0.00835377536714077,0.009589781053364277,-0.023440662771463394
1772018016188284700,9.54628466796875,-0.0028804908506572247,0.0026312880218029022,0.004014275968074799
1772018016208252400,9.56625244140625,-0.0013658036477863789,0.00031980592757463455,0.002967647509649396
1772018016228219400,9.586219482421875,-0.005452086683362722,-0.005479789339005947,-0.02623923495411873
1772018016248187600,9.606187744140625,-0.019944220781326294,0.012556311674416065,-0.03499652072787285
1772018016268155600,9.62615576171875,-0.0214968454092741,-0.013939226046204567,-0.01905948668718338
1772018016288122600,9.64612255859375,-0.013279395177960396,-0.019660495221614838,0.0017885363195091486
1772018016308090400,9.66609033203125,-0.010265300050377846,-0.017035920172929764,-0.0031484351493418217
1772018016328057600,9.6860576171875,-0.006503017619252205,-0.050003472715616226,-0.005744350142776966
1772018016348026600,9.706026611328125,-0.008961878716945648,-0.03352997452020645,0.02090390771627426
1772018016367993600,9.72599365234375,-0.019020963460206985,-0.004099177196621895,0.03822869807481766
1772018016387961600,9.745961669921876,-0.02044563740491867,0.008908648043870926,0.01156818587332964
1772018016407928600,9.765928466796876,-0.02189984731376171,-0.0063630323857069016,-0.023031476885080338
1772018016427896600,9.785896484375,-0.018780719488859177,-0.019697489216923714,-0.016788359731435776
1772018016447863600,9.805863525390626,-0.012398827821016312,-0.027385201305150986,0.004670335445553064
1772018016467831600,9.82583154296875,-0.018546760082244873,-0.008291215635836124,0.014000186696648598
1772018016487799800,9.8457998046875,-0.023169020190835,0.00029812753200531006,-0.004019963555037975
1772018016507767600,9.865767578125,-0.015762098133563995,0.003648867830634117,-0.03276079148054123
1772018016527734800,9.88573486328125,-0.017740294337272644,-0.019407982006669044,-0.04793894290924072
1772018016547702800,9.905702880859375,-0.02204587310552597,-0.017832349985837936,-0.009616591967642307
1772018016567669800,9.925669677734374,-0.01832166314125061,-0.007762244902551174,0.02566283755004406
1772018016587638000,9.945637939453125,-0.013553864322602749,-0.010370612144470215,0.02129005640745163
1772018016607604700,9.965604736328125,-0.014668570831418037,-0.0010484317317605019,-0.001983834896236658
1772018016627572700,9.98557275390625,-0.009815596044063568,0.005280345678329468,-0.008176356554031372
1772018016647540000,10.0055400390625,-0.012161698192358017,-0.002235141582787037,0.007916987873613834
1772018016667508000,10.025508056640625,-0.009307592175900936,-0.007852289825677872,0.026241544634103775
1772018016687474700,10.045474609375,-0.0051341881044209,-0.01081264577805996,0.015508340671658516
1772018016707442700,10.065442626953125,-0.0006886427290737629,-0.005840495228767395,-0.0007542573730461299
1772018016727410700,10.08541064453125,-0.0065409038215875626,-0.004454066511243582,0.008538711816072464
1772018016747378000,10.1053779296875,-0.0006175707094371319,-0.003931527957320213,0.016050420701503754
1772018016767346000,10.125345947265625,-0.0006918502040207386,-0.005433470942080021,-0.0000505177304148674
1772018016787312600,10.145312744140625,0.0024304399266839027,-0.008562418632209301,-0.016143733635544777
1772018016807281000,10.165281005859375,0.0005640287417918444,0.008278103545308113,-0.0025767956394702196
1772018016827247900,10.185247802734375,0.00198398157954216,-0.006917788181453943,0.014772098511457443
1772018016847215900,10.2052158203125,-0.00003149872645735741,-0.0054535819217562675,0.013352634385228157
1772018016867182800,10.225182861328125,0.0035168854519724846,-0.002918960526585579,0.006173949223011732
1772018016887150800,10.24515087890625,-0.0012535220012068748,0.008833442814648151,-0.0016855659196153283
1772018016907117800,10.265117919921876,0.0009159930050373077,0.01515254843980074,-0.0007898062467575073
1772018016927085800,10.2850859375,0.0009539262391626835,0.0022299736738204956,-0.01692204549908638
1772018016947052800,10.305052734375,-0.0007882565259933472,-0.0013013100251555443,-0.015237193554639816
1772018016967020800,10.325020751953126,0.0006769127212464809,-0.0026877163909375668,0.0011722678318619728
1772018016986987800,10.34498779296875,-0.0019433144479990005,0.0026522576808929443,0.0071488032117486
1772018017006955800,10.364955810546874,-0.00017763860523700714,0.0081064123660326,0.0007180683314800262
1772018017026922800,10.3849228515625,0.007540224120020866,0.013032807968556881,-0.013626782223582268
1772018017046890800,10.404890869140624,-0.0019433372654020786,0.0030892007052898407,-0.018132852390408516
1772018017066857700,10.424857666015624,-0.0028949743136763573,-0.02221328392624855,-0.01326726097613573
1772018017086825700,10.44482568359375,-0.002309833187609911,-0.017746999859809875,0.00933046080172062
1772018017106792700,10.464792724609374,0.0005679563619196415,-0.0023284447379410267,0.02058790810406208
1772018017126760700,10.4847607421875,-0.0021359403617680073,0.009484712965786457,0.00702269934117794
1772018017146727700,10.504727783203125,0.0018665243405848742,0.006767489016056061,-0.009882515296339989
1772018017166696000,10.524696044921875,-0.007052600849419832,-0.0020334809087216854,-0.020261116325855255
1772018017186663000,10.544662841796875,-0.008013921789824963,-0.0026410664431750774,-0.00815504789352417
1772018017206630700,10.564630615234375,-0.007367819081991911,0.017279013991355896,0.010666298680007458
1772018017226598000,10.584597900390625,-0.0020288918167352676,0.024726875126361847,0.00016918662004172802
1772018017246566000,10.60456591796875,-0.005501472391188145,0.009125924669206142,-0.06513284891843796
1772018017266532900,10.624532958984375,-0.0038000824861228466,0.0168821532279253,-0.12132568657398224
1772018017286500600,10.64450048828125,-0.008356007747352123,0.07747486233711243,-0.05697372555732727
1772018017306467800,10.6644677734375,0.008719914592802525,0.04692573472857475,0.08216764777898788
1772018017326435800,10.684435791015625,0.029459403827786446,-0.029031749814748764,0.07367895543575287
1772018017346402800,10.70440283203125,0.0098489411175251,-0.05298874154686928,-0.10299581289291382
1772018017366370600,10.72437060546875,-0.01079815998673439,-0.003290019929409027,-0.18514861166477203
1772018017386337800,10.744337890625,-0.022686034440994263,0.01769295334815979,-0.07376363128423691
