time,seconds_elapsed,z,y,x
1772018092701080800,0.076080810546875,-0.0457809716463089,-0.06729298830032349,0.08406677842140198
1772018092721047800,0.0960478515625,-0.052255887538194656,-0.03110629692673683,-0.09412560611963272
1772018092741014800,0.116014892578125,-0.05379960685968399,0.00473364070057869,-0.16227386891841888
1772018092760981800,0.135981689453125,-0.04375167191028595,-0.011234443634748459,-0.08449320495128632
1772018092780947700,0.15594775390625,-0.01364968903362751,-0.0149688133969903,0.041600149124860764
1772018092800914700,0.175914794921875,0.026927949860692024,-0.03674238547682762,0.11517781019210815
1772018092820882000,0.1958818359375,0.017230160534381866,-0.041664715856313705,0.08488890528678894
1772018092840848600,0.2158486328125,-0.009789640083909035,-0.022634416818618774,0.0025522036012262106
1772018092860814800,0.23581494140625,-0.0331120565533638,0.00289976317435503,-0.058590903878211975
1772018092880781800,0.25578173828125,-0.04705633223056793,-0.00690189003944397,-0.04211646318435669
1772018092900748800,0.275748779296875,-0.041411735117435455,-0.0317244827747345,0.01115953829139471
1772018092920715800,0.2957158203125,-0.017278319224715233,-0.035437021404504776,0.03433159366250038
1772018092940681700,0.315681640625,-0.002898655366152525,-0.016957495361566544,0.041412241756916046
1772018092960648700,0.335648681640625,-0.0047711520455777645,-0.017645850777626038,0.03705211728811264
1772018092980616000,0.355615966796875,0.003498159581795335,-0.03247695416212082,0.020492328330874443
1772018093000582700,0.375582763671875,0.00536154443398118,-0.030394289642572403,-0.0013389295199885964
1772018093020548900,0.395548828125,0.0011169984936714172,-0.023328658193349838,0.003906432539224625
1772018093040515800,0.415515869140625,0.004265430383384228,-0.009622938930988312,0.0143931545317173
1772018093060482800,0.43548291015625,0.006539489608258009,-0.011743978597223759,0.020688336342573166
1772018093080449800,0.45544970703125,0.008931807242333889,-0.0017280960455536842,0.019355159252882004
1772018093100415700,0.475415771484375,0.017540166154503822,0.004940967075526714,0.016774829477071762
1772018093120382700,0.4953828125,-0.006396254990249872,-0.005236082710325718,0.03551334887742996
1772018093140350000,0.515349853515625,-0.02122317999601364,-0.005188439041376114,0.029059985652565956
1772018093160316700,0.535316650390625,-0.004823658149689436,0.013666235841810703,0.011808554641902447
1772018093180283000,0.555282958984375,-0.0010502883233129978,-0.012495899572968483,-0.013068955391645432
1772018093200249900,0.575249755859375,-0.004750750493258238,-0.035745296627283096,-0.015436504036188126
1772018093220216800,0.595216796875,-0.0002937139943242073,-0.020705286413431168,-0.009902717545628548
1772018093240183800,0.615183837890625,0.012239640578627586,-0.009203190915286541,-0.002256513573229313
1772018093260149800,0.635149658203125,0.002577209612354636,-0.002471046056598425,0.0205442663282156
1772018093280116700,0.65511669921875,0.0012115123681724072,0.0003873975947499275,0.024098258465528488
1772018093300084000,0.675083984375,0.02047187276184559,0.002689681015908718,0.0019442017655819654
1772018093320050700,0.69505078125,0.020165035501122475,-0.0005599362775683403,-0.020186660811305046
1772018093340017000,0.715016845703125,0.00017394451424479485,-0.003054472152143717,-0.0007892485591582954
1772018093359983600,0.734983642578125,-0.010744418948888779,-0.0031377910636365414,0.020158233121037483
1772018093379950800,0.754950927734375,-0.008700254373252392,-0.008126027882099152,0.009516121819615364
1772018093399917800,0.774917724609375,-0.0068828994408249855,-0.01803368702530861,-0.027355078607797623
1772018093419883800,0.7948837890625,0.0026224548928439617,-0.008767485618591309,-0.043790243566036224
1772018093439850800,0.814850830078125,0.003913892898708582,0.02552439644932747,-0.0026151235215365887
1772018093459818000,0.83481787109375,0.009563514962792397,0.004086299799382687,0.04516132175922394
1772018093479784700,0.85478466796875,0.00845644623041153,-0.020911546424031258,0.05086567997932434
1772018093499751000,0.8747509765625,0.0060905227437615395,-0.00858890451490879,-0.0013067168183624744
1772018093519717600,0.894717529296875,-0.0006537227891385555,0.014843858778476715,-0.050556812435388565
1772018093539684900,0.914684814453125,-0.029191378504037857,0.014697903767228127,-0.024339718744158745
1772018093559652400,0.93465234375,-0.018368544057011604,0.002057041972875595,0.0224956963211298
1772018093579618300,0.954618408203125,0.025113936513662338,-0.002997203264385462,0.01890069618821144
1772018093599585300,0.974585205078125,0.021671852096915245,-0.006203440483659506,0.04290389269590378
1772018093619552300,0.99455224609375,0.00004372419789433479,0.031099416315555573,0.0615064837038517
1772018093639519200,1.014519287109375,0.012743869796395302,0.02102045714855194,0.028400583192706108
1772018093659485400,1.0344853515625,0.029306262731552124,0.010583575814962387,-0.011440561152994633
1772018093679452200,1.0544521484375,0.014197122305631638,0.002586212009191513,-0.014176033437252045
1772018093699419100,1.074419189453125,-0.005296152550727129,-0.01404150016605854,0.002385633299127221
1772018093719386400,1.094386474609375,-0.00003398442640900612,-0.022847579792141914,0.009239539504051208
1772018093739352300,1.114352294921875,0.022777048870921135,-0.023413684219121933,-0.01568165421485901
1772018093759319300,1.1343193359375,0.024000979959964752,-0.017884550616145134,-0.024726007133722305
1772018093779286300,1.154286376953125,0.01611669920384884,-0.00787035096436739,-0.013407439924776554
1772018093799253200,1.174253173828125,0.015310931950807571,0.00035408884286880493,0.00947242509573698
1772018093819219500,1.194219482421875,0.0047937799245119095,-0.0017032450996339321,0.031797584146261215
1772018093839186200,1.214186279296875,0.018305832520127296,-0.004140231758356094,-0.0031010089442133904
1772018093859153200,1.234153076171875,0.01527517568320036,0.004098536446690559,-0.040444787591695786
1772018093879120400,1.254120361328125,-0.004764297511428595,0.005865907296538353,-0.03610463812947273
1772018093899086300,1.27408642578125,-0.0167906004935503,-0.0030144029296934605,0.002717592753469944
1772018093919053300,1.29405322265625,-0.01338426023721695,0.02188955247402191,0.03787998855113983
1772018093939020300,1.314020263671875,0.011366966180503368,0.00912337563931942,0.014030307531356812
1772018093958987300,1.3339873046875,0.019986256957054138,-0.00943878386169672,-0.03273346275091171
1772018093978953500,1.353953369140625,0.0033557643182575703,-0.029187627136707306,-0.03586416691541672
1772018093998920200,1.373920166015625,-0.01290237158536911,-0.015099197626113892,0.014706343412399292
1772018094018887200,1.39388720703125,0.010638325475156307,0.009807541966438293,0.016594132408499718
1772018094038854400,1.4138544921875,0.024725129827857018,-0.012553859502077103,-0.018759332597255707
1772018094058820400,1.4338203125,0.00861753337085247,-0.021405674517154694,-0.039744775742292404
1772018094078787300,1.453787353515625,-0.0002912241034209728,0.013271021656692028,-0.021156318485736847
1772018094098754300,1.47375439453125,0.013312483206391335,0.03456389158964157,0.01950136013329029
1772018094118721300,1.49372119140625,0.038267869502305984,0.011304181069135666,0.015343636274337769
1772018094138687500,1.5136875,0.027142999693751335,0.005096409469842911,0.00347433565184474
1772018094158654200,1.533654296875,0.011746501550078392,0.018645886331796646,0.018699487671256065
1772018094178621200,1.55362109375,0.008328046649694443,0.007870987989008427,0.021190214902162552
1772018094198588400,1.57358837890625,0.005670527927577496,-0.013976311311125755,-0.008676214143633842
1772018094218554400,1.593554443359375,-0.0035123671405017376,-0.009633703157305717,-0.04213229939341545
1772018094238521300,1.613521240234375,-0.01617383398115635,0.002783551812171936,-0.03467225283384323
1772018094258488000,1.633488037109375,-0.014982357621192932,0.0030405353754758835,-0.0030814337078481913
1772018094278455300,1.653455322265625,0.006491328589618206,-0.0009536216966807842,0.012726010754704475
1772018094298421500,1.67342138671875,0.01978631131350994,0.003402833826839924,0.0186958946287632
1772018094318388200,1.69338818359375,0.023342669010162354,-0.001011816319078207,0.007157753687351942
1772018094338355200,1.713355224609375,0.009758099913597107,-0.008158881217241287,-0.007097739726305008
1772018094358322400,1.733322509765625,0.001091396203264594,-0.012364266440272331,-0.017606178298592567
1772018094378288400,1.753288330078125,0.0020248915534466505,-0.016553031280636787,-0.007160736247897148
1772018094398255400,1.77325537109375,0.0066103083081543446,-0.006193697452545166,0.012503514066338539
1772018094418222000,1.79322216796875,0.022789299488067627,0.0021041929721832275,0.01998925767838955
1772018094438189300,1.813189208984375,0.034304238855838776,-0.007154664024710655,0.010415332391858101
1772018094458155500,1.833155517578125,0.025625335052609444,-0.020086217671632767,0.01272907480597496
1772018094478122200,1.853122314453125,0.008510718122124672,-0.017773665487766266,0.028523098677396774
1772018094498089200,1.873089111328125,0.000375265721231699,-0.010140708647668362,0.022087305784225464
1772018094518056400,1.893056396484375,-0.016449276357889175,-0.005998705513775349,-0.004264534916728735
1772018094538022400,1.9130224609375,-0.022815987467765808,-0.02344581112265587,-0.03656430542469025
1772018094557989600,1.93298974609375,-0.02580946683883667,-0.023851726204156876,-0.006701996549963951
1772018094577956600,1.95295654296875,-0.014047356322407722,-0.012134531512856483,0.03354089707136154
1772018094597923600,1.972923583984375,0.011701731942594051,-0.004829541780054569,0.03936881944537163
1772018094617889500,1.9928896484375,0.014227144420146942,0.0149933947250247,0.022452298551797867
1772018094637856800,2.012856689453125,-0.008969379588961601,0.014501417987048626,0.016040712594985962
1772018094657823500,2.032823486328125,-0.0104041313752532,0.02312733232975006,0.028524963185191154
1772018094677790700,2.052790771484375,0.006601455621421337,0.028069432824850082,0.037873197346925735
1772018094697756400,2.07275634765625,-0.0020316140726208687,-0.020945368334650993,0.016939403489232063
1772018094717723600,2.0927236328125,-0.02314894087612629,-0.030352309346199036,0.0007673667278140783
1772018094737690600,2.112690673828125,-0.024826141074299812,0.010694049298763275,-0.017951203510165215
1772018094757657600,2.13265771484375,-0.001282761339098215,0.017258280888199806,-0.01910834200680256
1772018094777623600,2.15262353515625,-0.009722542017698288,0.011092823930084705,0.004655837081372738
1772018094797590800,2.1725908203125,-0.00226098345592618,0.006844763644039631,0.026253819465637207
1772018094817557500,2.1925576171875,0.01002135593444109,0.012313897721469402,0.029064368456602097
1772018094837524700,2.212524658203125,0.019620561972260475,-0.00012653227895498276,-0.0018003096338361502
1772018094857490400,2.232490478515625,-0.0018813912756741047,-0.002677667886018753,-0.01140023022890091
1772018094877457700,2.252457763671875,-0.01823454536497593,-0.000921144150197506,-0.026892367750406265
1772018094897424600,2.272424560546875,-0.024894477799534798,0.002360486425459385,-0.027936700731515884
1772018094917391600,2.2923916015625,-0.02526428923010826,0.009782860055565834,-0.020230859518051147
1772018094937357600,2.312357666015625,-0.0254986472427845,0.00012037903070449829,-0.003023376688361168
1772018094957324800,2.33232470703125,-0.014517052099108696,0.014959453605115414,0.024325281381607056
1772018094977291500,2.35229150390625,-0.007631780579686165,0.014290163293480873,0.024628760293126106
1772018094997258800,2.3722587890625,0.0019614663906395435,-0.0018012733198702335,0.001842352794483304
1772018095017224400,2.392224365234375,-0.0035475282929837704,0.005780491977930069,-0.011432843282818794
1772018095037191700,2.412191650390625,-0.004876136314123869,0.031230483204126358,-0.005205313675105572
1772018095057158700,2.43215869140625,0.0009774130303412676,0.021328449249267578,0.00566532276570797
1772018095077125600,2.452125732421875,0.004186088684946299,-0.0017788507975637913,0.005623495206236839
1772018095097091600,2.472091552734375,0.00415032496675849,-0.008032622747123241,-0.003243353683501482
1772018095117058600,2.49205859375,0.0036789881996810436,0.012324872426688671,-0.010612593963742256
1772018095137025500,2.512025634765625,-0.005578924436122179,0.024737711995840073,0.004506565630435944
1772018095156992800,2.53199267578125,0.007227348629385233,0.005329436622560024,0.011885929852724075
1772018095176958500,2.55195849609375,0.030266858637332916,-0.017864760011434555,0.006097287870943546
1772018095196925700,2.57192578125,0.017976701259613037,-0.040278952568769455,-0.001950928708538413
1772018095216892700,2.591892578125,-0.008837422356009483,-0.04572383314371109,-0.02853778377175331
1772018095236858600,2.611858642578125,-0.014006827026605606,-0.03001771867275238,-0.042362261563539505
1772018095256825600,2.63182568359375,-0.01971323974430561,-0.01208757609128952,-0.014738082885742188
1772018095276792600,2.65179248046875,-0.01897779107093811,0.005778064951300621,0.02445470169186592
1772018095296759600,2.671759521484375,-0.010584773495793343,-0.0010524396784603596,0.02704998478293419
1772018095316725800,2.691725830078125,-0.016832994297146797,-0.0017205793410539627,0.019245844334363937
1772018095336692500,2.7116923828125,-0.018328934907913208,0.001224852167069912,0.0022490243427455425
1772018095356659700,2.73165966796875,-0.013277977705001831,0.005020303651690483,0.005363456904888153
1772018095376626700,2.751626708984375,-0.008515065535902977,-0.004608641844242811,0.008916894905269146
1772018095396592600,2.771592529296875,-0.009580905549228191,-0.0023178178817033768,0.009459121152758598
1772018095416559600,2.7915595703125,-0.014257127419114113,0.005634661763906479,0.017094533890485764
1772018095436526600,2.811526611328125,-0.002950526773929596,0.004397645592689514,0.018767017871141434
1772018095456493600,2.83149365234375,0.00617892574518919,-0.012672693468630314,0.005100850947201252
1772018095476459800,2.851459716796875,0.0022360084112733603,-0.018057402223348618,-0.0025566518306732178
1772018095496426500,2.871426513671875,-0.01625320315361023,-0.02351481281220913,-0.008498571813106537
1772018095516393700,2.891393798828125,-0.019178664311766624,-0.022068170830607414,-0.01944110542535782
1772018095536360700,2.911360595703125,-0.018992293626070023,-0.007175181061029434,-0.007715065032243729
1772018095556325600,2.93132568359375,-0.01732616312801838,-0.004429074004292488,-0.002870784606784582
1772018095576292900,2.95129296875,-0.016933949664235115,-0.007723890244960785,-0.005471349693834782
1772018095596259600,2.971259521484375,-0.018447015434503555,0.01572808437049389,-0.0037190127186477184
1772018095616226600,2.9912265625,-0.006786918733268976,0.026865940541028976,-0.01065055187791586
1772018095636192500,3.011192626953125,-0.009253356605768204,0.033036962151527405,0.005365446209907532
1772018095656159700,3.03115966796875,0.0024605272337794304,0.02393914759159088,0.011471280828118324
1772018095676126700,3.051126708984375,0.022159669548273087,0.01047864742577076,0.0156757440418005
1772018095696093400,3.071093505859375,0.018967144191265106,-0.02657715603709221,-0.0016747611807659268
1772018095716059600,3.0910595703125,0.009996783919632435,-0.029717665165662766,-0.03134623169898987
1772018095736027000,3.11102685546875,0.0016467440873384476,-0.02718622051179409,-0.05117440223693848
1772018095755993600,3.13099365234375,0.007496558129787445,-0.007120417896658182,-0.04346267506480217
1772018095775960600,3.150960693359375,0.00847722589969635,0.0035694781690835953,-0.020815299823880196
1772018095795926500,3.170926513671875,0.011219454929232597,-0.0028276313096284866,0.011427062563598156
1772018095815893800,3.190893798828125,0.01279393769800663,-0.010748657397925854,0.026621324941515923
1772018095835860700,3.21086083984375,0.013145179487764835,-0.008153069764375687,0.014125245623290539
1772018095855827500,3.230827392578125,-0.0009131859987974167,-0.009789534844458103,-0.01800098642706871
1772018095875793700,3.250793701171875,-0.01540149562060833,-0.0010718931443989277,-0.025453325361013412
1772018095895761000,3.270760986328125,-0.022409338504076004,-0.016748324036598206,-0.017822304740548134
1772018095915727600,3.2907275390625,-0.016768041998147964,-0.03219852223992348,-0.012927001342177391
1772018095935694600,3.310694580078125,-0.0232621468603611,0.008032086305320263,-0.0015347993467003107
1772018095955660500,3.33066064453125,-0.013781804591417313,0.01198396272957325,-0.0029597273096442223
1772018095975627800,3.350627685546875,-0.005872425157576799,-0.03378926217556,-0.016628144308924675
1772018095995594800,3.3705947265625,-0.0032607195898890495,-0.05221392959356308,-0.013505844399333
1772018096015561500,3.3905615234375,-0.005559511017054319,-0.004223029129207134,0.014409534633159637
1772018096035527700,3.410527587890625,0.0028273158241063356,0.019976850599050522,0.02067461982369423
1772018096055495000,3.430494873046875,0.01185084879398346,0.005120814777910709,0.002545960247516632
1772018096075461600,3.450461669921875,0.01667121984064579,0.00714342575520277,-0.006679104641079903
1772018096095428600,3.4704287109375,0.014585424214601517,0.01162534300237894,0.005223228596150875
1772018096115394600,3.49039453125,0.00916079618036747,0.014069750905036926,0.021171707659959793
1772018096135361800,3.51036181640625,0.0023514304775744677,-0.01051420159637928,-0.004653242416679859
1772018096155328800,3.530328857421875,0.02025895193219185,0.004237516783177853,-0.030708927661180496
1772018096175295500,3.55029541015625,0.01073814369738102,0.02166053280234337,-0.011583568528294563
1772018096195261700,3.57026171875,-0.003884713165462017,-0.013290598057210445,0.0029484981205314398
1772018096215228700,3.590228759765625,-0.0011562895961105824,-0.03387167677283287,-0.014760992489755154
1772018096235195600,3.610195556640625,0.0026361781638115644,-0.017214322462677956,-0.02969122678041458
1772018096255162600,3.63016259765625,-0.004875969607383013,0.002179776318371296,-0.026587551459670067
1772018096275128600,3.650128662109375,-0.01375100389122963,-0.000021530315279960632,-0.014083602465689182
1772018096295095800,3.670095703125,-0.016360480338335037,-0.00703842518851161,0.001924899173900485
1772018096315062800,3.690062744140625,-0.013214269652962685,-0.006311324425041676,0.004725088365375996
1772018096335029500,3.710029541015625,-0.00820721872150898,0.006368011236190796,0.003995108883827925
1772018096354995700,3.72999560546875,-0.011535133235156536,-0.006151704117655754,-0.006495610810816288
1772018096374962700,3.749962646484375,-0.021948769688606262,-0.01213386282324791,0.009339036419987679
1772018096394929700,3.7699296875,-0.030247805640101433,-0.0060236770659685135,0.01382164005190134
1772018096414896600,3.789896728515625,-0.02506246417760849,0.014165599830448627,0.011078600771725178
1772018096434862600,3.809862548828125,-0.024150533601641655,0.02013271301984787,-0.0019422698533162475
1772018096454829600,3.82982958984375,-0.015380780212581158,0.006776853464543819,0.0003082400653511286
1772018096474796800,3.849796875,-0.013741856440901756,0.0024216165766119957,0.00112316501326859
1772018096494763500,3.869763427734375,-0.009960816241800785,-0.001978163607418537,-0.0017146806931123137
1772018096514729700,3.889729736328125,-0.005798229482024908,-0.006790996063500643,-0.0011829911964014173
1772018096534696700,3.90969677734375,-0.004695876035839319,-0.009679775685071945,0.00032834126614034176
1772018096554664400,3.92966455078125,-0.00725436769425869,-0.012974723242223263,0.006536833941936493
1772018096574631200,3.949631103515625,-0.010804411955177784,0.003992603160440922,0.00994209386408329
1772018096594597400,3.969597412109375,-0.0037093041464686394,0.029329074546694756,0.01295174565166235
1772018096614564000,3.989564208984375,-0.014049170538783073,0.0484326146543026,0.015323137864470482
1772018096634531300,4.00953125,-0.013901561498641968,0.035013698041439056,0.01619477942585945
1772018096654497300,4.029497314453125,0.013563771732151508,0.02563486620783806,0.010467403568327427
1772018096674464300,4.04946435546875,-0.03342912346124649,0.01367563009262085,0.030084796249866486
1772018096694431200,4.06943115234375,-0.04757627844810486,-0.014271538704633713,0.007375473156571388
1772018096714398500,4.0893984375,-0.05964154377579689,0.00720752589404583,-0.022369759157299995
1772018096734364200,4.1093642578125,-0.04134686663746834,-0.00039104465395212173,-0.0478755347430706
1772018096754331400,4.129331298828125,-0.05383308231830597,0.017205888405442238,-0.03220975771546364
1772018096774298000,4.149298095703125,-0.047494009137153625,0.024269454181194305,-0.013601045124232769
1772018096794265300,4.169265380859375,-0.02160990610718727,0.011192022822797298,-0.007784707937389612
1772018096814231300,4.189231201171875,-0.002595973201096058,-0.010731457732617855,-0.013879623264074326
1772018096834198300,4.2091982421875,0.0126732112839818,-0.05557796731591225,-0.03425026684999466
1772018096854165200,4.229165283203125,0.0009907223284244537,-0.10469836741685867,-0.06828732788562775
1772018096874132500,4.249132568359375,-0.02227860502898693,-0.16194379329681396,-0.11302711069583893
1772018096894098200,4.26909814453125,-0.03900697082281113,-0.1566871553659439,-0.13756707310676575
1772018096914065400,4.2890654296875,-0.0601506233215332,-0.07387084513902664,-0.11357985436916351
1772018096934032100,4.3090322265625,-0.06643833220005035,-0.028979703783988953,-0.058529116213321686
1772018096953999400,4.328999267578125,-0.056240055710077286,0.0022808201611042023,0.00034911849070340395
1772018096973965300,4.34896533203125,-0.040703143924474716,0.027946162968873978,0.033553142100572586
1772018096993932300,4.368932373046875,-0.03223167359828949,0.03614974021911621,0.03730527311563492
1772018097013899300,4.388899169921875,-0.038623277097940445,0.05640991032123566,0.03812126815319061
1772018097033866500,4.408866455078125,-0.0296569112688303,0.04912076145410538,0.015217013657093048
1772018097053832200,4.428832275390625,-0.003555720206350088,0.037023138254880905,-0.0158517025411129
1772018097073799400,4.44879931640625,0.00893919263035059,0.016248289495706558,-0.01843162439763546
1772018097093766100,4.46876611328125,0.022158842533826828,0.007842455990612507,-0.004224721342325211
1772018097113733400,4.4887333984375,-0.001476416364312172,-0.021447326987981796,-0.005534735508263111
1772018097133699000,4.508698974609375,-0.018910806626081467,-0.03347354754805565,-0.043461475521326065
1772018097153666300,4.528666259765625,-0.024037860333919525,-0.04685109853744507,-0.0775143951177597
1772018097173633300,4.54863330078125,-0.03931783139705658,-0.07095462083816528,-0.08409930765628815
1772018097193600300,4.568600341796875,-0.04403352737426758,-0.08932867646217346,-0.0791369080543518
1772018097213566200,4.588566162109375,-0.05521642416715622,-0.05772663652896881,-0.06092141568660736
1772018097233533400,4.608533447265625,-0.049363262951374054,-0.01612083613872528,-0.03359779343008995
1772018097253500200,4.628500244140625,-0.04724916070699692,0.00106912013143301,0.002599612344056368
1772018097273466400,4.64846630859375,-0.05030237138271332,0.0019043730571866035,0.02507472224533558
1772018097293433000,4.66843310546875,-0.05733519792556763,-0.003557301126420498,0.018805764615535736
1772018097313400300,4.688400390625,-0.05739271268248558,0.023255854845046997,0.00691115390509367
1772018097333367300,4.7083671875,-0.05398491024971008,0.010174949653446674,0.009253001771867275
1772018097353333200,4.728333251953125,-0.04923278093338013,-0.015888705849647522,0.018419604748487473
1772018097373300200,4.74830029296875,-0.040862128138542175,-0.005397763568907976,0.019721344113349915
1772018097393267500,4.768267333984375,-0.0189248938113451,0.02024846524000168,0.022524192929267883
1772018097413234200,4.788234130859375,-0.009504617191851139,0.010281166061758995,0.03617997094988823
1772018097433200400,4.808200439453125,-0.00533507764339447,-0.026403386145830154,0.04664977267384529
1772018097453167000,4.8281669921875,-0.011742369271814823,-0.03141500800848007,0.034065138548612595
1772018097473134300,4.84813427734375,-0.016534563153982162,-0.02175586298108101,0.00028269016183912754
1772018097493101300,4.868101318359375,-0.02745162323117256,-0.031023558229207993,-0.016473526135087013
1772018097513067300,4.8880673828125,-0.026865661144256592,-0.020053163170814514,-0.003879847005009651
1772018097533034200,4.9080341796875,-0.025104206055402756,-0.006653710268437862,0.026956621557474136
1772018097553001500,4.92800146484375,-0.019159633666276932,0.011160988360643387,0.04687802121043205
1772018097572967700,4.9479677734375,-0.009954765439033508,0.026862062513828278,0.04869204759597778
1772018097592933600,4.96793359375,-0.027276940643787384,0.03449925035238266,0.042881812900304794
1772018097612900600,4.987900634765625,-0.029065461829304695,0.01489956583827734,0.027600053697824478
1772018097632867600,5.00786767578125,-0.0021661529317498207,0.0055113304406404495,0.009318908676505089
1772018097652834600,5.02783447265625,0.0043723671697080135,-0.006598812527954578,0.018896980211138725
1772018097672800800,5.04780078125,-0.006057636346668005,-0.01247667521238327,0.03011341579258442
1772018097692767700,5.067767822265625,0.005520642269402742,-0.013139929622411728,0.011692741885781288
1772018097712734700,5.087734619140625,0.01738186553120613,-0.009345884434878826,-0.01932736299932003
1772018097732700700,5.10770068359375,0.02196437492966652,0.007059101946651936,-0.018534943461418152
1772018097752667600,5.127667724609375,0.023669330403208733,0.01771414279937744,0.006451900117099285
1772018097772634600,5.147634521484375,0.013130121864378452,-0.0024527390487492085,0.031104519963264465
1772018097792601600,5.1676015625,0.020515888929367065,0.00014731474220752716,0.013866805471479893
1772018097812567800,5.18756787109375,0.029491791501641273,0.01563669741153717,-0.01831243373453617
1772018097832534500,5.207534423828125,0.022977367043495178,0.002200220711529255,-0.018506167456507683
1772018097852501500,5.22750146484375,0.015078697353601456,-0.00038970354944467545,0.002104568062350154
1772018097872468700,5.24746875,0.022872749716043472,0.0026463186368346214,-0.0020965756848454475
1772018097892434700,5.2674345703125,0.025333259254693985,0.005931957624852657,-0.01646646298468113
1772018097912401700,5.287401611328125,0.029815208166837692,0.014598121866583824,-0.012354826554656029
1772018097932368600,5.30736865234375,0.043080274015665054,0.0013134926557540894,0.008217981085181236
1772018097952332800,5.327332763671875,0.04249042272567749,-0.012399550527334213,0.021453484892845154
1772018097972298500,5.347298583984375,0.04319541156291962,-0.016116054728627205,0.009672053158283234
1772018097992265700,5.367265625,0.04400315880775452,-0.015612803399562836,-0.017411628738045692
1772018098012232700,5.387232666015625,0.03871966153383255,-0.0032356991432607174,-0.01981419324874878
1772018098032199700,5.40719970703125,0.03665216639637947,0.021050874143838882,0.024938244372606277
1772018098052165600,5.42716552734375,0.03256580978631973,0.05746028199791908,0.07489781081676483
1772018098072132600,5.447132568359375,0.018690284341573715,0.07064633816480637,0.08896568417549133
1772018098092099600,5.467099609375,0.007342842873185873,0.05377468839287758,0.051816049963235855
1772018098112066800,5.48706689453125,0.017732329666614532,0.045116908848285675,0.023529689759016037
1772018098132032500,5.507032470703125,0.014795137569308281,0.023794492706656456,0.02658473327755928
1772018098151999700,5.526999755859375,0.006837300956249237,-0.01679982617497444,0.017728131264448166
1772018098171966500,5.546966552734375,0.008309570141136646,-0.039570972323417664,-0.012240963988006115
1772018098191933700,5.56693359375,0.008712586015462875,-0.008304264396429062,-0.013572690077126026
1772018098211899600,5.586899658203125,0.006312421523034573,0.020833760499954224,-0.002962237223982811
1772018098231866600,5.60686669921875,0.013813834637403488,0.013265100307762623,0.0031707421876490116
1772018098251833600,5.62683349609375,0.025452639907598495,0.0037057679146528244,-0.0020923283882439137
1772018098271799600,5.646799560546875,0.03503869101405144,-0.00793490931391716,-0.00828311312943697
1772018098291766500,5.6667666015625,0.039689309895038605,-0.012902622111141682,-0.0019210779573768377
1772018098311733800,5.686733642578125,0.0410030260682106,-0.018568240106105804,0.01780962012708187
1772018098331702800,5.706702880859375,0.029760245233774185,-0.02176668681204319,0.023039400577545166
1772018098351669800,5.726669677734375,0.015431085601449013,-0.027836039662361145,0.008619317784905434
1772018098371636700,5.74663671875,0.0024633477441966534,-0.022748254239559174,-0.003988751210272312
1772018098391603700,5.766603759765625,-0.011077694594860077,0.016670558601617813,0.00568636879324913
1772018098411569700,5.786569580078125,0.00009066332131624222,0.023473627865314484,0.020669201388955116
1772018098431536600,5.80653662109375,0.013770375400781631,0.022495679557323456,0.04853410646319389
1772018098451503900,5.82650390625,-0.003975821193307638,0.040299464017152786,0.08533845096826553
1772018098471470600,5.846470703125,-0.009256943129003048,0.01704213209450245,0.06953872740268707
1772018098491436800,5.866436767578125,-0.015353746712207794,-0.011758014559745789,0.02151767536997795
1772018098511403500,5.886403564453125,-0.011584887281060219,-0.011407827958464622,-0.012829105369746685
1772018098531370800,5.906370849609375,-0.0058842794969677925,-0.01566564105451107,-0.0019105621613562107
1772018098551336700,5.926336669921875,-0.0007998165674507618,-0.027619261294603348,0.01443113386631012
1772018098571304400,5.946304443359375,-0.004878454841673374,-0.003952461760491133,0.04172706976532936
1772018098591271400,5.966271484375,0.013470214791595936,-0.0026743998751044273,0.03294596076011658
1772018098611238100,5.986238037109375,0.026281557977199554,-0.02052222192287445,0.01252405159175396
1772018098631204400,6.006204345703125,0.005321222823113203,-0.04618636518716812,-0.01509560365229845
1772018098651171300,6.02617138671875,-0.008416160941123962,-0.03023296222090721,-0.04106888175010681
1772018098671138300,6.04613818359375,-0.019562799483537674,0.01396992988884449,-0.006232473999261856
1772018098691105300,6.066105224609375,-0.028827227652072906,0.03373374044895172,0.0579310804605484
1772018098711071200,6.0860712890625,-0.02733949013054371,0.045023366808891296,0.08769868314266205
1772018098731038200,6.1060380859375,-0.028161076828837395,0.025649670511484146,0.08679533749818802
1772018098751005400,6.12600537109375,-0.052687738090753555,0.025901511311531067,0.08834423124790192
1772018098770972200,6.14597216796875,-0.059402648359537125,0.015292711555957794,0.0675196498632431
1772018098790938400,6.1659384765625,-0.05491971597075462,0.017865251749753952,0.029231376945972443
1772018098810905300,6.1859052734375,-0.05652835592627525,0.016557063907384872,0.02117852307856083
1772018098830872300,6.205872314453125,-0.06238192692399025,0.01821393333375454,0.04000040516257286
1772018098850838300,6.22583837890625,-0.04690500721335411,0.00489864032715559,0.03507622703909874
1772018098870805200,6.24580517578125,-0.025641249492764473,-0.003127499483525753,0.00564989261329174
1772018098890772200,6.265772216796875,0.002631104551255703,-0.0062736812978982925,-0.028366392478346825
1772018098910739200,6.2857392578125,0.018061194568872452,-0.013550236821174622,-0.04145609587430954
1772018098930705400,6.305705322265625,0.015964366495609283,-0.009909001179039478,-0.011566396802663803
1772018098950672400,6.32567236328125,0.024960415437817574,-0.0029435595497488976,-0.005486782174557447
1772018098970639000,6.34563916015625,0.0360838919878006,-0.017744706943631172,-0.022974425926804543
1772018098990606300,6.3656064453125,0.027133237570524216,-0.010534835048019886,-0.0248440932482481
1772018099010572300,6.385572265625,0.015923799946904182,0.0024099359288811684,-0.009220404550433159
1772018099030539300,6.405539306640625,0.005345117300748825,-0.00023692380636930466,0.002997924340888858
1772018099050506200,6.42550634765625,-0.005084339529275894,-0.007444406859576702,0.008591093122959137
1772018099070472200,6.44547216796875,-0.017765793949365616,0.009475091472268105,0.006854980252683163
1772018099090439400,6.465439453125,-0.016714852303266525,0.017301172018051147,0.006295707076787949
1772018099110406400,6.485406494140625,-0.005220427177846432,0.026572149246931076,-0.009576193057000637
1772018099130373000,6.505373046875,-0.014846917241811752,0.016549713909626007,-0.007681493181735277
1772018099150339300,6.52533935546875,-0.021443761885166168,0.0009541893377900124,-0.013162557035684586
1772018099170306300,6.545306396484375,-0.004144191276282072,-0.013429395854473114,-0.026602722704410553
1772018099190273300,6.565273193359375,0.004496656823903322,-0.022629305720329285,-0.028889305889606476
1772018099210239500,6.585239501953125,0.010144658386707306,-0.02355760708451271,-0.026999520137906075
1772018099230206200,6.605206298828125,0.006646360270678997,-0.011814473196864128,-0.03621619567275047
1772018099250173400,6.62517333984375,0.01940988563001156,-0.0029470971785485744,-0.04831627383828163
1772018099270140400,6.645140380859375,0.020095353946089745,0.0008650273084640503,-0.02699154056608677
1772018099290106400,6.6651064453125,0.025752462446689606,-0.008998779579997063,-0.0011723315110430121
1772018099310073300,6.6850732421875,0.02074834518134594,-0.013295896351337433,-0.0063682859763503075
1772018099330040300,6.705040283203125,0.0037187912967056036,-0.00822371430695057,-0.029634732753038406
1772018099350007300,6.72500732421875,-0.013692740350961685,0.015325619839131832,-0.04592354968190193
1772018099369973200,6.74497314453125,-0.02141125127673149,0.021619800478219986,-0.02111462689936161
1772018099389940200,6.764940185546875,-0.01102363970130682,0.021989507600665092,0.0137241892516613
1772018099409907500,6.784907470703125,-0.0012754127383232117,0.008808277547359467,0.014452697709202766
1772018099429873200,6.804873046875,-0.0012504304759204388,0.00028942059725522995,-0.01857089065015316
1772018099449840400,6.82484033203125,-0.010624794289469719,-0.0050737569108605385,-0.04379701241850853
1772018099469807400,6.844807373046875,-0.019485294818878174,0.006257863715291023,-0.043209802359342575
1772018099489774300,6.8647744140625,-0.015414400957524776,-0.00004060845822095871,-0.02896827831864357
1772018099509740300,6.884740234375,-0.0007500671781599522,0.003131793811917305,-0.01235000416636467
1772018099529707300,6.904707275390625,-0.00016276584938168526,-0.014096250757575035,-0.007452995982021093
1772018099549674200,6.92467431640625,-0.006951962132006884,0.0005045300349593163,-0.00919656828045845
1772018099569639700,6.9446396484375,-0.002670879941433668,0.029925741255283356,-0.012903030961751938
1772018099589606700,6.964606689453125,-0.004862179514020681,0.034350112080574036,-0.014013960026204586
1772018099609574000,6.984573974609375,-0.004954095929861069,0.029367763549089432,-0.010427874512970448
1772018099629540600,7.00454052734375,-0.00042377784848213196,0.04823475703597069,0.009071522392332554
1772018099649506800,7.0245068359375,-0.013241106644272804,0.03774746507406235,0.02243540808558464
1772018099669473800,7.044473876953125,-0.02142096869647503,-0.004617461934685707,-0.0013217253144830465
1772018099689440800,7.064440673828125,-0.018344255164265633,0.006192469969391823,-0.020138150081038475
1772018099709407000,7.084406982421875,-0.008110253140330315,0.045466288924217224,-0.017059670761227608
1772018099729373700,7.104373779296875,0.013541032560169697,0.048420995473861694,-0.00406944565474987
1772018099749340700,7.124340576171875,0.0193264689296484,0.0031029563397169113,0.009794706478714943
1772018099769308000,7.144307861328125,0.02558247745037079,0.009907590225338936,0.030933687463402748
1772018099789273900,7.16427392578125,0.015739448368549347,0.03389264643192291,0.04283854365348816
1772018099809240800,7.18424072265625,0.004726464860141277,0.02924773097038269,0.030326751992106438
1772018099829207800,7.204207763671875,-0.01897384226322174,-0.013605830259621143,0.014138864353299141
1772018099849174800,7.2241748046875,-0.022215403616428375,-0.012166820466518402,0.01668311096727848
1772018099869140700,7.244140625,-0.01680218055844307,0.009412101469933987,0.01625499315559864
1772018099889107700,7.264107666015625,-0.01468002051115036,0.0068141380324959755,0.014067623764276505
1772018099909074700,7.28407470703125,-0.0074162473902106285,-0.00826308224350214,0.01391555741429329
1772018099929041000,7.304041015625,0.002016935031861067,-0.009015691466629505,0.007308255415409803
1772018099949008000,7.3240078125,0.014077585190534592,-0.0045540123246610165,0.012141227722167969
1772018099968974800,7.343974853515625,0.017215121537446976,-0.0026519536040723324,0.02225630171597004
1772018099988941800,7.36394189453125,0.017836857587099075,-0.010563983581960201,0.02498246543109417
1772018100008907800,7.38390771484375,0.02113979309797287,-0.006808806210756302,0.01309423428028822
1772018100028874800,7.403874755859375,0.019353268668055534,-0.003479529172182083,-0.006292767357081175
1772018100048841700,7.423841796875,0.012631755322217941,-0.00882891844958067,-0.012984631583094597
1772018100068808000,7.443807861328125,0.024394745007157326,0.004657271318137646,0.006986667402088642
1772018100088774700,7.463774658203125,0.03736856207251549,0.03008316457271576,0.029545646160840988
1772018100108742000,7.483741943359375,0.028428370133042336,0.024920199066400528,0.026164090260863304
1772018100128708900,7.503708984375,0.022182753309607506,0.009227979928255081,-0.0002669886453077197
1772018100148674800,7.5236748046875,0.013257908634841442,0.04966956377029419,-0.01579746976494789
1772018100168641800,7.543641845703125,0.013690080493688583,0.03806206211447716,-0.032455265522003174
1772018100188608800,7.56360888671875,0.010925976559519768,0.0033225445076823235,-0.06538298726081848
1772018100208574700,7.58357470703125,0.02347136102616787,0.052150726318359375,-0.04509662836790085
1772018100228542000,7.6035419921875,0.020989013835787773,0.06212843209505081,0.01710602641105652
1772018100248508700,7.6235087890625,0.04504325985908508,0.022397814318537712,0.025431862100958824
1772018100268475600,7.6434755859375,0.05400291085243225,0.004980199038982391,0.008940905332565308
1772018100288441900,7.66344189453125,0.042156320065259933,0.008763821795582771,0.00023517303634434938
1772018100308408800,7.683408935546875,0.030341174453496933,0.02099340222775936,-0.0015382211422547698
1772018100328375800,7.703375732421875,0.019584424793720245,-0.004440577235072851,0.012884790077805519
1772018100348342800,7.7233427734375,0.01771467924118042,-0.015836132690310478,0.018733881413936615
1772018100368308700,7.743308837890625,0.011772612109780312,0.009409559890627861,0.022903993725776672
1772018100388276000,7.76327587890625,0.0016959481872618198,0.03654945641756058,0.021218489855527878
1772018100408242700,7.78324267578125,-0.009678907692432404,0.018964972347021103,0.013230998069047928
1772018100428209000,7.803208984375,-0.009897850453853607,0.004391969181597233,0.009702314622700214
1772018100448175900,7.82317578125,0.0003102477639913559,0.007145228795707226,0.00010305165778845549
1772018100468142800,7.843142822265625,0.009455112740397453,-0.006347126793116331,-0.001963801449164748
1772018100488108800,7.86310888671875,0.008594166487455368,-0.020940784364938736,0.01044931635260582
1772018100508075800,7.88307568359375,0.00030132662504911423,-0.03653919696807861,0.013002093881368637
1772018100528042800,7.903042724609375,0.00015299580991268158,-0.04624863341450691,0.016581781208515167
1772018100548010000,7.923010009765625,0.006266023498028517,0.02298947423696518,0.004779580980539322
1772018100567976200,7.94297607421875,0.023898789659142494,0.07137404382228851,-0.018615886569023132
1772018100587943400,7.962943359375,0.032614417374134064,0.06517478823661804,-0.020376086235046387
1772018100607910100,7.98291015625,0.04713650420308113,0.031749237328767776,-0.005786512047052383
1772018100627876400,8.00287646484375,0.08584445714950562,0.0315641388297081,0.006098513025790453
1772018100647843300,8.02284326171875,0.07781366258859634,-0.004659481346607208,-0.003552110632881522
1772018100667810300,8.042810302734376,0.060017891228199005,0.006816877983510494,-0.008278422057628632
1772018100687777300,8.06277734375,0.054743219166994095,0.02560059167444706,-0.021525515243411064
1772018100707743200,8.0827431640625,0.07469481229782104,0.010348488576710224,-0.023083331063389778
1772018100727710200,8.102710205078125,0.046917252242565155,-0.0210966058075428,-0.01783890277147293
1772018100747677400,8.122677490234375,0.008244152180850506,-0.02599220722913742,-0.007256164215505123
1772018100767644200,8.14264404296875,-0.010511670261621475,-0.0030983365140855312,-0.012330155819654465
1772018100787610400,8.1626103515625,-0.002141309902071953,-0.0021499674767255783,-0.015262569300830364
1772018100807577300,8.182577392578125,0.005045869387686253,0.019622385501861572,-0.004245712887495756
1772018100827544300,8.20254443359375,-0.010358287021517754,0.03280417621135712,0.007004129700362682
1772018100847510300,8.22251025390625,-0.011101316660642624,0.01722237467765808,0.0012065623886883259
1772018100867477200,8.242477294921875,-0.006482566241174936,0.010327371768653393,-0.00424173753708601
1772018100887444200,8.2624443359375,0.008228225633502007,-0.0005087563768029213,-0.007306640036404133
1772018100907410200,8.28241015625,0.019978197291493416,-0.02130916155874729,-0.010834104381501675
1772018100927377200,8.302377197265624,0.00048526725731790066,-0.026430219411849976,-0.0025873722042888403
1772018100947344400,8.322344482421874,-0.03606416657567024,-0.02747984230518341,0.003920186776667833
1772018100967311000,8.34231103515625,-0.026336736977100372,-0.02464429661631584,-0.022360680624842644
1772018100987277300,8.36227734375,-0.013590018264949322,-0.021915167570114136,-0.03277497738599777
1772018101007244300,8.382244384765626,-0.01884394884109497,-0.011910486035048962,-0.014209807850420475
1772018101027211300,8.402211181640626,-0.015621227212250233,0.016674209386110306,0.012361343950033188
1772018101047177200,8.42217724609375,0.001999039202928543,0.027094978839159012,0.03282094746828079
1772018101067144200,8.442144287109375,0.01909838244318962,0.012811819091439247,0.03171706944704056
1772018101087111200,8.462111083984375,0.02908948063850403,0.012615717016160488,0.025492200627923012
1772018101107078400,8.482078369140625,0.006647814530879259,0.031553275883197784,0.02389230765402317
1772018101127044000,8.502044189453125,-0.007279422599822283,0.004744218662381172,0.011925121769309044
1772018101147011300,8.52201123046875,0.01102236844599247,0.003199412487447262,-0.0032325289212167263
1772018101166978300,8.541978271484375,0.01620299369096756,-0.006124055478721857,0.00438265036791563
1772018101186944300,8.5619443359375,0.0025700125843286514,-0.055704742670059204,0.012887321412563324
1772018101206911200,8.5819111328125,0.0012453105300664902,-0.051651425659656525,-0.0034114839509129524
1772018101226878200,8.601878173828124,-0.006128206383436918,-0.023876260966062546,-0.02656487002968788
1772018101246845200,8.62184521484375,-0.02172807604074478,0.0032995641231536865,-0.02217560075223446
1772018101266811400,8.641811279296874,-0.025075964629650116,0.006731923669576645,-0.005433900281786919
1772018101286778000,8.661778076171874,-0.012236097827553749,0.011831688694655895,0.02225019596517086
1772018101306745300,8.681745361328124,0.0015433025546371937,0.013204706832766533,0.03489942476153374
1772018101326711300,8.701711181640626,0.002915120217949152,0.0276960376650095,0.02921263687312603
1772018101346678300,8.72167822265625,-0.003393947146832943,0.04659772664308548,0.024729078635573387
1772018101366645200,8.741645263671876,-0.010002229362726212,0.019887398928403854,0.01716155931353569
1772018101386611200,8.761611083984375,-0.0067896973341703415,-0.000023293308913707733,0.009845197200775146
1772018101406578200,8.781578125,0.0008109947666525841,0.00635543093085289,0.005135658197104931
1772018101426545200,8.801545166015625,0.006617086939513683,0.0050767213106155396,0.000097110983915627
1772018101446512000,8.82151220703125,0.001976112835109234,-0.007937582209706306,-0.004152113571763039
1772018101466478300,8.841478271484375,-0.007238455582410097,-0.02702943980693817,0.004108750261366367
1772018101486445300,8.8614453125,-0.0012444867752492428,-0.01675647497177124,0.005913709290325642
1772018101506412300,8.881412353515625,0.010146157816052437,-0.017561182379722595,-0.00011023413389921188
1772018101526378200,8.901378173828125,0.010893760249018669,-0.024871893227100372,-0.011521488428115845
1772018101546345200,8.92134521484375,0.0034427077043801546,-0.01544414833188057,0.0034899611491709948
1772018101566312200,8.941312255859375,0.00016891490668058395,0.008052577264606953,0.017353307455778122
1772018101586278000,8.96127783203125,0.014090345241129398,0.01503406185656786,0.012541638687252998
1772018101606245000,8.9812451171875,0.004594296682626009,0.0038606757298111916,0.0018093676771968603
1772018101626212000,9.001212158203124,-0.005370568484067917,0.006032181903719902,0.006918260827660561
1772018101646179000,9.021178955078126,0.0029784799553453922,0.043915748596191406,0.020873883739113808
1772018101666145000,9.04114501953125,0.008851228281855583,0.024671288207173347,0.02641419880092144
1772018101686112000,9.061112060546876,-0.012672048062086105,-0.0012357290834188461,0.02498326450586319
1772018101706079000,9.081078857421875,-0.010258214548230171,0.002636577934026718,0.005322885699570179
1772018101726045200,9.101045166015625,-0.000001589301973581314,-0.005119792185723782,-0.004224145784974098
1772018101746012000,9.121011962890625,-0.007127143442630768,-0.006285457871854305,0.012227797880768776
1772018101765979100,9.140979248046875,-0.010963419452309608,0.0025020884349942207,0.007150346413254738
1772018101785944800,9.16094482421875,-0.008437920361757278,-0.004274583887308836,0.004677198827266693
1772018101805912000,9.180912109375,0.0005435363855212927,-0.010002970695495605,0.005237669683992863
1772018101825879000,9.200879150390625,0.008936183527112007,0.021390007808804512,0.012211562134325504
1772018101845846000,9.220845947265625,0.009394697844982147,0.01646587997674942,0.009960362687706947
1772018101865812000,9.24081201171875,-0.0007346887141466141,-0.01645631343126297,0.0026298873126506805
1772018101885779200,9.260779296875,-0.005203572101891041,-0.014680992811918259,-0.00867881067097187
1772018101905746000,9.280745849609374,0.0011315392330288887,-0.006055373698472977,-0.019099757075309753
1772018101925712100,9.300712158203124,-0.0027557918801903725,-0.0029364321380853653,-0.020571567118167877
1772018101945676000,9.320676025390625,-0.0015848618932068348,-0.005829530768096447,-0.01342922542244196
1772018101965643000,9.34064306640625,-0.0011707874946296215,-0.000018259510397911072,0.016059964895248413
1772018101985610000,9.36060986328125,-0.002306030597537756,0.024353498592972755,0.025978097692131996
1772018102005576200,9.380576171875,-0.0011310665868222713,0.03662054240703583,0.018629776313900948
1772018102025543000,9.40054296875,-0.0001970888115465641,0.03173009678721428,0.008011617697775364
1772018102045510100,9.42051025390625,0.0017568257171660662,0.015309831127524376,0.011110479012131691
1772018102065477000,9.44047705078125,0.005423716269433498,0.026819387450814247,0.020537540316581726
1772018102085443000,9.460443115234375,0.015194186940789223,0.018586883321404457,-0.006300886161625385
1772018102105410000,9.48041015625,0.011873681098222733,0.022113241255283356,-0.026991505175828934
1772018102125377000,9.500376953125,-0.009878846816718578,0.026009421795606613,-0.03700124844908714
1772018102145343000,9.520343017578124,-0.006268884055316448,0.011149793863296509,-0.040493194013834
1772018102165310200,9.540310302734374,0.02040886878967285,0.021345725283026695,-0.02069486491382122
1772018102185277000,9.56027685546875,0.03620851784944534,0.013866391964256763,0.012160700745880604
1772018102205243100,9.5802431640625,0.03598441556096077,-0.013487610034644604,0.017777685075998306
1772018102225209900,9.6002099609375,0.0365590825676918,0.017739450559020042,-0.003971145488321781
1772018102245177000,9.620177001953126,0.025670994073152542,0.04869682714343071,-0.01664845459163189
1772018102265143000,9.64014306640625,0.018487900495529175,0.06522484868764877,-0.005384080111980438
1772018102285110000,9.660110107421875,0.020285453647375107,0.02337786927819252,0.019766025245189667
1772018102305077000,9.680076904296875,0.020576264709234238,0.01416794490069151,0.028292536735534668
1772018102325046000,9.7000458984375,0.020419452339410782,0.02355985715985298,0.013009713962674141
1772018102345013200,9.72001318359375,0.010465456172823906,0.025353169068694115,-0.02232072874903679
1772018102364980000,9.73997998046875,0.004163516219705343,0.0026577720418572426,-0.022273708134889603
1772018102384946200,9.7599462890625,0.0017627158667892218,-0.0026444834657013416,-0.010376441292464733
1772018102404913000,9.779912841796875,0.011205000802874565,0.0059844376519322395,0.00818738155066967
1772018102424880000,9.799880126953125,0.0006234853062778711,0.007817764766514301,0.01362009346485138
1772018102444846000,9.81984619140625,-0.0032048700377345085,0.015117648988962173,0.0010518471244722605
1772018102464813000,9.83981298828125,0.011437973007559776,0.02611108310520649,-0.015477592125535011
1772018102484780000,9.859780029296875,0.019147321581840515,0.03090416081249714,-0.003179119434207678
1772018102504747300,9.879747314453125,0.014960361644625664,0.0060074422508478165,0.023804550990462303
1772018102524713000,9.899712890625,0.014983423054218292,0.0033596083521842957,0.0378655269742012
1772018102544680200,9.91968017578125,0.0287415012717247,0.011248496361076832,0.02030572108924389
1772018102564647400,9.9396474609375,0.024431360885500908,0.012751098722219467,0.000535980798304081
1772018102584613400,9.95961328125,0.01762891188263893,0.04249607026576996,0.019312629476189613
1772018102604580400,9.979580322265624,0.010374870151281357,0.037447549402713776,0.053504135459661484
1772018102624547600,9.999547607421874,0.015550910495221615,-0.008375263772904873,0.04819832742214203
1772018102644513300,10.01951318359375,0.009867498651146889,-0.025506215170025826,0.028403446078300476
1772018102664480500,10.03948046875,-0.018578272312879562,-0.01884014904499054,0.005141803063452244
1772018102684447200,10.059447265625,-0.034428343176841736,-0.018448932096362114,-0.024199306964874268
1772018102704413400,10.079413330078125,-0.05075892433524132,-0.02655099332332611,-0.024826470762491226
1772018102724380400,10.09938037109375,-0.06717083603143692,-0.030103011056780815,-0.01477291714400053
1772018102744347400,10.119347412109375,-0.06544731557369232,-0.04559507966041565,-0.026337947696447372
1772018102764314400,10.139314453125,-0.04976286366581917,-0.028092866763472557,-0.04173288866877556
1772018102784280300,10.1592802734375,-0.040710411965847015,-0.026266535744071007,-0.02809072844684124
1772018102804247300,10.179247314453125,-0.029612546786665916,-0.009749716147780418,-0.0037978962063789368
1772018102824214500,10.199214599609375,-0.0031498377211391926,-0.006177008152008057,0.0023717244621366262
1772018102844180200,10.21918017578125,0.0229865200817585,-0.01824323832988739,0.002575973980128765
1772018102864147500,10.2391474609375,0.04144540801644325,-0.02869250811636448,-0.0006552368286065757
1772018102884114200,10.2591142578125,0.03458405286073685,-0.015480207279324532,0.014377506449818611
1772018102904080400,10.279080322265624,0.018436258658766747,-0.009835544973611832,0.01677727699279785
1772018102924047400,10.29904736328125,0.011361546814441681,-0.028779681771993637,-0.007537512108683586
1772018102944014300,10.319014404296874,-0.008206263184547424,-0.015262885950505733,-0.02358652465045452
1772018102963980500,10.33898046875,-0.01773463934659958,0.00020792055875062943,-0.01586240716278553
1772018102983947300,10.358947265625,-0.020574383437633514,-0.004080659244209528,0.009909804910421371
1772018103003914200,10.378914306640626,-0.02200714871287346,-0.033311955630779266,0.024853598326444626
1772018103023880400,10.39888037109375,-0.023845618590712547,-0.04353486746549606,0.0004477371694520116
1772018103043847400,10.418847412109375,-0.025918971747159958,-0.02190614864230156,-0.0315827950835228
1772018103063814400,10.438814453125,-0.03246544674038887,-0.008859442546963692,-0.022886482998728752
1772018103083781400,10.458781494140625,-0.03654877468943596,-0.004832194186747074,0.016297122463583946
1772018103103747300,10.478747314453125,-0.030435409396886826,-0.022804340347647667,0.029852865263819695
1772018103123714600,10.498714599609375,-0.024919260293245316,-0.017722688615322113,0.00557137094438076
1772018103143681300,10.518681396484375,-0.018000375479459763,0.0006311070173978806,-0.014700743369758129
1772018103163647500,10.5386474609375,-0.009492657147347927,0.020344533026218414,-0.013449587859213352
1772018103183614500,10.558614501953125,0.005168311297893524,-0.0075592705979943275,-0.003999360837042332
1772018103203581400,10.57858154296875,0.029278511181473732,-0.008788835257291794,-0.0008692253613844514
1772018103223547400,10.59854736328125,0.051496557891368866,-0.011740628629922867,0.004284018650650978
1772018103243514400,10.618514404296874,0.04226355254650116,-0.027148667722940445,0.013241000473499298
1772018103263481300,10.6384814453125,0.03660256043076515,-0.03059634193778038,0.009723525494337082
1772018103283447300,10.658447265625,0.04113065451383591,-0.022734342142939568,-0.017540574073791504
1772018103303414300,10.678414306640626,0.03551321476697922,-0.014960451051592827,-0.03936827927827835
1772018103323381500,10.698381591796876,0.016282957047224045,-0.00945829227566719,-0.021277807652950287
1772018103343347200,10.71834716796875,0.007777942810207605,-0.006623968482017517,-0.010090276598930359
1772018103363314400,10.738314453125,0.013655492104589939,-0.021852731704711914,-0.01951759308576584
1772018103383281400,10.758281494140626,0.007226183079183102,-0.003574905451387167,-0.023574134334921837
1772018103403247400,10.778247314453125,0.0083939079195261,0.005887824110686779,-0.008450698107481003
1772018103423214300,10.79821435546875,0.016180716454982758,-0.012594960629940033,0.014115465804934502
1772018103443181300,10.818181396484375,0.002990265376865864,-0.02633652836084366,0.020362721756100655
1772018103463148300,10.838148193359375,-0.008379439823329449,-0.016359061002731323,-0.009963778778910637
1772018103483114500,10.858114501953125,-0.016887236386537552,0.018813472241163254,-0.031113794073462486
1772018103503081200,10.878081298828125,-0.014227312058210373,0.028765875846147537,-0.02001919224858284
1772018103523048400,10.89804833984375,-0.0037631792947649956,-0.011872002854943275,0.00176798808388412
1772018103543014400,10.918014404296875,0.004162670113146305,-0.046006180346012115,0.005206393077969551
1772018103562981600,10.937981689453125,-0.002297885250300169,-0.04400516673922539,-0.015219921246170998
1772018103582948600,10.957948486328124,-0.018728241324424744,-0.003214768599718809,-0.03461172804236412
1772018103602914600,10.97791455078125,-0.02368921786546707,0.01818230375647545,-0.030737755820155144
1772018103622881500,10.997881591796874,-0.02143724635243416,0.012421618215739727,0.002438039518892765
1772018103642848800,11.017848876953124,-0.010380351915955544,-0.009856614284217358,0.032136548310518265
1772018103662814700,11.037814697265626,-0.0050470661371946335,-0.019213801249861717,0.031615763902664185
1772018103682781700,11.05778173828125,-0.013782888650894165,-0.004696127492934465,0.005429317243397236
1772018103702748400,11.07774853515625,-0.0267115980386734,0.011558850295841694,-0.03328041359782219
1772018103722714600,11.097714599609375,-0.02592277154326439,0.020928651094436646,-0.030658800154924393
1772018103742681900,11.117681884765625,-0.018509691581130028,0.004894540645182133,0.011811443604528904
1772018103762648600,11.137648681640625,-0.008082609623670578,-0.04247253015637398,0.036494284868240356
1772018103782614800,11.15761474609375,-0.003911800216883421,-0.036224570125341415,0.007798186503350735
1772018103802581500,11.17758154296875,-0.016658537089824677,0.010163426399230957,-0.01962597295641899
1772018103822548700,11.197548828125,-0.023452971130609512,0.023177064955234528,-0.02178514562547207
1772018103842514400,11.217514404296875,-0.015190552920103073,0.01608870178461075,-0.0009471019729971886
1772018103862481700,11.237481689453125,0.004941588267683983,-0.004785426426678896,0.03188208490610123
1772018103882448600,11.25744873046875,0.018221214413642883,-0.01617460697889328,0.04270077496767044
1772018103902415600,11.27741552734375,0.016703197732567787,-0.0011320984922349453,0.02007189579308033
1772018103922381600,11.297381591796874,0.004195418208837509,0.006479219533503056,0.006094958167523146
1772018103942348800,11.317348876953124,0.001860084943473339,-0.005162168759852648,-0.006370365619659424
1772018103962315500,11.3373154296875,0.0031034823041409254,-0.0032304939813911915,-0.015112186782062054
1772018103982281700,11.35728173828125,-0.002619077917188406,0.017817094922065735,-0.009907444939017296
1772018104002248400,11.37724853515625,-0.002553047612309456,0.016510456800460815,-0.005836533848196268
1772018104022215700,11.397215576171876,0.006611906457692385,-0.010685484856367111,0.0029071641620248556
1772018104042181600,11.417181640625,0.00753260962665081,-0.014255178160965443,0.014904430136084557
1772018104062148600,11.437148681640625,0.016705496236681938,-0.008273642510175705,0.0027789417654275894
1772018104082115600,11.457115478515625,0.014807591214776039,-0.025540053844451904,-0.022632163017988205
1772018104102081500,11.47708154296875,0.0040371050126850605,-0.028501149266958237,-0.040455613285303116
1772018104122048500,11.497048583984375,0.00823288969695568,-0.01534486934542656,-0.028921060264110565
1772018104142015700,11.517015625,0.024458063766360283,0.010382256470620632,0.008677960373461246
1772018104161981700,11.536981689453125,0.03152390569448471,0.026048118248581886,0.05186125636100769
1772018104181948700,11.55694873046875,0.041556574404239655,0.014423330314457417,0.04310758039355278
1772018104201915600,11.57691552734375,0.033792201429605484,0.016823913902044296,0.009069307707250118
1772018104221881600,11.596881591796874,0.007401185110211372,0.014096376486122608,-0.013870472088456154
1772018104241848800,11.616848876953124,0.003917893394827843,0.004127644933760166,-0.006276086904108524
1772018104261815600,11.636815673828124,0.0016633328050374985,-0.008927157148718834,0.019699176773428917
1772018104281781800,11.65678173828125,-0.0007602558471262455,-0.02205611765384674,0.01910424418747425
1772018104301748500,11.67674853515625,-0.0021475371904671192,-0.016580216586589813,-0.016139890998601913
1772018104321715700,11.6967158203125,-0.011852297931909561,-0.01879427395761013,-0.04509272426366806
1772018104341681700,11.716681640625,-0.015010248869657516,0.0019693318754434586,-0.038901541382074356
1772018104361648600,11.736648681640625,0.001688552787527442,0.006604205816984177,-0.007780905347317457
1772018104381615600,11.75661572265625,0.01724938675761223,-0.004320172127336264,0.035009704530239105
1772018104401581600,11.77658154296875,0.014635195024311543,0.0027221105992794037,0.05443720519542694
1772018104421548500,11.796548583984375,0.014820616692304611,-0.0042518125846982,0.011716893874108791
1772018104441515800,11.816515869140625,0.0012004037853330374,0.011277965269982815,-0.02462766319513321
1772018104461481500,11.8364814453125,-0.019944636151194572,0.024597756564617157,-0.0016692066565155983
1772018104481448700,11.85644873046875,-0.008872203528881073,0.009690455161035061,0.022384053096175194
1772018104501415700,11.876415771484375,-0.0014167907647788525,-0.01368110254406929,0.021093102172017097
1772018104521381600,11.896381591796874,-0.005938732530921698,-0.016568578779697418,0.03055276721715927
1772018104541348600,11.9163486328125,-0.011047763749957085,-0.010445176623761654,0.02642633765935898
1772018104561315600,11.936315673828124,-0.008503688499331474,-0.00023657456040382385,-0.002293053548783064
1772018104581281000,11.956281005859376,-0.0164338406175375,0.002385125495493412,-0.023449860513210297
1772018104601248000,11.976248046875,-0.020249301567673683,-0.011116830632090569,-0.026047782972455025
1772018104621215200,11.99621533203125,-0.007661846466362476,-0.031978167593479156,-0.02941708452999592
1772018104641181000,12.016180908203125,0.003184942528605461,-0.005812610499560833,-0.0024041100405156612
1772018104661148200,12.036148193359375,-0.005040295422077179,0.009995019994676113,0.03568123281002045
1772018104681115000,12.056114990234375,-0.003343747928738594,0.023411326110363007,0.03882560878992081
1772018104701081000,12.0760810546875,-0.001702724490314722,0.03279275447130203,0.024784361943602562
1772018104721048000,12.096048095703125,-0.015760326758027077,0.10211305320262909,-0.040241893380880356
1772018104741015000,12.11601513671875,-0.027562858536839485,0.23417183756828308,-0.15961383283138275
1772018104760981000,12.13598095703125,0.009694498032331467,0.46038341522216797,-0.34665295481681824
1772018104780948000,12.155947998046875,0.05115354806184769,0.7080288529396057,-0.20259791612625122
1772018104800915000,12.1759150390625,0.08461728692054749,0.17464585602283478,0.231833815574646
1772018104820881000,12.195880859375,0.22253289818763733,-0.3374069929122925,0.2499862015247345
1772018104840848000,12.215847900390624,0.07154525816440582,-0.14867018163204193,-0.11636315286159515
1772018104860815000,12.235815185546874,-0.07587122917175293,0.029793500900268555,-0.3160019814968109
