time,seconds_elapsed,z,y,x
1772024990471793200,0.079793212890625,-0.8829586505889893,-1.2244296073913574,1.8331936597824097
1772024990481789700,0.089789794921875,-0.6485859155654907,-1.3678004741668701,2.0904793739318848
1772024990491786800,0.099786865234375,0.0030997449066489935,-1.0902754068374634,2.2138280868530273
1772024990501783600,0.109783447265625,0.5156473517417908,-0.7231729626655579,2.3796989917755127
1772024990511780900,0.11978076171875,0.9486501812934875,-0.13922779262065887,2.6028013229370117
1772024990521777700,0.129777587890625,1.1082873344421387,0.32072049379348755,2.719764471054077
1772024990531774700,0.139774658203125,0.8640134334564209,0.05582145228981972,2.370961904525757
1772024990541771800,0.149771728515625,0.3067914843559265,-0.8185395002365112,1.2932497262954712
1772024990551768800,0.159768798828125,-0.18951332569122314,-0.2969875931739807,0.5137048959732056
1772024990561765600,0.169765625,-0.47851842641830444,0.11223430186510086,-0.07777834683656693
1772024990571762700,0.1797626953125,-0.6346768736839294,0.17045100033283234,-0.43017926812171936
1772024990581759700,0.189759765625,-0.7409795522689819,0.12802162766456604,-0.5914732217788696
1772024990591756800,0.1997568359375,-0.8121147155761719,0.02862446755170822,-0.6050233840942383
1772024990601753600,0.209753662109375,-0.8361155390739441,-0.06776139885187149,-0.5326945185661316
1772024990611750700,0.219750732421875,-0.7887786626815796,-0.12015137076377869,-0.4051453471183777
1772024990621747700,0.229747802734375,-0.6601435542106628,-0.15702131390571594,-0.26421505212783813
1772024990631745800,0.239745849609375,-0.49290797114372253,-0.1723850965499878,-0.11640908569097519
1772024990641742600,0.24974267578125,-0.3381926119327545,-0.20936819911003113,-0.0017733954591676593
1772024990651739600,0.25973974609375,-0.25800377130508423,0.44656410813331604,-0.23642052710056305
1772024990661736700,0.26973681640625,-0.25087302923202515,0.40517717599868774,-0.2422577291727066
1772024990671733500,0.2797333984375,-0.2661840617656708,0.3092392086982727,-0.07630312442779541
1772024990681730800,0.289730712890625,-0.32781487703323364,0.22991232573986053,-0.019127001985907555
1772024990691727600,0.2997275390625,-0.3770569860935211,0.0031148744747042656,0.11950038373470306
1772024990701724700,0.309724609375,-0.45766356587409973,-0.12672510743141174,0.22328290343284607
1772024990711721700,0.3197216796875,-0.5343892574310303,-0.17047737538814545,0.3186437785625458
1772024990721718800,0.32971875,-0.4932703971862793,-0.16477905213832855,0.42291274666786194
1772024990731715600,0.339715576171875,-0.40265581011772156,-0.06371103227138519,0.459789514541626
1772024990741713000,0.349712890625,-0.28231698274612427,0.0748743936419487,0.48151805996894836
1772024990751709700,0.359709716796875,-0.16956619918346405,0.16882218420505524,0.4463680684566498
1772024990761706500,0.36970654296875,-0.09833534061908722,0.16700877249240875,0.33313384652137756
1772024990771703800,0.379703857421875,-0.027513893321156502,0.0840582326054573,0.14444009959697723
1772024990781700600,0.38970068359375,0.0753358006477356,-0.03035404346883297,-0.0956214964389801
1772024990791697700,0.39969775390625,0.1709749847650528,-0.08485537022352219,-0.2975647449493408
1772024990801694700,0.40969482421875,0.20733827352523804,-0.05758664757013321,-0.4123518168926239
1772024990811691800,0.41969189453125,0.1645713597536087,-0.006161007564514875,-0.4470815658569336
1772024990821688600,0.4296884765625,0.10016739368438721,0.017877181991934776,-0.4294668436050415
1772024990831686000,0.439685791015625,0.03766034543514252,0.025287695229053497,-0.38376009464263916
1772024990841682700,0.4496826171875,0.0015132057014852762,0.023665908724069595,-0.31968310475349426
1772024990851679700,0.4596796875,-0.015137676149606705,0.03255367651581764,-0.23942582309246063
1772024990861676800,0.4696767578125,-0.03309973329305649,0.046620555222034454,-0.1828516721725464
1772024990871673900,0.479673828125,-0.02858087792992592,0.15550017356872559,-0.18520671129226685
1772024990881670700,0.489670654296875,0.008623579517006874,0.2442086637020111,-0.30841153860092163
1772024990891667700,0.499667724609375,0.05060431733727455,-0.06994686275720596,-0.4668424427509308
1772024990901664800,0.509664794921875,0.03273917734622955,-0.29791080951690674,-0.5704662799835205
1772024990911661600,0.51966162109375,-0.04177074506878853,-0.5231450200080872,-0.6209408640861511
1772024990921659000,0.529658935546875,-0.08747261762619019,-0.5164821147918701,-0.5734898447990417
1772024990931655700,0.53965576171875,-0.0593259334564209,-0.4047539532184601,-0.4447464942932129
1772024990941653800,0.54965380859375,-0.06851326674222946,-0.3414524793624878,-0.3249451220035553
1772024990951650600,0.559650634765625,-0.14022527635097504,-0.3923225998878479,-0.30493491888046265
1772024990961647900,0.56964794921875,-0.14590345323085785,-0.5353401899337769,-0.339908629655838
1772024990971644700,0.579644775390625,0.07871980220079422,-0.7202788591384888,-0.39840978384017944
1772024990981641700,0.589641845703125,0.44619864225387573,-0.8030341267585754,-0.38440385460853577
1772024990991638800,0.599638671875,0.5318019390106201,-0.725354015827179,-0.3281483054161072
1772024991001635800,0.6096357421875,0.3092094957828522,-0.5658191442489624,-0.22243233025074005
1772024991011632600,0.619632568359375,0.027592450380325317,-0.47750264406204224,-0.09951759874820709
1772024991021629700,0.629629638671875,-0.28933462500572205,-0.5356062650680542,-0.016018573194742203
1772024991031626800,0.639626708984375,-0.5857782959938049,-0.5579895973205566,0.10599973797798157
1772024991041623600,0.64962353515625,-0.7392833828926086,-0.43583348393440247,0.4607040584087372
1772024991051620600,0.65962060546875,-0.672603964805603,-0.2664681673049927,0.8981418013572693
1772024991061617700,0.66961767578125,-0.450745552778244,-0.06082668527960777,1.1972582340240479
1772024991071614700,0.67961474609375,-0.16841267049312592,0.1828719973564148,1.3044183254241943
1772024991081611500,0.689611572265625,-0.07608384639024734,-0.16552595794200897,1.249120831489563
1772024991091608800,0.69960888671875,-0.21738691627979279,-0.6739018559455872,0.9763851165771484
1772024991101605600,0.709605712890625,-0.504853367805481,-1.173429012298584,0.46182310581207275
1772024991111602700,0.719602783203125,-0.673350989818573,-1.2308485507965088,-0.1700238734483719
1772024991121599700,0.729599853515625,-0.6915032267570496,-0.8077579140663147,-0.7704933285713196
1772024991131596800,0.7395966796875,-0.6349208950996399,-0.1124129593372345,-1.1418118476867676
1772024991141593600,0.749593505859375,-0.5996116995811462,0.6569443345069885,-1.1937527656555176
1772024991151591000,0.7595908203125,-0.6168060898780823,1.442191481590271,-0.9466729164123535
1772024991161587700,0.769587646484375,-0.7025489211082458,1.8709163665771484,-0.6291148066520691
1772024991171584500,0.77958447265625,-0.8432602286338806,1.8982139825820923,-0.335559606552124
1772024991181581800,0.789581787109375,-0.9833835959434509,1.8322343826293945,-0.06686929613351822
1772024991191578600,0.79957861328125,-1.044510841369629,1.6992673873901367,0.09894310683012009
1772024991201575700,0.80957568359375,-1.108856439590454,1.2791966199874878,0.07319758832454681
1772024991211572700,0.81957275390625,-1.1968451738357544,0.6012689471244812,-0.06490356475114822
1772024991221569800,0.82956982421875,-1.2439324855804443,-0.10695444047451019,-0.2512013614177704
1772024991231567600,0.839567626953125,-1.286344051361084,-0.6285049915313721,-0.45603492856025696
1772024991241564700,0.849564697265625,-1.3494278192520142,-0.8977161049842834,-0.6382259726524353
1772024991251561700,0.859561767578125,-1.3936240673065186,-0.9620261192321777,-0.7477269172668457
1772024991261558800,0.869558837890625,-1.4111640453338623,-0.9171404838562012,-0.7693809270858765
1772024991271555600,0.8795556640625,-1.412162184715271,-0.8338767886161804,-0.7010122537612915
1772024991281553000,0.889552978515625,-1.3720742464065552,-0.7515279650688171,-0.583820641040802
1772024991291549700,0.8995498046875,-1.2966777086257935,-0.6386576294898987,-0.4726603031158447
1772024991301546800,0.909546630859375,-1.1438757181167603,-0.4411650002002716,-0.40083566308021545
1772024991311543800,0.919543701171875,-0.9141759872436523,-0.21639502048492432,-0.38196876645088196
1772024991321540600,0.92954052734375,-0.6411219239234924,0.02681245282292366,-0.42766642570495605
1772024991331537700,0.93953759765625,-0.3699711561203003,0.3085426688194275,-0.5053311586380005
1772024991341534700,0.94953466796875,-0.12340184301137924,0.6088910102844238,-0.5594443082809448
1772024991351531800,0.95953173828125,0.09998570382595062,0.8351292014122009,-0.5649442672729492
1772024991361528600,0.969528564453125,0.27666476368904114,0.8823617696762085,-0.5342969298362732
1772024991371526000,0.97952587890625,0.3934938907623291,0.7754305601119995,-0.46203818917274475
1772024991381522700,0.989522705078125,0.4470718801021576,0.4887533187866211,-0.3499498665332794
1772024991391519700,0.999519775390625,0.4456478953361511,0.07424640655517578,-0.1895809769630432
1772024991401516800,1.009516845703125,0.4203055202960968,-0.44353413581848145,0.007961397059261799
1772024991411513900,1.019513916015625,0.3910975754261017,-0.8623122572898865,0.21799345314502716
1772024991421510700,1.0295107421875,0.2740660309791565,-1.0065869092941284,0.39525851607322693
1772024991431507700,1.0395078125,0.17232578992843628,-1.1046056747436523,0.5230897068977356
1772024991441504800,1.0495048828125,0.12694528698921204,-1.0115514993667603,0.5630014538764954
1772024991451501600,1.05950146484375,0.12903933227062225,-0.6915542483329773,0.5366329550743103
1772024991461498600,1.06949853515625,0.1864268183708191,-0.2687984108924866,0.4873545169830322
1772024991471495700,1.07949560546875,0.2961099147796631,0.10464495420455933,0.4213525950908661
1772024991481492700,1.08949267578125,0.42069482803344727,0.3429328203201294,0.310301274061203
1772024991491494700,1.09949462890625,0.5067498683929443,0.381891667842865,0.16515977680683136
1772024991501492500,1.109492431640625,0.5153551697731018,0.21749408543109894,0.13432352244853973
1772024991511489500,1.119489501953125,0.46806225180625916,-0.04463791847229004,0.3167215585708618
1772024991521486600,1.129486572265625,0.3702395260334015,-0.34049877524375916,0.6770987510681152
1772024991531483600,1.139483642578125,0.21353726089000702,-0.5965774655342102,1.1432905197143555
1772024991541480400,1.14948046875,0.08813928812742233,-0.8107625246047974,1.6225653886795044
1772024991551477500,1.1594775390625,0.09639908373355865,-0.9571237564086914,1.9767980575561523
1772024991561474600,1.169474609375,0.25823163986206055,-0.9164319038391113,2.0924885272979736
1772024991571471400,1.179471435546875,0.5197649598121643,-0.6369025707244873,1.9900708198547363
1772024991581468700,1.18946875,0.7412843108177185,-0.4097038507461548,1.8328971862792969
1772024991591465500,1.199465576171875,0.7881218194961548,-0.4138554334640503,1.6975736618041992
1772024991601462500,1.209462646484375,0.5870283246040344,-0.7100080251693726,1.4674218893051147
1772024991611459600,1.21945947265625,0.0035425075329840183,-1.1791547536849976,1.148664951324463
1772024991621456600,1.22945654296875,-0.6382902264595032,-1.2498517036437988,0.868694007396698
1772024991631453400,1.239453369140625,-1.009202480316162,-0.7000493407249451,0.6923853158950806
1772024991641450800,1.24945068359375,-1.1360509395599365,0.23073838651180267,0.5866402983665466
1772024991651447600,1.259447509765625,-1.1810206174850464,0.8633475303649902,0.2153511643409729
1772024991661444400,1.2694443359375,-1.1903796195983887,1.0241878032684326,-0.4193180501461029
1772024991671441700,1.279441650390625,-1.133256435394287,1.0078825950622559,-1.0222365856170654
1772024991681438500,1.2894384765625,-1.0111252069473267,0.7184567451477051,-1.6313077211380005
1772024991691435500,1.299435546875,-0.8945514559745789,0.015385972335934639,-2.258906364440918
1772024991701432600,1.3094326171875,-0.756744921207428,-0.8624880909919739,-2.625363826751709
1772024991711429600,1.3194296875,-0.6090990304946899,-1.556978464126587,-2.5978310108184814
1772024991721426400,1.329426513671875,-0.5134679079055786,-1.8959680795669556,-2.3144986629486084
1772024991731423700,1.339423828125,-0.4857347905635834,-1.9302743673324585,-1.895946741104126
1772024991741420500,1.349420654296875,-0.4621555805206299,-1.7236270904541016,-1.3941795825958252
1772024991751418600,1.359418701171875,-0.38799506425857544,-1.3309190273284912,-0.9052335023880005
1772024991761415400,1.36941552734375,-0.23327167332172394,-0.8401633501052856,-0.5108588337898254
1772024991771412700,1.379412841796875,-0.004749284591525793,-0.31011146306991577,-0.22350560128688812
1772024991781409500,1.389409423828125,0.25956588983535767,0.21386012434959412,-0.01820056326687336
1772024991791406600,1.399406494140625,0.5399757027626038,0.6832199096679688,0.15299221873283386
1772024991801403600,1.409403564453125,0.7903362512588501,1.0029559135437012,0.30513593554496765
1772024991811400700,1.419400634765625,0.9720945954322815,1.1180201768875122,0.4132205843925476
1772024991821397500,1.4293974609375,1.0630286931991577,1.0087190866470337,0.49353641271591187
1772024991831394600,1.43939453125,1.0803717374801636,0.7009342908859253,0.5898187160491943
1772024991841391600,1.4493916015625,1.039872646331787,0.26444607973098755,0.7149055004119873
1772024991851388400,1.459388427734375,0.9554409384727478,-0.1835029274225235,0.8449817895889282
1772024991861385500,1.469385498046875,0.8390631675720215,-0.5545299649238586,0.9693094491958618
1772024991871382500,1.479382568359375,0.7051860094070435,-0.7878662943840027,1.0655083656311035
1772024991881379600,1.489379638671875,0.5897720456123352,-0.8412391543388367,1.1112107038497925
1772024991891376400,1.49937646484375,0.5018206238746643,-0.7389537692070007,1.1058905124664307
1772024991901373700,1.509373779296875,0.42684537172317505,-0.5467033386230469,1.0436680316925049
1772024991911370500,1.51937060546875,0.33336177468299866,-0.3834744989871979,0.9256647229194641
1772024991921367600,1.529367431640625,0.20514777302742004,-0.28828662633895874,0.7550288438796997
1772024991931364600,1.539364501953125,0.07451732456684113,-0.25086894631385803,0.58696448802948
1772024991941361400,1.549361328125,0.05425788089632988,-0.3660200536251068,0.45814085006713867
1772024991951358500,1.5593583984375,-0.028103036805987358,-0.5744217038154602,0.3623477816581726
1772024991961355500,1.56935546875,-0.22270742058753967,-0.9032562375068665,0.38002222776412964
1772024991971353600,1.579353515625,-0.4078346788883209,-1.1962743997573853,0.560370683670044
1772024991981350400,1.589350341796875,-0.26510053873062134,-1.381409764289856,0.7673352360725403
1772024991991347500,1.599347412109375,-0.05489299073815346,-0.9168285131454468,0.883163332939148
1772024992001344500,1.609344482421875,0.10467870533466339,0.16979682445526123,0.9215965270996094
1772024992011341600,1.619341552734375,0.2181946039199829,1.0010184049606323,0.9942371845245361
1772024992021338400,1.62933837890625,0.3281570374965668,1.315727710723877,1.1548877954483032
1772024992031335700,1.639335693359375,0.30690181255340576,1.1436890363693237,1.324729084968567
1772024992041332500,1.64933251953125,0.042305584996938705,0.7604674696922302,1.5033787488937378
1772024992051329500,1.65932958984375,-0.22074389457702637,0.7174824476242065,1.680978775024414
1772024992061326600,1.66932666015625,-0.31714364886283875,1.0811057090759277,1.647060751914978
1772024992071323600,1.67932373046875,-0.28031080961227417,1.5264480113983154,1.3080004453659058
1772024992081320400,1.689320556640625,-0.19856137037277222,1.8175898790359497,0.6067833304405212
1772024992091317800,1.69931787109375,-0.1405119150876999,1.864728569984436,-0.34164953231811523
1772024992101314600,1.709314453125,-0.05529513955116272,1.7152276039123535,-1.2994157075881958
1772024992111311400,1.719311279296875,0.038903795182704926,1.339825987815857,-2.164114475250244
1772024992121308700,1.72930859375,0.09376983344554901,0.6394767165184021,-2.8133068084716797
1772024992131305500,1.739305419921875,0.14620481431484222,-0.09187021106481552,-3.027872085571289
1772024992141302500,1.749302490234375,0.21625061333179474,-0.6840119957923889,-2.8068437576293945
1772024992151299600,1.759299560546875,0.2602851986885071,-1.141958475112915,-2.2644927501678467
1772024992161296600,1.769296630859375,0.2905588448047638,-1.4134364128112793,-1.5497887134552002
1772024992171293400,1.77929345703125,0.3465491235256195,-1.5079567432403564,-0.8630177974700928
1772024992181290800,1.789290771484375,0.4171844720840454,-1.4385268688201904,-0.37579071521759033
1772024992191288600,1.79928857421875,0.4863499402999878,-1.1871113777160645,-0.12534253299236298
1772024992201285600,1.80928564453125,0.556779146194458,-0.7417176365852356,-0.042870644479990005
1772024992211282400,1.819282470703125,0.6494893431663513,-0.14077718555927277,-0.027889031916856766
1772024992221279700,1.82927978515625,0.7701436877250671,0.5279766917228699,0.010373138822615147
1772024992231276500,1.839276611328125,0.8939108848571777,1.1368026733398438,0.09167518466711044
1772024992241273600,1.849273681640625,0.9932088851928711,1.5660637617111206,0.206601083278656
1772024992251270700,1.859270751953125,1.0572532415390015,1.8097707033157349,0.3670016825199127
1772024992261267500,1.869267333984375,1.097426176071167,1.8727713823318481,0.5716862678527832
1772024992271264500,1.879264404296875,1.1103055477142334,1.7501291036605835,0.7833801507949829
1772024992281261600,1.889261474609375,1.0936282873153687,1.4532856941223145,0.9581000804901123
1772024992291258600,1.899258544921875,1.025305986404419,1.0583953857421875,1.0858231782913208
1772024992301255400,1.90925537109375,0.8928564190864563,0.6459106802940369,1.1665595769882202
1772024992311252500,1.91925244140625,0.7199557423591614,0.2598564624786377,1.204897403717041
1772024992321249500,1.92924951171875,0.5245004892349243,-0.06860847771167755,1.1962895393371582
1772024992331246600,1.93924658203125,0.32608696818351746,-0.299657940864563,1.1253268718719482
1772024992341243400,1.949243408203125,0.1471979320049286,-0.3802432417869568,1.0072848796844482
1772024992351240700,1.95924072265625,0.019561678171157837,-0.34535688161849976,0.8524421453475952
1772024992361237500,1.969237548828125,-0.06388742476701736,-0.2852162718772888,0.6975439786911011
1772024992371234600,1.979234619140625,-0.10576403141021729,-0.24880924820899963,0.5916215181350708
1772024992381231600,1.989231689453125,-0.12959718704223633,-0.27915745973587036,0.5689768195152283
1772024992391228400,1.999228515625,-0.20117123425006866,-0.36278071999549866,0.6016881465911865
1772024992401226500,2.0092265625,-0.3026338517665863,-0.45479822158813477,0.6456810235977173
1772024992411223600,2.0192236328125,-0.40911394357681274,-0.4775906205177307,0.632636308670044
1772024992421220600,2.029220703125,-0.4242706298828125,-0.34194132685661316,0.6073291301727295
1772024992431217400,2.039217529296875,-0.2936582863330841,0.04951964691281319,0.6659218668937683
1772024992441214500,2.04921435546875,-0.10509268194437027,0.380511999130249,0.6787518858909607
1772024992451211500,2.05921142578125,0.011148441582918167,0.27905353903770447,0.4840967059135437
1772024992461208600,2.06920849609375,0.006046772003173828,-0.047058191150426865,0.28836292028427124
1772024992471205400,2.079205322265625,0.04943712428212166,-0.0901486724615097,0.28171247243881226
1772024992481202700,2.08920263671875,0.09330686181783676,0.48636043071746826,0.49686381220817566
1772024992491195600,2.099195556640625,0.08115565031766891,1.032652735710144,0.6850523948669434
1772024992501192400,2.1091923828125,0.11601309478282928,1.27940034866333,0.6059504747390747
1772024992511189800,2.119189697265625,0.2476283758878708,1.3739756345748901,0.29340821504592896
1772024992521186600,2.1291865234375,0.4461889863014221,1.3781161308288574,-0.15758737921714783
1772024992531183600,2.13918359375,0.6311641335487366,1.2275197505950928,-0.7051950693130493
1772024992541180700,2.1491806640625,0.7941337823867798,0.7933984398841858,-1.1730151176452637
1772024992551177700,2.159177734375,0.9570843577384949,0.19629506766796112,-1.3219404220581055
1772024992561174500,2.169174560546875,1.1139049530029297,-0.44626671075820923,-1.1128339767456055
1772024992571171800,2.179171875,1.2086700201034546,-1.0603951215744019,-0.7178661823272705
1772024992581168600,2.189168701171875,1.1791114807128906,-1.5644458532333374,-0.33098864555358887
1772024992591165700,2.199165771484375,1.0562223196029663,-1.8485486507415771,-0.08046668022871017
1772024992601163500,2.20916357421875,0.9218364953994751,-1.8813714981079102,0.009436898864805698
1772024992611160800,2.219160888671875,0.7944234013557434,-1.6179553270339966,-0.045075081288814545
1772024992621157600,2.22915771484375,0.6885561347007751,-1.074702262878418,-0.16764867305755615
1772024992631154700,2.23915478515625,0.619972288608551,-0.32675689458847046,-0.2808934450149536
1772024992641151700,2.24915185546875,0.5997364521026611,0.4740467071533203,-0.3562203049659729
1772024992651148500,2.2591484375,0.6026520729064941,1.1619057655334473,-0.36953824758529663
1772024992661145600,2.2691455078125,0.603069007396698,1.643496036529541,-0.3169402480125427
1772024992671142700,2.279142578125,0.5822433829307556,1.890572428703308,-0.19692783057689667
1772024992681139700,2.2891396484375,0.5437374711036682,1.9067291021347046,-0.0340893492102623
1772024992691136500,2.299136474609375,0.4884628355503082,1.6872467994689941,0.1399431675672531
1772024992701133800,2.3091337890625,0.41084325313568115,1.3115476369857788,0.30589333176612854
1772024992711130600,2.319130615234375,0.3007822632789612,0.864864706993103,0.43493813276290894
1772024992721127700,2.329127685546875,0.15900154411792755,0.4047774076461792,0.5036212205886841
1772024992731124700,2.339124755859375,0.01825321465730667,-0.013798009604215622,0.5248439311981201
1772024992741121800,2.349121826171875,-0.11545807123184204,-0.3450903296470642,0.4947430193424225
1772024992751118600,2.35911865234375,-0.2358396053314209,-0.517251193523407,0.3962081968784332
1772024992761115600,2.36911572265625,-0.31382033228874207,-0.5528610944747925,0.26105546951293945
1772024992771112700,2.37911279296875,-0.3499024510383606,-0.500964343547821,0.1301453858613968
1772024992781109500,2.389109619140625,-0.36361023783683777,-0.41765546798706055,0.03114573284983635
1772024992791106800,2.39910693359375,-0.38642632961273193,-0.35128283500671387,0.009676926769316196
1772024992801104600,2.409104736328125,-0.41811224818229675,-0.35284996032714844,0.07467833906412125
1772024992811101700,2.419101806640625,-0.4649029076099396,-0.4479013681411743,0.2613939046859741
1772024992821098500,2.429098388671875,-0.5054466724395752,-0.554512083530426,0.5996373891830444
1772024992831095800,2.439095703125,-0.5030748844146729,-0.5339279770851135,1.0040866136550903
1772024992841092600,2.449092529296875,-0.5050294399261475,-0.3842833340167999,1.3592559099197388
1772024992851089700,2.459089599609375,-0.464569091796875,-0.06899487972259521,1.6790708303451538
1772024992861086700,2.469086669921875,-0.26401597261428833,0.5169506669044495,1.9287675619125366
1772024992871083800,2.479083740234375,0.05315636843442917,0.8765813112258911,1.9413584470748901
1772024992881080600,2.48908056640625,0.36700472235679626,0.42299720644950867,1.698319673538208
1772024992891077600,2.49907763671875,0.5246537327766418,-0.7357463240623474,1.2284469604492188
1772024992901074700,2.50907470703125,0.49296876788139343,-2.2393100261688232,0.8305478692054749
1772024992911071700,2.51907177734375,0.39693570137023926,-3.362544298171997,0.6223409175872803
1772024992921068500,2.529068603515625,0.24544566869735718,-3.4516069889068604,0.7140001058578491
1772024992931065600,2.539065673828125,0.11496755480766296,-2.752110242843628,0.7799072265625
1772024992941062700,2.549062744140625,0.18085172772407532,-1.614432454109192,0.4616847336292267
1772024992951059500,2.5590595703125,0.38266608119010925,-0.3808005452156067,-0.23561260104179382
1772024992961056800,2.569056884765625,0.6091968417167664,0.705662727355957,-1.1084046363830566
1772024992971053600,2.579053466796875,0.8266060948371887,1.2473424673080444,-1.844926357269287
1772024992981050600,2.589050537109375,0.9873795509338379,1.2054716348648071,-2.0677733421325684
1772024992991047700,2.599047607421875,1.121940016746521,0.7101819515228271,-1.6851516962051392
1772024993001045800,2.609045654296875,1.2735161781311035,-0.04001735895872116,-0.9177466630935669
1772024993011042600,2.61904248046875,1.3867214918136597,-0.8188380002975464,-0.15176032483577728
1772024993021039600,2.62903955078125,1.3601934909820557,-1.3705185651779175,0.30606210231781006
1772024993031036700,2.63903662109375,1.217826008796692,-1.4710925817489624,0.460812509059906
1772024993041033700,2.64903369140625,1.0190190076828003,-1.1667168140411377,0.44424962997436523
1772024993051030500,2.659030517578125,0.8018968105316162,-0.5810436606407166,0.32109469175338745
1772024993061027800,2.66902783203125,0.5888400077819824,0.16213704645633698,0.18560531735420227
1772024993071024600,2.679024658203125,0.39660876989364624,0.9339882731437683,0.08933418244123459
1772024993081021400,2.689021484375,0.24148260056972504,1.5865224599838257,0.045353155583143234
1772024993091018800,2.699018798828125,0.11556728184223175,2.0548129081726074,0.04522079601883888
1772024993101015600,2.709015625,0.028658321127295494,2.3368725776672363,0.125554159283638
1772024993111012600,2.7190126953125,-0.05109589546918869,2.452000141143799,0.24878688156604767
1772024993121009700,2.729009765625,-0.1321915239095688,2.3795430660247803,0.3893336355686188
1772024993131006700,2.7390068359375,-0.1988762766122818,2.1249172687530518,0.521079421043396
1772024993141003500,2.74900341796875,-0.2600899338722229,1.7492691278457642,0.6089692711830139
1772024993151000800,2.759000732421875,-0.3115227520465851,1.3433821201324463,0.6371442079544067
1772024993160997600,2.76899755859375,-0.3666282296180725,0.981025755405426,0.6069835424423218
1772024993170994700,2.77899462890625,-0.427297443151474,0.6992475986480713,0.545182466506958
1772024993180991700,2.78899169921875,-0.4994090497493744,0.470943421125412,0.4728388488292694
1772024993190989800,2.79898974609375,-0.5585429668426514,0.2857852876186371,0.3388219177722931
1772024993200986600,2.808986572265625,-0.6205378174781799,0.15586407482624054,0.16755369305610657
1772024993210983700,2.818983642578125,-0.7057453393936157,0.04688938707113266,-0.010479948483407497
1772024993220980700,2.828980712890625,-0.75569748878479,0.011750263161957264,-0.18757936358451843
1772024993230977800,2.838977783203125,-0.732766330242157,0.06234579533338547,-0.37348106503486633
1772024993240974600,2.848974609375,-0.6163763999938965,0.26002469658851624,-0.5146631598472595
1772024993250971600,2.8589716796875,-0.48469164967536926,0.46005871891975403,-0.6476739645004272
1772024993260968700,2.86896875,-0.4743516743183136,0.6644899249076843,-0.7465222477912903
1772024993270965500,2.878965576171875,-0.6051394939422607,0.686489999294281,-0.7120385766029358
1772024993280962800,2.888962890625,-0.8526202440261841,0.39498138427734375,-0.6253681778907776
1772024993290959600,2.898959716796875,-1.0530258417129517,-0.265839159488678,-0.5645689964294434
1772024993300956700,2.908956787109375,-1.065264344215393,-1.0892277956008911,-0.4815308153629303
1772024993310953700,2.91895361328125,-0.9474961757659912,-1.225455403327942,-0.2348613739013672
1772024993320950800,2.92895068359375,-0.8836487531661987,-0.32249340415000916,-0.04733918234705925
1772024993330947600,2.938947509765625,-0.9614229202270508,0.5603048205375671,-0.3052554130554199
1772024993340944600,2.948944580078125,-1.2296180725097656,0.6672295331954956,-0.886199951171875
1772024993350941700,2.958941650390625,-1.4715174436569214,0.5915597677230835,-1.3461896181106567
1772024993360938500,2.9689384765625,-1.52299165725708,1.0667859315872192,-1.4969855546951294
1772024993370935600,2.978935546875,-1.443282961845398,1.7763333320617676,-1.2979233264923096
1772024993380934000,2.988933837890625,-1.2714418172836304,2.1768839359283447,-0.9416588544845581
1772024993390930700,2.9989306640625,-1.1444835662841797,2.2075507640838623,-0.7108640074729919
1772024993400927700,3.008927734375,-1.0735787153244019,2.038149118423462,-0.696744441986084
1772024993410924800,3.0189248046875,-1.039049506187439,1.7413939237594604,-0.8825640678405762
1772024993420921600,3.028921630859375,-1.0130023956298828,1.154887318611145,-1.1973176002502441
1772024993430918700,3.038918701171875,-0.974677324295044,0.4039212167263031,-1.4954149723052979
1772024993440915700,3.048915771484375,-0.8823941349983215,-0.39370837807655334,-1.6413687467575073
1772024993450912800,3.058912841796875,-0.7351391911506653,-1.090620517730713,-1.564587950706482
1772024993460909600,3.06890966796875,-0.5550528764724731,-1.579667091369629,-1.2912222146987915
1772024993470906600,3.07890673828125,-0.36970460414886475,-1.7851866483688354,-0.9283503293991089
1772024993480903700,3.088903564453125,-0.22275124490261078,-1.6877444982528687,-0.5602591633796692
1772024993490901800,3.09890185546875,-0.069002166390419,-1.3431687355041504,-0.2169143408536911
1772024993500898600,3.108898681640625,0.1023220419883728,-0.8757106065750122,0.08245178312063217
1772024993510895600,3.1188955078125,0.2017543613910675,-0.4210357367992401,0.3079560101032257
1772024993520892700,3.128892578125,0.15160663425922394,-0.0008122895378619432,0.474307119846344
1772024993530889700,3.1388896484375,0.21853187680244446,0.3202909231185913,0.5935823321342468
1772024993540886500,3.148886474609375,0.420347660779953,0.6944373250007629,0.6831273436546326
1772024993550883800,3.1588837890625,0.6246134638786316,1.034470796585083,0.6898398399353027
1772024993560880600,3.168880615234375,0.7629370093345642,1.176292896270752,0.6077219247817993
1772024993570877400,3.17887744140625,0.8775532841682434,1.1349817514419556,0.5281373858451843
1772024993580874800,3.188874755859375,0.994280993938446,0.9420076012611389,0.4638369679450989
1772024993590872800,3.198872802734375,1.0780051946640015,0.6159128546714783,0.38925087451934814
1772024993600869600,3.20886962890625,1.1094465255737305,0.21452881395816803,0.3157288432121277
1772024993610866400,3.218866455078125,1.057180643081665,-0.14504987001419067,0.3014305830001831
1772024993620863700,3.22886376953125,0.9953943490982056,-0.4468313753604889,0.31005558371543884
1772024993630860500,3.238860595703125,0.9104560017585754,-0.6027429103851318,0.33073049783706665
1772024993640857600,3.248857666015625,0.7404447197914124,-0.6457214951515198,0.3531840741634369
1772024993650854700,3.258854736328125,0.5492350459098816,-0.7002009749412537,0.36285507678985596
1772024993660851700,3.268851806640625,0.39759016036987305,-0.7105765342712402,0.3990499675273895
1772024993670848500,3.2788486328125,0.29769155383110046,-0.6549167037010193,0.4257790446281433
1772024993680845800,3.288845703125,0.21995067596435547,-0.5859155654907227,0.3706464469432831
1772024993690842600,3.298842529296875,0.14129795134067535,-0.53059983253479,0.23616984486579895
1772024993700839700,3.308839599609375,0.0585617832839489,-0.48439985513687134,0.06406519562005997
1772024993710836700,3.318836669921875,-0.040501683950424194,-0.4553394317626953,-0.06946729868650436
1772024993720833800,3.328833740234375,-0.18799740076065063,-0.4142780900001526,-0.1301751285791397
1772024993730830600,3.33883056640625,-0.402556836605072,-0.4539261758327484,-0.14882683753967285
1772024993740827600,3.34882763671875,-0.6399034857749939,-0.5555599331855774,-0.12603560090065002
1772024993750824700,3.35882470703125,-0.7162675261497498,-0.535643994808197,-0.011338566429913044
1772024993760821500,3.368821533203125,-0.5536619424819946,-0.16871844232082367,0.17027445137500763
1772024993770819600,3.378819580078125,-0.2750350832939148,0.594224214553833,0.23591125011444092
1772024993780816600,3.388816650390625,-0.1134793758392334,1.178253173828125,-0.10640037059783936
1772024993790813700,3.398813720703125,-0.20579732954502106,0.9316741228103638,-0.7942261695861816
1772024993800810500,3.408810546875,-0.5588852167129517,0.31780555844306946,-1.3721513748168945
1772024993810807800,3.418807861328125,-0.930887758731842,-0.29003486037254333,-1.640947699546814
1772024993820804600,3.4288046875,-1.0359740257263184,-0.41216638684272766,-1.6665380001068115
1772024993830801700,3.4388017578125,-0.880856990814209,-0.06214390695095062,-1.437265396118164
1772024993840798700,3.448798828125,-0.6363725662231445,0.40126100182533264,-0.9578182101249695
1772024993850795800,3.458795654296875,-0.38464975357055664,0.665165901184082,-0.47994673252105713
1772024993860792600,3.46879248046875,-0.07508455216884613,0.6887337565422058,-0.20068997144699097
1772024993870790000,3.478789794921875,0.2518163323402405,0.3139316141605377,-0.14679637551307678
1772024993880786700,3.48878662109375,0.4778863191604614,-0.45619621872901917,-0.24355348944664001
1772024993890783500,3.498783447265625,0.6089181303977966,-1.4248331785202026,-0.22129426896572113
1772024993900780800,3.50878076171875,0.7374738454818726,-2.335322618484497,0.1535193771123886
1772024993910777600,3.518777587890625,0.8254455327987671,-2.855193614959717,0.8131777048110962
1772024993920774700,3.528774658203125,0.8192815184593201,-2.8003814220428467,1.4864264726638794
1772024993930771700,3.538771728515625,0.7509937882423401,-2.356146812438965,1.9245394468307495
1772024993940768800,3.548768798828125,0.6844102740287781,-1.7329332828521729,2.0496833324432373
1772024993950765600,3.558765625,0.6779049634933472,-0.9914905428886414,1.8813964128494263
1772024993960763600,3.568763671875,0.6805047392845154,-0.22147928178310394,1.446056604385376
1772024993970760700,3.5787607421875,0.6396811604499817,0.5374673008918762,0.8586846590042114
1772024993980757800,3.5887578125,0.6038354635238647,1.310092806816101,0.270912230014801
1772024993990754600,3.598754638671875,0.6458468437194824,2.0868723392486572,-0.210659459233284
1772024994000751600,3.608751708984375,0.7327680587768555,2.6753969192504883,-0.5382380485534668
1772024994010748700,3.618748779296875,0.8075464367866516,3.007408618927002,-0.7306687831878662
1772024994020745700,3.628745849609375,0.8599032163619995,3.0582852363586426,-0.8060327172279358
1772024994030742500,3.638742431640625,0.8938950300216675,2.885317087173462,-0.7970432043075562
1772024994040739800,3.64873974609375,0.8841120004653931,2.5831642150878906,-0.7146859169006348
1772024994050736600,3.658736572265625,0.8285204172134399,2.187300443649292,-0.5690895915031433
1772024994060733400,3.6687333984375,0.7186375260353088,1.75482976436615,-0.38918545842170715
1772024994070730800,3.678730712890625,0.5512093901634216,1.342297077178955,-0.20948413014411926
1772024994080727600,3.6887275390625,0.33963632583618164,0.9904041290283203,-0.041621021926403046
1772024994090724600,3.698724609375,0.11933378875255585,0.6803647875785828,0.10826487839221954
1772024994100721700,3.7087216796875,-0.03686261922121048,0.6565108299255371,0.07928401231765747
1772024994110718700,3.71871875,-0.22361624240875244,0.48831382393836975,0.19492672383785248
1772024994120715500,3.728715576171875,-0.3458978533744812,0.36673811078071594,0.3257826864719391
1772024994130712800,3.738712890625,-0.4035712480545044,0.2511625289916992,0.4220847189426422
1772024994140709600,3.748709716796875,-0.4147929549217224,0.13833987712860107,0.49124675989151
1772024994150707700,3.758707763671875,-0.38319507241249084,0.011601919308304787,0.5655491948127747
1772024994160704500,3.76870458984375,-0.33054110407829285,-0.11554435640573502,0.6492484211921692
1772024994170701800,3.778701904296875,-0.3075985014438629,-0.2501319944858551,0.7337161898612976
1772024994180698600,3.78869873046875,-0.3084527254104614,-0.35145172476768494,0.8049946427345276
1772024994190695700,3.79869580078125,-0.2985002100467682,-0.4118748605251312,0.8326534628868103
1772024994200692700,3.808692626953125,-0.36448684334754944,-0.5437027812004089,0.7911186218261719
1772024994210689800,3.818689697265625,-0.503611147403717,-0.7473629713058472,0.8149083852767944
1772024994220686600,3.8286865234375,-0.48149746656417847,-0.7401673793792725,1.0861611366271973
1772024994230683600,3.83868359375,-0.25344327092170715,-0.33059024810791016,1.530219316482544
1772024994240680700,3.8486806640625,-0.06628455966711044,0.09559348970651627,1.6774429082870483
1772024994250677500,3.858677490234375,-0.15573668479919434,-0.20873205363750458,1.1553572416305542
1772024994260674800,3.8686748046875,-0.4905478358268738,-1.164470911026001,0.21322384476661682
1772024994270671600,3.878671630859375,-0.9401493072509766,-2.0609130859375,-0.4162645936012268
1772024994280668700,3.888668701171875,-1.2520307302474976,-2.5445852279663086,-0.6127756237983704
1772024994290665700,3.898665771484375,-1.2767618894577026,-2.381425142288208,-0.5094226002693176
1772024994300662800,3.908662841796875,-1.1234071254730225,-2.087280750274658,-0.2980344295501709
1772024994310659600,3.91865966796875,-0.9463761448860168,-1.8305788040161133,-0.23422935605049133
1772024994320657000,3.928656982421875,-0.8007801175117493,-1.5287790298461914,-0.361002117395401
1772024994330653700,3.93865380859375,-0.6053158044815063,-1.4284024238586426,-0.539325475692749
1772024994340651800,3.94865185546875,-0.31390315294265747,-1.648340106010437,-0.6786073446273804
1772024994350648600,3.958648681640625,0.017413008958101273,-2.0028045177459717,-0.6846556663513184
1772024994360646000,3.96864599609375,0.3206169903278351,-2.331662893295288,-0.45495593547821045
1772024994370642700,3.978642578125,0.5632930397987366,-2.5355536937713623,-0.03353705629706383
1772024994380639500,3.988639404296875,0.739353358745575,-2.5290257930755615,0.37535038590431213
1772024994390636800,3.99863671875,0.8241137862205505,-2.310307264328003,0.572067141532898
1772024994400633600,4.008633544921875,0.7947577834129333,-1.9111825227737427,0.5359364151954651
1772024994410630700,4.018630615234375,0.7027711272239685,-1.3750423192977905,0.34708264470100403
1772024994420627700,4.028627685546875,0.627941906452179,-0.7607395052909851,0.09374465048313141
1772024994430624800,4.038624755859375,0.6242395639419556,-0.09266425669193268,-0.16611061990261078
1772024994440621600,4.04862158203125,0.6902956366539001,0.5846498012542725,-0.37114840745925903
1772024994450618600,4.05861865234375,0.7832916378974915,1.1660515069961548,-0.47207343578338623
1772024994460615700,4.06861572265625,0.853416919708252,1.6108134984970093,-0.4371151626110077
1772024994470612700,4.07861279296875,0.861922562122345,1.8772704601287842,-0.29006314277648926
1772024994480609500,4.088609619140625,0.792485773563385,1.9503148794174194,-0.08708880096673965
1772024994490606000,4.098606201171875,0.6374549269676208,1.8780752420425415,0.10284039378166199
1772024994500603000,4.108602783203125,0.41016441583633423,1.6631739139556885,0.2497689127922058
1772024994510600200,4.11860009765625,0.16293248534202576,1.3428633213043213,0.3327207863330841
1772024994520597000,4.128596923828125,-0.06375174224376678,1.0024207830429077,0.3672986328601837
1772024994530595000,4.138594970703125,-0.24482113122940063,0.7215755581855774,0.36037176847457886
1772024994540591900,4.148591796875,-0.3704392611980438,0.5492755770683289,0.3002666234970093
1772024994550589200,4.158589111328125,-0.43747076392173767,0.48368698358535767,0.20604155957698822
1772024994560586000,4.1685859375,-0.4614921510219574,0.4826144576072693,0.10808625817298889
1772024994570583000,4.1785830078125,-0.45436182618141174,0.5286104679107666,0.03341974318027496
1772024994580580000,4.188580078125,-0.42649200558662415,0.5986891388893127,-0.005829223431646824
1772024994590577200,4.1985771484375,-0.392913281917572,0.6759916543960571,0.006415724754333496
1772024994600574000,4.208573974609375,-0.3496406376361847,0.7094335556030273,0.08762136846780777
1772024994610571300,4.2185712890625,-0.3155849575996399,0.6990181803703308,0.23777838051319122
1772024994620568000,4.228568115234375,-0.29659751057624817,0.6356136202812195,0.4208919405937195
1772024994630564900,4.23856494140625,-0.283983439207077,0.5085235834121704,0.6015509366989136
1772024994640562200,4.248562255859375,-0.2636583745479584,0.2861567437648773,0.7243524193763733
1772024994650559000,4.25855908203125,-0.19513601064682007,-0.026082128286361694,0.7836748361587524
1772024994660556000,4.26855615234375,-0.10945545881986618,-0.4385036826133728,0.7393140196800232
1772024994670553000,4.278552978515625,-0.07888263463973999,-0.87812739610672,0.6176914572715759
1772024994680550100,4.288550048828125,-0.11209359765052795,-1.1396898031234741,0.49110838770866394
1772024994690547000,4.298546875,-0.20202668011188507,-1.1003828048706055,0.38220641016960144
1772024994700544000,4.3085439453125,-0.2111157923936844,-0.6344810724258423,0.2160218209028244
1772024994710542000,4.3185419921875,-0.06261632591485977,-0.09640960395336151,-0.1515415459871292
1772024994720539100,4.3285390625,0.0181021336466074,0.16432534158229828,-0.7470495700836182
1772024994730536000,4.338535888671875,-0.22594915330410004,0.05076815187931061,-1.2848440408706665
1772024994740533000,4.348532958984375,-0.6390267610549927,-0.19330745935440063,-1.4349212646484375
1772024994750530000,4.358530029296875,-0.8361595273017883,-0.13949082791805267,-1.2070140838623047
1772024994760527000,4.368527099609375,-0.8015440106391907,0.23409144580364227,-0.7373650074005127
1772024994770524000,4.37852392578125,-0.6893312335014343,0.2898811995983124,-0.44148704409599304
1772024994780521200,4.388521240234375,-0.5892342925071716,0.08827037364244461,-0.47751563787460327
1772024994790518000,4.39851806640625,-0.4341445863246918,-0.2048424631357193,-0.66774982213974
1772024994800514800,4.408514892578125,-0.2521003782749176,-0.722624659538269,-0.9372698068618774
1772024994810512100,4.41851220703125,-0.13216756284236908,-1.2796450853347778,-1.1373608112335205
1772024994820509000,4.428509033203125,0.004779771901667118,-1.6913319826126099,-1.059982180595398
1772024994830506000,4.438506103515625,0.21393698453903198,-1.9864128828048706,-0.7092651128768921
1772024994840503000,4.4485029296875,0.4251754581928253,-2.138734817504883,-0.26822900772094727
1772024994850500000,4.4585,0.4978589713573456,-2.0687289237976074,0.07111790031194687
1772024994860497000,4.468496826171875,0.41209572553634644,-1.774661898612976,0.20451728999614716
1772024994870494200,4.478494140625,0.24180015921592712,-1.4167431592941284,0.11946764588356018
1772024994880491000,4.488490966796875,0.0586499348282814,-1.0287408828735352,-0.1127319484949112
1772024994890489000,4.498489013671875,-0.08674347400665283,-0.5530337691307068,-0.42788589000701904
1772024994900486000,4.50848583984375,-0.1635816991329193,0.0037840353325009346,-0.7837545871734619
1772024994910483200,4.518483154296875,-0.14626182615756989,0.587960422039032,-1.1269922256469727
1772024994920480000,4.52847998046875,-0.05193357542157173,1.1277512311935425,-1.3854867219924927
1772024994930477000,4.53847705078125,0.08960437774658203,1.5514980554580688,-1.5196077823638916
1772024994940474000,4.54847412109375,0.23712274432182312,1.7575641870498657,-1.5040749311447144
1772024994950471000,4.558470947265625,0.33835721015930176,1.7790454626083374,-1.358637809753418
1772024994960468000,4.568468017578125,0.3725432753562927,1.7224509716033936,-1.119195818901062
1772024994970465000,4.578465087890625,0.3570420742034912,1.6179139614105225,-0.8365074396133423
1772024994980462000,4.588462158203125,0.29992035031318665,1.4326115846633911,-0.4897336959838867
1772024994990459000,4.598458984375,0.21596097946166992,1.157183289527893,-0.10869447886943817
1772024995000456200,4.608456298828125,0.12843671441078186,0.821601927280426,0.2614690661430359
1772024995010453000,4.618452880859375,0.04854455590248108,0.47651222348213196,0.5944289565086365
1772024995020450000,4.628449951171875,-0.014270483516156673,0.17893631756305695,0.8681980967521667
1772024995030447000,4.638447021484375,-0.04455222189426422,-0.054595738649368286,1.0825461149215698
1772024995040444200,4.648444091796875,-0.04638821631669998,-0.23180240392684937,1.2232189178466797
1772024995050441000,4.65844091796875,-0.004793367348611355,-0.3563363552093506,1.2864489555358887
1772024995060438300,4.668438232421875,0.07142803817987442,-0.4399142265319824,1.2807108163833618
1772024995070435000,4.67843505859375,0.17308010160923004,-0.46802812814712524,1.2180935144424438
1772024995080431900,4.688431884765625,0.25575196743011475,-0.45556482672691345,1.1219923496246338
1772024995090430000,4.698429931640625,0.2866550087928772,-0.4667482376098633,1.0235626697540283
1772024995100427300,4.70842724609375,0.2899898588657379,-0.5110130906105042,0.9711761474609375
1772024995110424000,4.718424072265625,0.26468050479888916,-0.5785098671913147,0.9923932552337646
1772024995120420900,4.7284208984375,0.230149507522583,-0.5079746842384338,1.0211570262908936
1772024995130418200,4.738418212890625,0.24663794040679932,-0.29529470205307007,0.987750232219696
1772024995140415000,4.7484150390625,0.37464916706085205,-0.17001797258853912,0.9551802277565002
1772024995150412000,4.758412109375,0.6090579628944397,-0.08748474717140198,0.6324537992477417
1772024995160409000,4.7684091796875,0.7345095872879028,-0.03697023540735245,0.02488676831126213
1772024995170406100,4.77840625,0.6611203551292419,-0.0697215273976326,-0.592225968837738
1772024995180403000,4.78840283203125,0.3783206045627594,-0.411084920167923,-1.0371235609054565
1772024995190400000,4.79839990234375,-0.13610625267028809,-0.8304555416107178,-1.2121833562850952
1772024995200397000,4.80839697265625,-0.6271755695343018,-0.5917275547981262,-1.1187796592712402
1772024995210394000,4.81839404296875,-0.754767119884491,0.3734337389469147,-0.8728764057159424
1772024995220391000,4.828390869140625,-0.6875146627426147,1.2110874652862549,-0.7813806533813477
1772024995230388000,4.838387939453125,-0.7248538136482239,1.6138339042663574,-0.998403012752533
1772024995240385000,4.848385009765625,-0.8185220956802368,1.810320496559143,-1.3924351930618286
1772024995250381800,4.8583818359375,-0.8540305495262146,1.6418750286102295,-1.8886396884918213
1772024995260380000,4.8683798828125,-0.7948746681213379,1.1374701261520386,-2.367030143737793
1772024995270377000,4.878376953125,-0.6320205330848694,0.5793719291687012,-2.6041882038116455
1772024995280374000,4.8883740234375,-0.38747739791870117,0.12793219089508057,-2.4843103885650635
1772024995290370800,4.898370849609375,-0.08559555560350418,-0.22782592475414276,-2.091846227645874
1772024995300368100,4.9083681640625,0.22413356602191925,-0.4101274609565735,-1.6140367984771729
1772024995310365000,4.918364990234375,0.4724094271659851,-0.3276703953742981,-1.1729254722595215
1772024995320362000,4.928362060546875,0.6354998350143433,-0.08876296132802963,-0.8387609720230103
1772024995330359000,4.938359130859375,0.6079081296920776,0.12855204939842224,-0.7462201118469238
1772024995340356000,4.948356201171875,0.4415155351161957,0.33096039295196533,-0.863036036491394
1772024995350353000,4.958352783203125,0.2598389685153961,0.49777841567993164,-1.0343071222305298
1772024995360350200,4.96835009765625,0.12036591023206711,0.5968720316886902,-1.1612764596939087
1772024995370347000,4.978346923828125,0.07707808911800385,0.6152694225311279,-1.1808274984359741
1772024995380344000,4.988343994140625,0.13623619079589844,0.5782243609428406,-1.0752649307250977
1772024995390341000,4.998341064453125,0.2721189558506012,0.5180278420448303,-0.855840802192688
1772024995400338000,5.008337890625,0.4604182541370392,0.4105440378189087,-0.5564299821853638
1772024995410335000,5.0183349609375,0.6745007634162903,0.23630407452583313,-0.21528063714504242
1772024995420332000,5.02833203125,0.9296396970748901,0.02581409364938736,0.1490342617034912
1772024995430329000,5.0383291015625,1.2185654640197754,-0.13097073137760162,0.5245404839515686
1772024995440327000,5.048326904296875,1.5213329792022705,-0.27708056569099426,0.8969590663909912
1772024995450324000,5.058323974609375,1.8246960639953613,-0.4272599220275879,1.2469146251678467
1772024995460321000,5.068321044921875,2.0980217456817627,-0.537901759147644,1.5532666444778442
1772024995470318000,5.078318115234375,2.2688283920288086,-0.6042339205741882,1.798262596130371
1772024995480315000,5.08831494140625,2.2352075576782227,-0.53414386510849,2.041393756866455
1772024995490315500,5.0983154296875,1.9754036664962769,-0.5098454356193542,2.1857855319976807
1772024995500312300,5.108312255859375,1.589137315750122,-0.32477983832359314,2.0449881553649902
1772024995510309400,5.118309326171875,1.3061037063598633,0.11535493284463882,1.8145405054092407
1772024995520306400,5.128306396484375,1.0884982347488403,0.6043127179145813,1.6469203233718872
1772024995530303500,5.138303466796875,0.7890228629112244,1.6316378116607666,1.5840362310409546
1772024995540300300,5.14830029296875,0.689922571182251,2.56001877784729,1.6296885013580322
1772024995550297600,5.158297607421875,0.8161039352416992,2.867516040802002,1.4670919179916382
1772024995560294400,5.16829443359375,0.9568740725517273,2.7003796100616455,1.0980994701385498
1772024995570291500,5.17829150390625,1.0027755498886108,2.653644323348999,0.8468605875968933
1772024995580288500,5.18828857421875,1.0095399618148804,2.639517068862915,0.7474592924118042
1772024995590285300,5.198285400390625,1.1182557344436646,2.468353509902954,0.6304932236671448
1772024995600282400,5.208282470703125,1.3070703744888306,2.35087513923645,0.5249193906784058
1772024995610279400,5.218279541015625,1.6042593717575073,2.5097415447235107,0.3647134304046631
1772024995620276500,5.2282763671875,2.0157458782196045,3.0574378967285156,0.026184510439634323
1772024995630274300,5.2382744140625,2.3443825244903564,3.543828010559082,-0.5968438982963562
1772024995640271400,5.248271240234375,2.2548041343688965,3.17324161529541,-1.3648244142532349
1772024995650268400,5.258268310546875,1.7197966575622559,2.0497844219207764,-1.7662581205368042
1772024995660265500,5.268265380859375,0.858460545539856,0.687574028968811,-1.2839739322662354
1772024995670262300,5.27826220703125,0.11608710885047913,-0.37818679213523865,-0.09014596045017242
1772024995680259600,5.288259521484375,-0.07848062366247177,-1.2501951456069946,1.2398457527160645
1772024995690256400,5.29825634765625,0.13042518496513367,-2.076463460922241,2.3747096061706543
1772024995700253400,5.30825341796875,0.5631459951400757,-2.680082321166992,3.1249678134918213
1772024995710249500,5.31824951171875,1.0321110486984253,-3.138587713241577,3.418569326400757
1772024995720246300,5.328246337890625,1.408365249633789,-3.6097192764282227,3.4139394760131836
1772024995730243300,5.338243408203125,1.700239658355713,-4.084221363067627,3.3566906452178955
1772024995740240400,5.348240478515625,1.9700918197631836,-4.519297122955322,3.3201887607574463
1772024995750237400,5.358237548828125,2.1878437995910645,-4.641700267791748,3.137948989868164
1772024995760234200,5.368234130859375,2.1994080543518066,-4.429105281829834,2.410316228866577
1772024995770231600,5.3782314453125,1.7933502197265625,-3.541503429412842,0.892934262752533
1772024995780228400,5.388228271484375,1.0508434772491455,-1.355775237083435,-0.936555802822113
1772024995790225400,5.398225341796875,0.4580315053462982,0.820249617099762,-2.6459546089172363
1772024995800222500,5.408222412109375,-0.17829298973083496,2.747842788696289,-3.8212838172912598
1772024995810219500,5.418219482421875,-0.8768795728683472,4.509739875793457,-4.505773544311523
1772024995820216300,5.42821630859375,-1.5737016201019287,5.945718288421631,-4.73500919342041
1772024995830213400,5.43821337890625,-1.975682020187378,7.02410888671875,-4.584476947784424
1772024995840210400,5.44821044921875,-2.1793923377990723,6.720375061035156,-3.44225811958313
1772024995850208500,5.45820849609375,-2.1701772212982178,3.927520990371704,-1.8230266571044922
1772024995860205300,5.468205322265625,-2.0048131942749023,2.582563638687134,-0.407710999250412
1772024995870202400,5.478202392578125,-1.6564303636550903,1.5655978918075562,0.5492253303527832
1772024995880199400,5.488199462890625,-0.9498477578163147,-0.0814632773399353,1.2061587572097778
1772024995890196200,5.4981962890625,-0.3445040285587311,-1.0136895179748535,1.5891069173812866
1772024995900193500,5.508193603515625,-0.24062347412109375,-1.329903244972229,1.543392539024353
1772024995910190300,5.5181904296875,-0.3776329755783081,-1.5075461864471436,1.131705641746521
1772024995920187400,5.5281875,-0.32948824763298035,-1.2803914546966553,0.6841851472854614
1772024995930184400,5.538184326171875,-0.15384504199028015,-0.7373971939086914,0.36669081449508667
1772024995940181500,5.548181396484375,-0.01615082658827305,0.10337089002132416,0.18829405307769775
1772024995950178300,5.55817822265625,0.03944399207830429,0.9208390712738037,0.1564333289861679
1772024995960175600,5.568175537109375,0.12765255570411682,1.4095232486724854,0.2054804265499115
1772024995970172400,5.57817236328125,0.26817503571510315,1.4943989515304565,0.2347075641155243
1772024995980169200,5.588169189453125,0.45009395480155945,1.20020592212677,0.1947147250175476
1772024995990166500,5.59816650390625,0.659213662147522,0.653489351272583,0.09003917872905731
1772024996000163300,5.608163330078125,0.7864277958869934,-0.434538871049881,0.09420131891965866
1772024996010160400,5.618160400390625,0.9324859380722046,-1.060854196548462,0.03506024181842804
1772024996020158500,5.628158447265625,0.8702698349952698,-1.7328740358352661,-0.17420636117458344
1772024996030155500,5.638155517578125,0.5928896069526672,-2.6228296756744385,-0.33531561493873596
1772024996040152300,5.64815234375,0.08356685936450958,-3.646357774734497,-0.4129335284233093
1772024996050149400,5.6581494140625,-0.6023531556129456,-4.670397758483887,-0.2374727576971054
1772024996060146400,5.668146484375,-1.1991586685180664,-2.637425422668457,-0.039801567792892456
1772024996070143500,5.6781435546875,-1.1635830402374268,1.1904314756393433,-0.8812196254730225
1772024996080140300,5.688140380859375,-0.9047360420227051,2.075239658355713,-0.8645961284637451
1772024996090137600,5.6981376953125,-0.5403165221214294,2.2337331771850586,-0.02527080476284027
1772024996100134400,5.708134521484375,0.0823320746421814,2.474064826965332,0.49048760533332825
1772024996110131500,5.71813134765625,0.5419971346855164,1.9369128942489624,0.39952918887138367
1772024996120128500,5.72812841796875,0.6946813464164734,1.1221121549606323,0.18097880482673645
1772024996130125600,5.73812548828125,0.6117241382598877,0.6842001080513,0.1479305773973465
1772024996140122400,5.748122314453125,0.3208675682544708,0.8948209285736084,0.3511990010738373
1772024996150119400,5.758119384765625,0.042702771723270416,1.2941209077835083,0.4388500154018402
1772024996160116500,5.768116455078125,-0.16180747747421265,1.3048344850540161,0.22749999165534973
1772024996170113300,5.77811328125,-0.2934350073337555,1.0097812414169312,-0.1475849449634552
1772024996180110300,5.7881103515625,-0.3786344826221466,0.7223437428474426,-0.6172388195991516
1772024996190107400,5.798107421875,-0.5774290561676025,0.6204027533531189,-1.110795497894287
1772024996200104400,5.8081044921875,-0.8419694304466248,0.549039900302887,-1.3533105850219727
1772024996210102300,5.818102294921875,-0.9622777104377747,0.4783407151699066,-1.215041160583496
1772024996220099300,5.828099365234375,-0.9147719144821167,0.4764311611652374,-0.8925645351409912
1772024996230096400,5.838096435546875,-0.7599778175354004,0.3929799497127533,-0.6841335892677307
1772024996240093400,5.848093505859375,-0.4856427013874054,-0.24186943471431732,-0.7625643610954285
1772024996250090200,5.85809033203125,-0.16865567862987518,-0.9500390887260437,-0.7826658487319946
1772024996260087600,5.868087646484375,0.16662603616714478,-1.2544342279434204,-0.46857762336730957
1772024996270084400,5.87808447265625,0.35940080881118774,-1.288686752319336,-0.05378204211592674
1772024996280081400,5.888081298828125,0.42606213688850403,-1.3140326738357544,0.48942598700523376
1772024996290078500,5.898078369140625,0.46663275361061096,-1.3105233907699585,1.0252971649169922
1772024996300075500,5.908075439453125,0.5277546644210815,-1.2063311338424683,1.4245519638061523
1772024996310072300,5.918072265625,0.6639031767845154,-1.1541606187820435,1.6739383935928345
1772024996320069400,5.9280693359375,0.7394553422927856,-1.112562656402588,1.7678396701812744
1772024996330066400,5.93806640625,0.6773746609687805,-0.9541812539100647,1.724295735359192
1772024996340065500,5.9480654296875,0.5042325854301453,-0.7904818654060364,1.4767836332321167
1772024996350062300,5.958062255859375,0.27890998125076294,-0.675083339214325,1.0969226360321045
1772024996360059400,5.968059326171875,0.08817371726036072,-0.6244059205055237,0.7252116799354553
1772024996370056400,5.978056396484375,-0.03614211454987526,-0.6212362051010132,0.4057804346084595
1772024996380053500,5.988053466796875,-0.04658275842666626,-0.6341725587844849,0.18782372772693634
1772024996390050300,5.99805029296875,0.01322118565440178,-0.5830768942832947,0.08227787166833878
1772024996400047400,6.00804736328125,0.09914010018110275,-0.44742444157600403,-0.0039025433361530304
1772024996410044400,6.01804443359375,0.27440911531448364,-0.18738992512226105,-0.029039854183793068
1772024996420041200,6.028041259765625,0.5458592176437378,-0.13059131801128387,0.038272321224212646
1772024996430038500,6.03803857421875,0.8641567826271057,-0.21346436440944672,0.06937218457460403
1772024996440035300,6.048035400390625,1.0057793855667114,-0.25122976303100586,-0.01595176011323929
1772024996450032400,6.058032470703125,0.9575831890106201,-0.22199836373329163,-0.1781502515077591
1772024996460029400,6.068029541015625,0.7368848919868469,-0.19444230198860168,-0.40351852774620056
1772024996470026500,6.078026611328125,0.38403066992759705,-0.11043503135442734,-0.6959461569786072
1772024996480023300,6.088023193359375,-0.01906069740653038,-0.21461221575737,-1.0184110403060913
1772024996490017000,6.09801708984375,-0.29108741879463196,-0.6253052353858948,-1.3572641611099243
1772024996500013800,6.108013916015625,-0.5012984871864319,-0.20296068489551544,-1.4561518430709839
1772024996510012000,6.118011962890625,-0.7691581845283508,0.6467325687408447,-0.9927814602851868
1772024996520008700,6.1280087890625,-1.1319605112075806,0.8452234864234924,-0.35267022252082825
1772024996530006000,6.138006103515625,-1.57433021068573,0.8646091818809509,0.29812857508659363
1772024996540002800,6.1480029296875,-1.8508566617965698,0.9562889933586121,0.4437403380870819
1772024996549999600,6.15799951171875,-1.323136568069458,1.2843382358551025,0.12576289474964142
1772024996559997000,6.167996826171875,-0.6320178508758545,1.1872856616973877,-0.3764601945877075
1772024996569993700,6.17799365234375,-0.30909520387649536,0.7763385772705078,-0.9971458911895752
1772024996579990800,6.18799072265625,-0.03558160364627838,0.2825319766998291,-1.2884165048599243
1772024996589987800,6.19798779296875,0.05581062659621239,-0.11674510687589645,-1.0849825143814087
1772024996599985000,6.20798486328125,0.03624766692519188,0.012987887486815453,-0.6084911227226257
1772024996609981700,6.217981689453125,0.03114425204694271,0.4147939085960388,-0.26041704416275024
1772024996619979000,6.22797900390625,0.03904611989855766,0.6703425049781799,-0.16910110414028168
1772024996629975800,6.237975830078125,0.10908592492341995,0.9331373572349548,-0.3675675690174103
1772024996639972900,6.247972900390625,0.2202065885066986,1.3150990009307861,-0.7793294191360474
1772024996649970000,6.257969970703125,0.28066858649253845,1.688412070274353,-1.1569347381591797
1772024996659967000,6.267967041015625,0.2727097272872925,1.942689061164856,-1.2685633897781372
1772024996669963800,6.2779638671875,0.18543529510498047,1.825825810432434,-1.168972134590149
1772024996679960800,6.2879609375,0.04687849432229996,1.495192050933838,-1.0826396942138672
1772024996689959000,6.297958984375,-0.08504518866539001,0.9622109532356262,-1.1672978401184082
1772024996699956000,6.3079560546875,-0.17816795408725739,0.2580856680870056,-1.7891837358474731
1772024996709952800,6.317952880859375,-0.21943628787994385,-0.5425755381584167,-1.8329602479934692
1772024996719949800,6.32794970703125,-0.08564228564500809,-1.2254422903060913,-1.741916298866272
1772024996729947000,6.33794677734375,0.022683924064040184,-1.7545801401138306,-1.3679394721984863
1772024996739943700,6.347943603515625,0.07178808748722076,-2.0771448612213135,-0.7526260614395142
1772024996749941000,6.35794091796875,0.08902246505022049,-2.2483103275299072,-0.08126471936702728
1772024996759937800,6.367937744140625,0.10292285680770874,-2.2634310722351074,0.4683069586753845
1772024996769934800,6.377934814453125,0.11564771085977554,-2.086770534515381,0.7973684668540955
1772024996779932000,6.387931884765625,0.10533139854669571,-1.7563250064849854,0.8491773009300232
1772024996789929000,6.397928955078125,0.09918083250522614,-1.3299462795257568,0.6810553669929504
1772024996799925800,6.40792578125,0.1105625107884407,-0.9059739708900452,0.4011833369731903
1772024996809922800,6.4179228515625,0.21918804943561554,-0.5172155499458313,0.19900387525558472
1772024996819920000,6.427919921875,0.29949235916137695,-0.28409674763679504,0.11431169509887695
1772024996829916700,6.437916748046875,0.3057582378387451,-0.0387173630297184,0.1638568788766861
1772024996839913700,6.447913818359375,0.32258808612823486,0.1844223141670227,0.3677949607372284
1772024996849910800,6.457910888671875,0.34717148542404175,0.33739936351776123,0.6761078238487244
1772024996859907800,6.467907958984375,0.34330201148986816,0.3785257339477539,0.9859815239906311
1772024996869906000,6.477906005859375,0.30269521474838257,0.38648298382759094,1.2489227056503296
1772024996879902700,6.48790283203125,0.18736781179904938,0.46214988827705383,1.3708841800689697
1772024996889899800,6.497899658203125,-0.0030346247367560863,0.5927523970603943,1.3138762712478638
1772024996899896800,6.507896728515625,-0.18811911344528198,0.7625952959060669,1.1214672327041626
1772024996909893600,6.5178935546875,-0.2847878634929657,0.959628164768219,0.7946939468383789
1772024996919891000,6.527890869140625,-0.37807053327560425,1.005025029182434,0.45238807797431946
1772024996929887700,6.5378876953125,-0.48185497522354126,0.8256813287734985,0.13392595946788788
1772024996939884800,6.547884765625,-0.5412948727607727,0.46861720085144043,-0.21078136563301086
1772024996949881900,6.5578818359375,-0.5339789390563965,0.18347971141338348,-0.6144396662712097
1772024996959879000,6.56787890625,-0.4975431263446808,0.35853537917137146,-0.9646027088165283
1772024996969875700,6.577875732421875,-0.4886809289455414,0.4862411618232727,-1.1715704202651978
1772024996979873000,6.587873046875,-0.48544999957084656,0.23913758993148804,-1.3085298538208008
1772024996989869800,6.597869873046875,-0.42914891242980957,-0.4075961709022522,-0.8307738900184631
1772024996999866600,6.60786669921875,-0.13084626197814941,0.6753518581390381,-0.9559180736541748
1772024997009864000,6.617864013671875,0.41691139340400696,1.124112606048584,-1.4974524974822998
1772024997019860700,6.62786083984375,0.675799548625946,1.3942956924438477,-2.0176334381103516
1772024997029857800,6.63785791015625,0.741108775138855,1.065207600593567,-1.995253324508667
1772024997039854800,6.647854736328125,0.7985595464706421,0.5360665321350098,-1.2928961515426636
1772024997049853000,6.65785302734375,0.7352532744407654,0.2597483992576599,-0.2596764862537384
1772024997059849700,6.667849609375,0.593330979347229,0.39363694190979004,0.5648553371429443
1772024997069846800,6.6778466796875,0.4639133810997009,0.4888976812362671,0.9422420859336853
1772024997079843800,6.68784375,0.37622758746147156,0.46871593594551086,0.786395788192749
1772024997089841000,6.6978408203125,0.2719147801399231,0.43364742398262024,0.2039230614900589
1772024997099837700,6.707837646484375,0.1779431402683258,0.39049550890922546,-0.3985350430011749
1772024997109835000,6.7178349609375,0.12884695827960968,0.40186771750450134,-0.6842948794364929
1772024997119831800,6.727831787109375,0.11040590703487396,0.4254494309425354,-0.5456770658493042
1772024997129828900,6.737828857421875,0.09451749175786972,0.39649367332458496,-0.16885817050933838
1772024997139826000,6.747825927734375,0.12031181901693344,0.32223495841026306,0.22636574506759644
1772024997149823000,6.757822998046875,0.21243055164813995,0.17886634171009064,0.5554181933403015
1772024997159819800,6.76781982421875,0.3326112926006317,-0.07666148990392685,0.7637650966644287
1772024997169816800,6.77781689453125,0.4063233435153961,-0.42438966035842896,0.8552060723304749
1772024997179814000,6.78781396484375,0.4331088364124298,-0.7606989741325378,0.8936091661453247
1772024997189810700,6.797810791015625,0.435441255569458,-1.0462077856063843,0.9238941073417664
1772024997199808000,6.80780810546875,0.42003899812698364,-1.2205194234848022,0.9348180294036865
1772024997209804800,6.8178046875,0.35746800899505615,-1.2625840902328491,0.8751128911972046
1772024997219801900,6.8278017578125,0.2246086597442627,-1.1550480127334595,0.7458709478378296
1772024997229799700,6.837799560546875,0.07207823544740677,-0.8866444826126099,0.563384473323822
1772024997239797000,6.847796875,-0.04280081391334534,-0.48377498984336853,0.33675581216812134
1772024997249793800,6.857793701171875,-0.07343195378780365,-0.06807634234428406,0.12998667359352112
1772024997259790800,6.867790771484375,-0.050206538289785385,0.27101069688796997,-0.018951818346977234
1772024997269788000,6.877787841796875,0.005418377462774515,0.4865643084049225,-0.11579606682062149
1772024997279785000,6.887784912109375,0.0824069082736969,0.5616045594215393,-0.14296244084835052
1772024997289781800,6.89778173828125,0.19374702870845795,0.4844626188278198,-0.095725417137146
1772024997299778800,6.90777880859375,0.31139031052589417,0.31386131048202515,0.008303920738399029
1772024997309776000,6.91777587890625,0.4197324812412262,0.1428714543581009,0.15909209847450256
1772024997319772700,6.927772705078125,0.5066912174224854,0.018529269844293594,0.32888224720954895
1772024997329769700,6.937769775390625,0.550143301486969,-0.07565022259950638,0.48105260729789734
1772024997339766800,6.947766845703125,0.5568597316741943,-0.13784626126289368,0.5910204648971558
1772024997349763800,6.957763916015625,0.5232189297676086,-0.17772921919822693,0.637105405330658
1772024997359760600,6.9677607421875,0.44944414496421814,-0.21070314943790436,0.6303831934928894
1772024997369758000,6.977758056640625,0.35322973132133484,-0.2539747357368469,0.5823027491569519
1772024997379754800,6.987754638671875,0.3007775843143463,-0.33525413274765015,0.5317867398262024
1772024997389751800,6.997751708984375,0.36555659770965576,-0.5144180655479431,0.49673548340797424
1772024997399749600,7.00774951171875,0.5792499780654907,-0.6935531497001648,0.4702535569667816
1772024997409747000,7.017746826171875,0.7638166546821594,-0.670214831829071,0.43122386932373047
1772024997419743700,7.02774365234375,0.6590881943702698,-0.4640345275402069,0.4074915945529938
1772024997429740800,7.03774072265625,0.11672399193048477,-0.04526790603995323,0.503225564956665
1772024997439737900,7.04773779296875,-0.6529319286346436,0.5542031526565552,0.6896986365318298
1772024997449735000,7.05773486328125,-1.1345698833465576,1.1941964626312256,0.7352456450462341
1772024997459731700,7.067731689453125,-0.9403091073036194,1.9401192665100098,0.22825926542282104
1772024997469729000,7.07772900390625,-0.5089582204818726,1.9863128662109375,-0.8854169249534607
1772024997479725800,7.087725830078125,-0.33518022298812866,1.159285306930542,-1.9433043003082275
1772024997489723000,7.097722900390625,-0.2514030337333679,-0.19047532975673676,-2.183887243270874
1772024997499720200,7.10772021484375,-0.2579180598258972,-1.1852046251296997,-1.636222004890442
1772024997509717000,7.117717041015625,-0.33151689171791077,-1.3191815614700317,-0.8581859469413757
1772024997519714000,7.127714111328125,-0.2995088994503021,-0.9804649353027344,-0.3170076906681061
1772024997529711000,7.137711181640625,-0.19106659293174744,-0.6299117207527161,-0.25655126571655273
1772024997539708200,7.147708251953125,-0.10920967161655426,-0.550943911075592,-0.5770513415336609
1772024997549705000,7.157705078125,-0.0650201067328453,-0.5851718783378601,-0.8586310744285583
1772024997559702300,7.167702392578125,-0.0635199323296547,-0.5178113579750061,-0.8537724018096924
1772024997569699000,7.177698974609375,-0.12464720755815506,-0.3037262558937073,-0.6572819948196411
1772024997579697200,7.187697265625,-0.16987527906894684,-0.023852651938796043,-0.5798677802085876
1772024997589694000,7.19769384765625,-0.1477247029542923,0.12549848854541779,-0.7728745341300964
1772024997599691300,7.207691162109375,-0.07137946039438248,0.1244395300745964,-1.1507831811904907
1772024997609688000,7.21768798828125,0.010873598046600819,0.07914502173662186,-1.4608567953109741
1772024997619684900,7.227684814453125,0.01905868947505951,0.039485152810811996,-1.535735845565796
1772024997629682200,7.23768212890625,-0.10162512212991714,-0.014507509768009186,-1.3249666690826416
1772024997639679000,7.247678955078125,-0.25050196051597595,-0.21585458517074585,-0.8795482516288757
1772024997649676000,7.257676025390625,-0.31932762265205383,-0.5270902514457703,-0.3076772689819336
1772024997659673000,7.267673095703125,-0.30453163385391235,-0.7764120101928711,0.24722374975681305
1772024997669670100,7.277670166015625,-0.24519796669483185,-0.8582160472869873,0.6953059434890747
1772024997679667000,7.2876669921875,-0.1842287927865982,-0.803738534450531,1.0027508735656738
1772024997689664000,7.2976640625,-0.17158623039722443,-0.6428306102752686,1.1362404823303223
1772024997699661000,7.3076611328125,-0.18172673881053925,-0.4091039299964905,1.1384209394454956
1772024997709658000,7.317658203125,-0.21466471254825592,-0.13462203741073608,1.0327719449996948
1772024997719655000,7.327655029296875,-0.27009135484695435,0.10040877759456635,0.8610670566558838
1772024997729652000,7.33765185546875,-0.3357398808002472,0.21166633069515228,0.6942927241325378
1772024997739649000,7.34764892578125,-0.4237639904022217,0.19185771048069,0.5684728622436523
1772024997749647000,7.357647216796875,-0.4834371507167816,0.18186472356319427,0.4797760248184204
1772024997759644000,7.367643798828125,-0.5026766657829285,0.17336754500865936,0.39984673261642456
1772024997769641000,7.377640869140625,-0.4573917090892792,0.11515803635120392,0.3351878523826599
1772024997779638000,7.387637939453125,-0.3620721399784088,0.08977288752794266,0.30122998356819153
1772024997789634800,7.397634765625,-0.2557041645050049,0.0606730617582798,0.3132126033306122
1772024997799632100,7.407632080078125,-0.14149557054042816,0.024761777371168137,0.361113965511322
1772024997809629000,7.41762890625,-0.05555083975195885,-0.012746183201670647,0.4094732403755188
1772024997819626000,7.4276259765625,0.042817942798137665,-0.05517261475324631,0.4573541581630707
1772024997829623000,7.437623046875,0.1526522934436798,-0.09232131391763687,0.5051261782646179
1772024997839620000,7.4476201171875,0.30901551246643066,-0.11548446863889694,0.5580024719238281
1772024997849617000,7.457616943359375,0.5262578725814819,-0.08497076481580734,0.607481062412262
1772024997859614200,7.4676142578125,0.768491268157959,0.06608487665653229,0.6232818365097046
1772024997869611000,7.477611083984375,0.9004804491996765,0.26944172382354736,0.5824825167655945
1772024997879608000,7.487608154296875,0.7011231184005737,0.40631920099258423,0.5074484348297119
1772024997889605000,7.497605224609375,0.15443608164787292,0.1947193443775177,0.47622716426849365
1772024997899602000,7.507601806640625,-0.35542330145835876,-0.08676561713218689,0.433113694190979
1772024997909599000,7.517598876953125,-0.3409290611743927,0.3843795359134674,0.25425979495048523
1772024997919597000,7.52759716796875,0.06640703231096268,0.9246994853019714,-0.18914584815502167
1772024997929594000,7.537593994140625,0.3066595792770386,1.217925786972046,-0.5790947079658508
1772024997939591000,7.5475908203125,0.358816921710968,1.1397546529769897,-0.47104671597480774
1772024997949588000,7.557587890625,0.2301769256591797,0.7622712254524231,0.0414661280810833
1772024997959585000,7.5675849609375,-0.10643572360277176,0.5349074602127075,0.5129738450050354
1772024997969582000,7.57758203125,-0.4392794668674469,0.4687468409538269,0.7465088367462158
1772024997979579000,7.587578857421875,-0.6419126987457275,0.4922928810119629,0.7012813687324524
1772024997989576200,7.597576171875,-0.7028958797454834,0.6545071005821228,0.36663544178009033
1772024997999573000,7.607572998046875,-0.6894405484199524,0.825954794883728,0.03838910534977913
1772024998009570000,7.617570068359375,-0.699408769607544,0.9095293283462524,-0.007517135236412287
1772024998019567000,7.627567138671875,-0.7202686071395874,0.9526790380477905,0.1476239114999771
1772024998029564200,7.637564208984375,-0.7099363803863525,0.9320623874664307,0.36255061626434326
1772024998039561000,7.64756103515625,-0.699296772480011,0.8166515231132507,0.5275156497955322
1772024998049558000,7.65755810546875,-0.7046350836753845,0.6661840081214905,0.5182355642318726
1772024998059555000,7.66755517578125,-0.6732413172721863,0.5273216962814331,0.22866463661193848
1772024998069551900,7.6775517578125,-0.5715975165367126,0.3704947829246521,-0.2624318301677704
1772024998079549200,7.687549072265625,-0.43902310729026794,0.11591575294733047,-0.7294182181358337
1772024998089547300,7.69754736328125,-0.28468599915504456,-0.16991813480854034,-0.9945250153541565
1772024998099544000,7.7075439453125,-0.08682872354984283,-0.4178922474384308,-0.9816917181015015
1772024998109540900,7.717540771484375,0.07583902031183243,-0.5759242177009583,-0.7388785481452942
1772024998119538200,7.7275380859375,0.1674414873123169,-0.5863666534423828,-0.353962242603302
1772024998129535000,7.737534912109375,0.20425516366958618,-0.48598888516426086,0.06114627793431282
1772024998139532000,7.747531982421875,0.2052527815103531,-0.34249499440193176,0.41556188464164734
1772024998149529000,7.757529052734375,0.20099039375782013,-0.22486929595470428,0.6425401568412781
1772024998159526100,7.767526123046875,0.2131744921207428,-0.1410619467496872,0.7146103978157043
1772024998169523000,7.77752294921875,0.25505298376083374,-0.11163162440061569,0.6612516045570374
1772024998179520300,7.787520263671875,0.31148242950439453,-0.14038658142089844,0.5220534801483154
1772024998189517000,7.79751708984375,0.377085417509079,-0.2535426914691925,0.34424543380737305
1772024998199514000,7.80751416015625,0.42519500851631165,-0.39488065242767334,0.186299666762352
1772024998209511200,7.81751123046875,0.442428320646286,-0.5007133483886719,0.10271608829498291
1772024998219508000,7.827508056640625,0.44706663489341736,-0.5510662794113159,0.102466881275177
1772024998229505000,7.837505126953125,0.43510743975639343,-0.5617945790290833,0.1741866171360016
1772024998239502000,7.847502197265625,0.41796866059303284,-0.5726005434989929,0.2992996871471405
1772024998249500200,7.857500244140625,0.39692357182502747,-0.5614395141601562,0.44430986046791077
1772024998259497000,7.8674970703125,0.36790257692337036,-0.5480248332023621,0.5638752579689026
1772024998269494000,7.877493896484375,0.32638147473335266,-0.5304296016693115,0.5889960527420044
1772024998279491000,7.887490966796875,0.27148425579071045,-0.5549333095550537,0.5053187012672424
1772024998289488100,7.897488037109375,0.20319177210330963,-0.6712093353271484,0.3451990485191345
1772024998299485000,7.90748486328125,0.14071880280971527,-0.8134260773658752,0.13008339703083038
1772024998309482000,7.91748193359375,0.08864308893680573,-0.8586950302124023,-0.13142064213752747
1772024998319479000,7.92747900390625,0.06639330834150314,-0.6628562808036804,-0.43039676547050476
1772024998329476000,7.93747607421875,0.11839339137077332,-0.2746158540248871,-0.639398455619812
1772024998339473000,7.947472900390625,0.13413283228874207,-0.07468027621507645,-0.5484802722930908
1772024998349470200,7.95747021484375,0.019539138302206993,-0.13879720866680145,-0.21151506900787354
1772024998359467000,7.967467041015625,0.046724800020456314,-0.07414761930704117,0.10717255622148514
1772024998369463800,7.9774638671875,0.4148748517036438,0.0702258050441742,0.1053948923945427
1772024998379461000,7.987461181640625,0.6773925423622131,-0.008457905612885952,-0.34175437688827515
1772024998389458000,7.9974580078125,0.6503388285636902,-0.17289797961711884,-0.7175844311714172
1772024998399455000,8.007455078125,0.42392176389694214,-0.5504461526870728,-0.6019567251205444
1772024998409452000,8.0174521484375,-0.019190942868590355,-0.8617566227912903,-0.20728929340839386
1772024998419450000,8.0274501953125,-0.4159392714500427,-0.9267030358314514,0.09329762309789658
1772024998429447000,8.037447021484375,-0.623792290687561,-0.8672621250152588,0.2682739496231079
1772024998439444000,8.04744384765625,-0.7144153714179993,-0.68787682056427,0.2801733911037445
1772024998449441000,8.05744091796875,-0.6094152331352234,-0.3472641408443451,0.02055591717362404
1772024998459438000,8.06743798828125,-0.46695372462272644,-0.011385496705770493,-0.2776136100292206
1772024998469435000,8.077434814453126,-0.41850176453590393,0.27689313888549805,-0.3165053427219391
1772024998479432200,8.08743212890625,-0.45558425784111023,0.5306807160377502,-0.1180993840098381
1772024998489428500,8.097428466796876,-0.48601779341697693,0.6747662425041199,0.1126888245344162
1772024998499425500,8.107425537109375,-0.4866669178009033,0.6712863445281982,0.19725584983825684
1772024998509422600,8.117422607421876,-0.4906797707080841,0.6603330373764038,0.03117287904024124
1772024998519419600,8.127419677734375,-0.5143584609031677,0.5735907554626465,-0.3812255859375
1772024998529416400,8.13741650390625,-0.5268076658248901,0.34878265857696533,-0.843569278717041
1772024998539413800,8.147413818359375,-0.49897700548171997,0.06016843765974045,-1.1473873853683472
1772024998549410600,8.15741064453125,-0.4533884823322296,-0.19338500499725342,-1.1415095329284668
1772024998559407400,8.167407470703125,-0.38860151171684265,-0.3929378390312195,-0.808620810508728
1772024998569404700,8.17740478515625,-0.3250265121459961,-0.509991466999054,-0.2847336530685425
1772024998579401500,8.1874013671875,-0.2408282607793808,-0.5255182385444641,0.25784817337989807
1772024998589399600,8.197399658203125,-0.13037632405757904,-0.42826491594314575,0.6661959886550903
1772024998599396400,8.207396240234376,-0.018035005778074265,-0.2825900614261627,0.8883320689201355
1772024998609393700,8.2173935546875,0.0629115104675293,-0.11917474120855331,0.9208870530128479
1772024998619390500,8.227390380859376,0.11988064646720886,0.023129504173994064,0.794066846370697
1772024998629387500,8.237387451171875,0.15597926080226898,0.08917270600795746,0.5396547913551331
1772024998639384600,8.247384521484374,0.19467061758041382,0.08155270665884018,0.21703502535820007
1772024998649381600,8.257381591796875,0.22606182098388672,0.017536701634526253,-0.11064616590738297
1772024998659378400,8.26737841796875,0.22938384115695953,-0.07298949360847473,-0.3689444661140442
1772024998669375700,8.277375732421875,0.19353821873664856,-0.17937666177749634,-0.5089108347892761
1772024998679372500,8.28737255859375,0.13255304098129272,-0.2668552100658417,-0.49974459409713745
1772024998689369600,8.29736962890625,0.06797298789024353,-0.33713334798812866,-0.36356303095817566
1772024998699366700,8.30736669921875,0.026674292981624603,-0.36480042338371277,-0.14015325903892517
1772024998709363700,8.31736376953125,0.01757586933672428,-0.35174694657325745,0.12414310872554779
1772024998719360500,8.327360595703125,0.03535856679081917,-0.3205706477165222,0.3953671157360077
1772024998729357600,8.337357666015626,0.07054691016674042,-0.28406962752342224,0.6300802826881409
1772024998739355600,8.347355712890625,0.10582221299409866,-0.24013593792915344,0.7895345091819763
1772024998749352700,8.357352783203124,0.14543326199054718,-0.1724786013364792,0.8285530209541321
1772024998759349500,8.367349609375,0.20644603669643402,-0.08523067086935043,0.7386922240257263
1772024998769346600,8.3773466796875,0.3626846373081207,0.027933968231081963,0.5312002301216125
1772024998779343600,8.387343505859375,0.5404008030891418,0.2994670867919922,0.20437900722026825
1772024998789340400,8.39734033203125,0.7036222219467163,0.8813560605049133,-0.26524442434310913
1772024998799337700,8.407337646484375,0.6788853406906128,1.5832406282424927,-0.676292896270752
1772024998809334500,8.41733447265625,0.298265278339386,2.004525899887085,-0.647380530834198
1772024998819331600,8.42733154296875,-0.07486020773649216,2.2616569995880127,-0.15925326943397522
1772024998829328600,8.43732861328125,-0.09663847833871841,2.56331205368042,0.4354018568992615
1772024998839325700,8.44732568359375,-0.046745896339416504,2.5011205673217773,0.7393038868904114
1772024998849322500,8.457322509765625,0.0005001806421205401,2.216749429702759,0.6946386694908142
1772024998859319800,8.46731982421875,0.11880192160606384,1.7413641214370728,0.7617393136024475
1772024998869316600,8.477316650390625,0.15598870813846588,1.0697729587554932,1.0349500179290771
1772024998879313400,8.4873134765625,-0.006174759939312935,0.5499560236930847,1.285649061203003
1772024998889310700,8.497310791015625,-0.21588164567947388,0.27714553475379944,1.3446388244628906
1772024998899307500,8.5073076171875,-0.3505586087703705,0.12247798591852188,1.197980523109436
1772024998909305600,8.5173056640625,-0.31653913855552673,0.21154367923736572,0.7706097960472107
1772024998919302400,8.527302490234375,-0.13120564818382263,0.546626627445221,0.15853288769721985
1772024998929299700,8.5372998046875,0.06417343765497208,0.8358318209648132,-0.299121230840683
1772024998939296500,8.547296630859375,0.21230098605155945,1.1075611114501953,-0.45695793628692627
1772024998949293600,8.55729345703125,0.2866135537624359,1.33823823928833,-0.38699668645858765
1772024998959290600,8.56729052734375,0.27855297923088074,1.4570908546447754,-0.2072431594133377
1772024998969287700,8.57728759765625,0.2028329223394394,1.3926562070846558,-0.034115586429834366
1772024998979284500,8.587284423828125,0.0814146101474762,1.0572049617767334,-0.015001153573393822
1772024998989281500,8.597281494140624,-0.07869010418653488,0.4104829728603363,-0.1877199411392212
1772024998999278600,8.607278564453125,-0.24609002470970154,-0.45772460103034973,-0.41989004611968994
1772024999009275600,8.617275634765624,-0.3550782799720764,-1.2883394956588745,-0.572742223739624
1772024999019272400,8.6272724609375,-0.3602367043495178,-1.906865119934082,-0.5240278244018555
1772024999029269800,8.637269775390624,-0.3147816061973572,-2.2553117275238037,-0.25870269536972046
1772024999039266600,8.6472666015625,-0.23615430295467377,-2.300929307937622,0.1314222514629364
1772024999049263400,8.657263427734375,-0.14963725209236145,-2.104004383087158,0.5653420090675354
1772024999059260700,8.6672607421875,-0.047837793827056885,-1.7636858224868774,0.9359407424926758
1772024999069258800,8.6772587890625,0.07212349772453308,-1.3557432889938354,1.1965241432189941
1772024999079255600,8.687255615234376,0.1928948014974594,-0.9111758470535278,1.3177176713943481
1772024999089252400,8.69725244140625,0.30721762776374817,-0.49315115809440613,1.2875360250473022
1772024999099249700,8.707249755859374,0.41611430048942566,-0.18956305086612701,1.1271843910217285
1772024999109246500,8.71724658203125,0.5016172528266907,-0.012085731141269207,0.8832732439041138
1772024999119243500,8.727243408203124,0.568465530872345,0.06818418949842453,0.6327572464942932
1772024999129240600,8.737240478515625,0.5971570611000061,0.0727243423461914,0.42129456996917725
1772024999139237600,8.747237548828124,0.5572845935821533,0.03182263672351837,0.28181955218315125
1772024999149234400,8.757234375,0.45204129815101624,-0.01805836893618107,0.2262635976076126
1772024999159231700,8.767231689453125,0.32870230078697205,-0.060473669320344925,0.22892849147319794
1772024999169228500,8.777228515625,0.23659208416938782,-0.07536713033914566,0.27492207288742065
1772024999179225600,8.7872255859375,0.1897774338722229,-0.09340856224298477,0.3215389847755432
1772024999189222700,8.79722265625,0.16899919509887695,-0.13971880078315735,0.35439813137054443
1772024999199219500,8.807219482421875,0.15506485104560852,-0.21917890012264252,0.3523738980293274
1772024999209216500,8.817216552734376,0.12699326872825623,-0.33983901143074036,0.3046087920665741
1772024999219213600,8.827213623046875,0.07748204469680786,-0.49996402859687805,0.20669573545455933
1772024999229210600,8.837210693359374,0.016536669805645943,-0.6055455803871155,0.06698285043239594
1772024999239208700,8.847208740234375,-0.05537360534071922,-0.6831763982772827,-0.1132289245724678
1772024999249205500,8.85720556640625,-0.16715259850025177,-0.7839903235435486,-0.3632853627204895
1772024999259202600,8.86720263671875,-0.30741769075393677,-0.8059481978416443,-0.6885836720466614
1772024999269199600,8.87719970703125,-0.5180833339691162,-0.7128709554672241,-0.9836616516113281
1772024999279196400,8.887196533203126,-0.9341375231742859,-0.7049686908721924,-1.0349256992340088
1772024999289193700,8.89719384765625,-1.3443963527679443,-0.7906596064567566,-0.8750913143157959
1772024999299190500,8.9071904296875,-1.3117477893829346,-0.5453100204467773,-0.7478768229484558
1772024999309187600,8.9171875,-0.9155682325363159,-0.29948270320892334,-0.8905248045921326
1772024999319184600,8.9271845703125,-0.4842085838317871,-0.181425541639328,-1.3188570737838745
1772024999329181700,8.937181640625,-0.17970861494541168,0.001861998112872243,-1.6194987297058105
1772024999339178500,8.947178466796874,-0.04055895283818245,0.21263663470745087,-1.53083336353302
1772024999349175800,8.95717578125,-0.030008573085069656,0.3598407506942749,-1.1892539262771606
1772024999359172600,8.967172607421874,-0.00160410872194916,0.4554711580276489,-0.7917966246604919
1772024999369169400,8.97716943359375,-0.055243104696273804,0.5048440098762512,-0.5217574238777161
1772024999379166700,8.987166748046874,-0.07105149328708649,0.5954678654670715,-0.4582638442516327
1772024999389164800,8.997164794921876,-0.009231003001332283,0.7715531587600708,-0.5274578332901001
1772024999399161600,9.00716162109375,-0.035288307815790176,0.9118784070014954,-0.5115291476249695
1772024999409158400,9.017158447265626,-0.09629040956497192,0.9452986717224121,-0.37532150745391846
1772024999419155700,9.02715576171875,-0.059262219816446304,0.9122477173805237,-0.33235907554626465
1772024999429152500,9.037152587890626,0.10881813615560532,0.7402825951576233,-0.6520664691925049
1772024999439149600,9.047149658203125,0.24440538883209229,0.35896971821784973,-1.4336763620376587
1772024999449146600,9.057146728515624,0.2173687070608139,-0.13567517697811127,-2.4151713848114014
1772024999459143700,9.067143798828125,0.04496007412672043,-0.5629883408546448,-3.0897610187530518
1772024999469140500,9.077140380859374,-0.1904524564743042,-0.805133044719696,-3.0083701610565186
1772024999479137500,9.087137451171875,-0.3968985676765442,-0.9189267158508301,-2.1442368030548096
1772024999489134600,9.097134521484374,-0.5219025611877441,-0.8869309425354004,-0.8416354060173035
1772024999499132200,9.107132080078125,-0.550305962562561,-0.7684392333030701,0.4494912624359131
1772024999509129000,9.11712890625,-0.498564213514328,-0.6273201704025269,1.3831124305725098
1772024999519126300,9.127126220703126,-0.4029845595359802,-0.472298264503479,1.8707380294799805
1772024999529123000,9.137123046875,-0.2994605600833893,-0.26043501496315,1.9446301460266113
1772024999539120000,9.1471201171875,-0.2196701169013977,0.029263729229569435,1.6876758337020874
1772024999549118000,9.157117919921875,-0.1609295755624771,0.31007060408592224,1.2136088609695435
1772024999559115300,9.167115234375,-0.094295434653759,0.5498661994934082,0.6710687875747681
1772024999569112000,9.177112060546875,-0.007754421792924404,0.6904821395874023,0.22568732500076294
1772024999579109000,9.187109130859374,0.08025319874286652,0.7312081456184387,0.0073186676017940044
1772024999589106200,9.197106201171875,0.13508662581443787,0.6830642819404602,0.028690269216895103
1772024999599103000,9.20710302734375,0.14219434559345245,0.5398614406585693,0.20227324962615967
1772024999609100000,9.21710009765625,0.13212254643440247,0.33472105860710144,0.4306046962738037
1772024999619097000,9.22709716796875,0.13263572752475739,0.1309308558702469,0.6305725574493408
1772024999629094100,9.23709423828125,0.14815369248390198,-0.04181242361664772,0.7882646918296814
1772024999639091000,9.247091064453125,0.18388371169567108,-0.17697760462760925,0.8967181444168091
1772024999649088300,9.257088134765626,0.23762577772140503,-0.266728013753891,0.9257609844207764
1772024999659085000,9.2670849609375,0.30754026770591736,-0.33314821124076843,0.8795598745346069
1772024999669082000,9.27708203125,0.37732601165771484,-0.36530187726020813,0.7822421193122864
1772024999679079200,9.2870791015625,0.4286024272441864,-0.3601279854774475,0.6505035161972046
1772024999689076200,9.297076171875,0.44579899311065674,-0.3345922529697418,0.5395490527153015
1772024999699073000,9.307072998046875,0.4419606626033783,-0.27197253704071045,0.4652986526489258
1772024999709070000,9.317070068359374,0.42599552869796753,-0.16943952441215515,0.4710732102394104
1772024999719066000,9.327066162109375,0.3269304931163788,-0.06374387443065643,0.519107460975647
1772024999729063000,9.33706298828125,0.1317620724439621,-0.0008823551470413804,0.5216190814971924
1772024999739060200,9.347060302734375,-0.03969956189393997,0.22869844734668732,0.3160669207572937
1772024999749057000,9.35705712890625,0.037548620253801346,0.7908816337585449,-0.1842251867055893
1772024999759055000,9.36705517578125,0.38423240184783936,1.1016093492507935,-0.834693193435669
1772024999769052000,9.377052001953125,0.6963005065917969,0.9244892001152039,-1.523042917251587
1772024999779049200,9.38704931640625,0.8739603161811829,0.547526478767395,-1.7823262214660645
1772024999789046000,9.3970458984375,0.9122152924537659,0.08995413780212402,-1.1032150983810425
1772024999799043000,9.40704296875,0.6460233926773071,-0.2090851068496704,0.034716200083494186
1772024999809040100,9.4170400390625,0.3066815733909607,-0.11842896789312363,0.9958826899528503
1772024999819037200,9.427037109375,0.15985402464866638,0.2022644728422165,1.3871757984161377
1772024999829034000,9.437033935546875,0.10671037435531616,0.4500361680984497,1.160704255104065
1772024999839031000,9.447031005859374,0.17225290834903717,0.7253066897392273,0.4493861198425293
1772024999849028000,9.457028076171875,0.23530112206935883,1.01822829246521,-0.35117873549461365
1772024999859025000,9.46702490234375,0.1348503977060318,1.1329748630523682,-0.791287899017334
1772024999869022200,9.477022216796875,-0.07514570653438568,1.046241044998169,-0.8479791283607483
1772024999879019000,9.48701904296875,-0.3001633882522583,0.9025368094444275,-0.6703640818595886
1772024999889016000,9.49701611328125,-0.4723929464817047,0.7323477864265442,-0.38058340549468994
1772024999899013000,9.50701318359375,-0.5849936604499817,0.4795381426811218,-0.16126254200935364
1772024999909010200,9.51701025390625,-0.6274886131286621,0.1610075682401657,-0.12523849308490753
1772024999919008000,9.527008056640625,-0.6004306674003601,-0.17083434760570526,-0.2605128288269043
1772024999929005000,9.537005126953124,-0.5520311594009399,-0.46571817994117737,-0.4257987439632416
1772024999939002000,9.547002197265625,-0.4862619936466217,-0.6473740935325623,-0.48205268383026123
1772024999948999200,9.556999267578124,-0.42782238125801086,-0.7530861496925354,-0.3639715909957886
1772024999958996000,9.566995849609375,-0.37659892439842224,-0.796445369720459,-0.07180260121822357
1772024999968993300,9.5769931640625,-0.28974124789237976,-0.7287800908088684,0.3045116364955902
1772024999978990000,9.586989990234375,-0.141398087143898,-0.5704278945922852,0.641079843044281
1772024999988987000,9.59698681640625,0.0038328776136040688,-0.3703429698944092,0.8395402431488037
1772024999998984200,9.606984130859376,0.11080325394868851,-0.15562355518341064,0.8681362867355347
1772025000008981000,9.61698095703125,0.1720767319202423,0.06592108309268951,0.742056667804718
1772025000018978000,9.62697802734375,0.20349618792533875,0.2253429889678955,0.5219835042953491
1772025000028975000,9.63697509765625,0.20021916925907135,0.2753308117389679,0.28144362568855286
1772025000038972200,9.64697216796875,0.17026764154434204,0.21408967673778534,0.09704475849866867
1772025000048969000,9.656968994140625,0.11610667407512665,0.06579606980085373,-0.005350058898329735
1772025000058966300,9.66696630859375,0.06994343549013138,-0.06850117444992065,-0.03975050896406174
1772025000068963000,9.676963134765625,0.05519964545965195,-0.13714708387851715,-0.012643792666494846
1772025000078960000,9.686960205078124,0.06680890172719955,-0.1504513919353485,0.06832669675350189
1772025000088958000,9.6969580078125,0.10060468316078186,-0.13586871325969696,0.18788239359855652
1772025000098955300,9.706955322265625,0.16584999859333038,-0.1342383772134781,0.3084295690059662
1772025000108952000,9.7169521484375,0.2363840788602829,-0.15721000730991364,0.38737791776657104
1772025000118949000,9.72694921875,0.2897154688835144,-0.19389018416404724,0.4141257405281067
1772025000128946200,9.7369462890625,0.329976886510849,-0.22427871823310852,0.3901998996734619
1772025000138943200,9.746943115234375,0.3568198084831238,-0.2470872551202774,0.3161078989505768
1772025000148940000,9.75693994140625,0.3555010259151459,-0.2503246068954468,0.21588145196437836
1772025000158937000,9.76693701171875,0.34483665227890015,-0.24995490908622742,0.105656698346138
1772025000168934100,9.77693408203125,0.36433500051498413,-0.2929990589618683,0.02718905359506607
1772025000178931000,9.786930908203125,0.40947479009628296,-0.2599499821662903,0.020967764779925346
1772025000188928000,9.796927978515624,0.3977997601032257,-0.08259198814630508,0.12360652536153793
1772025000198925000,9.806925048828125,0.2375955581665039,0.1546359658241272,0.3221990168094635
1772025000208922000,9.816922119140624,-0.03831725940108299,0.44943538308143616,0.4899448752403259
1772025000218919000,9.8269189453125,-0.2620559334754944,0.8912904858589172,0.3524913787841797
1772025000228916200,9.836916259765625,-0.21134880185127258,1.16815185546875,-0.20444564521312714
1772025000238913000,9.8469130859375,0.10873450338840485,0.9108431339263916,-1.0565977096557617
1772025000248911000,9.8569111328125,0.49867773056030273,0.4216957688331604,-1.6396273374557495
1772025000258908200,9.866908203125,0.6464303135871887,-0.14761371910572052,-1.339484453201294
1772025000268905200,9.8769052734375,0.3849417269229889,-0.6011220812797546,-0.40841144323349
1772025000278902000,9.886902099609374,0.044092800468206406,-0.6370132565498352,0.509637713432312
1772025000288899000,9.896899169921875,-0.16596004366874695,-0.47476205229759216,0.9942443370819092
1772025000298896100,9.906896240234374,-0.30341336131095886,-0.24861565232276917,0.9382539391517639
1772025000308893000,9.916892822265625,-0.22544719278812408,0.1276991218328476,0.3865138590335846
1772025000318892000,9.92689208984375,-0.1740516573190689,0.43419206142425537,-0.3171573579311371
1772025000328889000,9.93688916015625,-0.2446850687265396,0.5353972911834717,-0.8136097192764282
1772025000338886100,9.94688623046875,-0.36554238200187683,0.5108372569084167,-0.949261486530304
1772025000348883200,9.95688330078125,-0.48693910241127014,0.4557013213634491,-0.7714667320251465
1772025000358880000,9.9668798828125,-0.5822199583053589,0.42651838064193726,-0.4163244366645813
1772025000368877000,9.976876953125,-0.6593450903892517,0.3821463882923126,-0.003143786918371916
1772025000378874000,9.9868740234375,-0.6945180892944336,0.29541969299316406,0.3444865643978119
1772025000388871200,9.99687109375,-0.7001011371612549,0.19777542352676392,0.5699572563171387
1772025000398868000,10.006867919921875,-0.7055063247680664,0.028834450989961624,0.6184306740760803
1772025000408865000,10.016864990234374,-0.6810089945793152,-0.19456347823143005,0.5340603590011597
1772025000418863000,10.026863037109376,-0.6149027943611145,-0.40551483631134033,0.4177210330963135
1772025000428860200,10.036860107421875,-0.5144190788269043,-0.57784104347229,0.33140823245048523
1772025000438857000,10.04685693359375,-0.37271586060523987,-0.6488351821899414,0.2919257879257202
1772025000448854000,10.05685400390625,-0.194704070687294,-0.6037033796310425,0.3056684732437134
1772025000458851000,10.06685107421875,-0.034559935331344604,-0.48297861218452454,0.3795541226863861
1772025000468847900,10.076847900390625,0.06776510179042816,-0.3686874508857727,0.4569924771785736
1772025000478845200,10.08684521484375,0.10732077807188034,-0.2867984175682068,0.48105987906455994
1772025000488842000,10.096842041015625,0.12396340817213058,-0.2332499623298645,0.44557246565818787
1772025000498838800,10.1068388671875,0.13310164213180542,-0.2163025438785553,0.3734435737133026
1772025000508835800,10.1168359375,0.14980578422546387,-0.23625920712947845,0.2974017858505249
1772025000518832600,10.12683251953125,0.15836144983768463,-0.3117491900920868,0.2213243544101715
1772025000528829700,10.13682958984375,0.16151782870292664,-0.4228975474834442,0.169878751039505
1772025000538826800,10.14682666015625,0.18569400906562805,-0.47506365180015564,0.16393111646175385
1772025000548823800,10.15682373046875,0.22236014902591705,-0.4656834602355957,0.2212119847536087
1772025000558820600,10.166820556640625,0.25765636563301086,-0.42441290616989136,0.32169169187545776
1772025000568818000,10.17681787109375,0.30468350648880005,-0.37116941809654236,0.4097065031528473
1772025000578815700,10.186815673828125,0.33454981446266174,-0.3035699129104614,0.4980451762676239
1772025000588812800,10.196812744140624,0.3272000253200531,-0.2615524232387543,0.5973065495491028
1772025000598809600,10.2068095703125,0.2816484868526459,-0.23622553050518036,0.6986222267150879
1772025000608807000,10.216806884765624,0.22210554778575897,-0.24027752876281738,0.7564354538917542
1772025000618803700,10.2268037109375,0.18443512916564941,-0.2230088710784912,0.7318906784057617
1772025000628800800,10.23680078125,0.19994857907295227,-0.20913167297840118,0.6719917058944702
1772025000638797800,10.2467978515625,0.23146815598011017,-0.1625940203666687,0.6167751550674438
1772025000648795000,10.256794921875,0.29242977499961853,-0.08482545614242554,0.5881331562995911
1772025000658791700,10.266791748046876,0.2755526602268219,-0.09606212377548218,0.5924978852272034
1772025000668788700,10.276788818359375,0.08732442557811737,-0.04310330003499985,0.5127396583557129
1772025000678785800,10.286785888671876,-0.08257193118333817,0.31590452790260315,0.14549317955970764
1772025000688782600,10.296782470703125,-0.07538165897130966,0.7615083456039429,-0.3749164342880249
1772025000698780000,10.30677978515625,0.09386169910430908,0.9189348220825195,-0.8682460188865662
1772025000708776700,10.316776611328125,0.28644073009490967,0.6509531736373901,-1.260390043258667
1772025000718773800,10.326773681640624,0.5266662240028381,0.25767654180526733,-1.1586196422576904
1772025000728770800,10.336770751953125,0.4896107614040375,-0.10878641158342361,-0.37775918841362
1772025000738769000,10.346768798828125,0.10712143033742905,-0.20966582000255585,0.6347633600234985
1772025000748765700,10.356765625,-0.1413096785545349,0.09232652932405472,1.2637321949005127
1772025000758762800,10.3667626953125,-0.27913200855255127,0.31357836723327637,1.349901556968689
1772025000768759800,10.376759765625,-0.3542845547199249,0.4728300869464874,0.8724055886268616
1772025000778756900,10.3867568359375,-0.32195550203323364,0.7249736189842224,0.051495179533958435
1772025000788753700,10.396753662109376,-0.34255853295326233,0.8776691555976868,-0.6553855538368225
1772025000798751000,10.4067509765625,-0.4691900908946991,0.7585073709487915,-0.9817690253257751
1772025000808747800,10.416747802734376,-0.6253716945648193,0.508763313293457,-0.8888678550720215
1772025000818744800,10.426744873046875,-0.7664263248443604,0.2469288557767868,-0.4356941282749176
1772025000828742000,10.436741943359374,-0.8458135724067688,0.0006213535089045763,0.17434179782867432
1772025000838738700,10.44673876953125,-0.8619263172149658,-0.11802015453577042,0.7420415282249451
1772025000848735700,10.45673583984375,-0.805588960647583,-0.13812755048274994,1.127812147140503
1772025000858732800,10.46673291015625,-0.6899749636650085,-0.0867360532283783,1.275381326675415
1772025000868729900,10.476729736328124,-0.523188054561615,-0.013436008244752884,1.175498604774475
1772025000878726700,10.4867265625,-0.40229254961013794,-0.029637593775987625,0.9456692934036255
1772025000888724700,10.496724853515625,-0.3291405737400055,-0.14233458042144775,0.7698817253112793
1772025000898721800,10.5067216796875,-0.25615742802619934,-0.25218483805656433,0.7574768662452698
1772025000908718800,10.51671875,-0.17477869987487793,-0.29862985014915466,0.9211004376411438
1772025000918715600,10.526715576171876,-0.09218088537454605,-0.2686617970466614,1.1268006563186646
1772025000928713000,10.536712890625,-0.01540248654782772,-0.18008503317832947,1.2470040321350098
1772025000938709800,10.546709716796874,0.05326792225241661,-0.03481743112206459,1.2080087661743164
1772025000948706800,10.556706787109375,0.11754650622606277,0.16015897691249847,1.003462553024292
1772025000958703900,10.566703857421874,0.15421169996261597,0.33344683051109314,0.7049791812896729
1772025000968701000,10.576700927734375,0.10503723472356796,0.3718152642250061,0.4043455719947815
1772025000978697700,10.58669775390625,0.007574202958494425,0.3132689893245697,0.1806141585111618
1772025000988694800,10.59669482421875,-0.050755683332681656,0.2407042682170868,0.10211215168237686
1772025000998691800,10.60669189453125,-0.04703351482748985,0.14256398379802704,0.14457297325134277
1772025001008688600,10.616688720703126,0.01954018324613571,-0.048889607191085815,0.22742418944835663
1772025001018685700,10.626685791015625,0.1317916363477707,-0.24591130018234253,0.29315006732940674
1772025001028683800,10.636683837890626,0.25616684556007385,-0.37611326575279236,0.3196527659893036
1772025001038680800,10.646680908203125,0.3620764911174774,-0.4625283181667328,0.3053548038005829
1772025001048677600,10.656677734375,0.4320822060108185,-0.5452132821083069,0.24950432777404785
1772025001058674700,10.6666748046875,0.450909823179245,-0.5832515954971313,0.1719406247138977
1772025001068671700,10.676671630859374,0.4345977008342743,-0.580127477645874,0.13265474140644073
1772025001078668800,10.686668701171875,0.41739606857299805,-0.6380062699317932,0.1449529528617859
1772025001088665600,10.69666552734375,0.42253756523132324,-0.7417957782745361,0.16761112213134766
1772025001098663000,10.706662841796875,0.4067230820655823,-0.8058921098709106,0.14121197164058685
1772025001108659700,10.71665966796875,0.3648355305194855,-0.7674480080604553,0.01660052500665188
1772025001118656800,10.72665673828125,0.26538774371147156,-0.5887706875801086,-0.09141559153795242
1772025001128653800,10.73665380859375,0.039120279252529144,-0.1884605437517166,-0.05267511308193207
1772025001138651000,10.74665087890625,-0.11714120954275131,0.48593536019325256,0.02893775701522827
1772025001148647700,10.756647705078125,-0.1283951848745346,1.037804365158081,0.06703933328390121
1772025001158644700,10.766644775390626,0.03200417757034302,1.1570996046066284,-0.13160313665866852
1772025001168642800,10.776642822265625,0.24155767261981964,0.5589328408241272,-0.650460958480835
1772025001178640000,10.786639892578124,0.4222355782985687,-0.4425485134124756,-1.0473955869674683
1772025001188636700,10.79663671875,0.4204901456832886,-1.2561554908752441,-0.7759584784507751
1772025001198633700,10.8066337890625,0.20473693311214447,-1.6306467056274414,0.02479238621890545
1772025001208630800,10.816630859375,0.0022562670055776834,-1.4153634309768677,0.764288067817688
1772025001218627600,10.826627685546875,-0.01443589385598898,-0.9186143279075623,1.0295567512512207
1772025001228625000,10.836625,0.1363949030637741,-0.4560112953186035,0.7445241808891296
1772025001238621700,10.84662158203125,0.39059722423553467,0.020959947258234024,0.041972238570451736
1772025001248618800,10.85661865234375,0.5428253412246704,0.5260902047157288,-0.7203938364982605
1772025001258615800,10.86661572265625,0.46829360723495483,0.8881171941757202,-1.2650256156921387
1772025001268612900,10.87661279296875,0.2673567831516266,0.9451296329498291,-1.4712631702423096
1772025001278609700,10.886609619140625,0.03735633194446564,0.7904257774353027,-1.2754870653152466
1772025001288607000,10.89660693359375,-0.21121034026145935,0.4551987946033478,-0.7974463105201721
1772025001298603800,10.906603759765625,-0.4030252993106842,0.043283652514219284,-0.30262094736099243
1772025001308601900,10.916601806640625,-0.5447808504104614,-0.31931638717651367,0.07780441641807556
1772025001318598700,10.9265986328125,-0.633723258972168,-0.5486729145050049,0.33231377601623535
1772025001328596000,10.936595947265625,-0.6488273739814758,-0.6034030318260193,0.5287192463874817
1772025001338592800,10.9465927734375,-0.5737540125846863,-0.5656355023384094,0.7263340353965759
1772025001348589800,10.95658984375,-0.44434383511543274,-0.4852514863014221,0.9338416457176208
1772025001358587000,10.9665869140625,-0.29709622263908386,-0.35092487931251526,1.1446824073791504
1772025001368583700,10.976583740234375,-0.16042040288448334,-0.1429796665906906,1.281311273574829
1772025001378580700,10.986580810546876,-0.049573108553886414,0.10777998715639114,1.3087825775146484
1772025001388577800,10.996577880859375,0.04724770784378052,0.35189172625541687,1.2632001638412476
1772025001398574800,11.006574951171874,0.12493611127138138,0.5499032139778137,1.2000713348388672
1772025001408571600,11.016571533203125,0.15647061169147491,0.6539763808250427,1.1598671674728394
1772025001418569000,11.02656884765625,0.1587836891412735,0.557659387588501,1.0927505493164062
1772025001428565800,11.036565673828125,0.14854277670383453,0.32784566283226013,0.956568717956543
1772025001438562800,11.046562744140624,0.11088274419307709,0.042148102074861526,0.802090048789978
