time,seconds_elapsed,z,y,x
1772459189490446600,0.102446533203125,0.05079968273639679,-0.02308705262839794,-0.04981112480163574
1772459189500442600,0.112442626953125,0.045030925422906876,0.059301383793354034,-0.062009118497371674
1772459189510439700,0.122439697265625,0.030810710042715073,0.11073128134012222,-0.08523880690336227
1772459189520436700,0.132436767578125,0.005128294695168734,0.1199670135974884,-0.12058012187480927
1772459189530432800,0.142432861328125,-0.02071981504559517,0.10507168620824814,-0.14773717522621155
1772459189540429600,0.1524296875,-0.028520066291093826,0.0957752987742424,-0.16058403253555298
1772459189550426600,0.162426513671875,-0.024727191776037216,0.10315944254398346,-0.16259099543094635
1772459189560422700,0.172422607421875,-0.02532876469194889,0.11316484212875366,-0.17245493829250336
1772459189570419500,0.18241943359375,-0.02731521613895893,0.14455366134643555,-0.16250723600387573
1772459189580416800,0.192416748046875,-0.019908729940652847,0.19954481720924377,-0.1265474557876587
1772459189590412500,0.20241259765625,0.007488541305065155,0.27850353717803955,-0.08388467878103256
1772459189600409900,0.212409912109375,0.06057656556367874,0.35263651609420776,-0.04220688343048096
1772459189610406700,0.22240673828125,0.11456602811813354,0.3946700096130371,-0.021899482235312462
1772459189620402700,0.232402587890625,0.17084680497646332,0.39491546154022217,-0.022587358951568604
1772459189630399700,0.242399658203125,0.2332257479429245,0.35261619091033936,-0.028141381219029427
1772459189640396500,0.252396484375,0.2940087914466858,0.29337605834007263,-0.038217611610889435
1772459189650392800,0.262392822265625,0.3341303765773773,0.1891138255596161,-0.059876035898923874
1772459189660389600,0.2723896484375,0.3398042917251587,0.031197164207696915,-0.09323553740978241
1772459189670385700,0.2823857421875,0.319385290145874,-0.08078236877918243,-0.10339656472206116
1772459189680382700,0.2923828125,0.30730539560317993,-0.16932041943073273,-0.08626431226730347
1772459189690379500,0.302379638671875,0.32496774196624756,-0.2853248119354248,-0.034521762281656265
1772459189700375600,0.31237548828125,0.36148884892463684,-0.39477992057800293,0.03902154043316841
1772459189710372600,0.32237255859375,0.40688058733940125,-0.501691460609436,0.11745882779359818
1772459189720369700,0.33236962890625,0.4581966996192932,-0.5997070670127869,0.20211009681224823
1772459189730365700,0.34236572265625,0.49489825963974,-0.6751951575279236,0.284006804227829
1772459189740362800,0.35236279296875,0.49286726117134094,-0.6658740639686584,0.36897650361061096
1772459189750359800,0.36235986328125,0.46189284324645996,-0.5592153072357178,0.47181394696235657
1772459189760355600,0.37235546875,0.4185452163219452,-0.43731701374053955,0.5757355690002441
1772459189770352600,0.3823525390625,0.37045490741729736,-0.36144328117370605,0.6686423420906067
1772459189780349700,0.392349609375,0.32040759921073914,-0.32037675380706787,0.74173504114151
1772459189790345700,0.402345703125,0.2442190945148468,-0.2926149070262909,0.7773284316062927
1772459189800342500,0.412342529296875,0.15265518426895142,-0.29000937938690186,0.7987385988235474
1772459189810339600,0.422339599609375,0.07249162346124649,-0.3076850473880768,0.813562273979187
1772459189820335600,0.432335693359375,0.004376830533146858,-0.31950128078460693,0.8166221380233765
1772459189830332700,0.442332763671875,-0.05618185177445412,-0.3817795515060425,0.8011190891265869
1772459189840329700,0.452329833984375,-0.11299317330121994,-0.4928547441959381,0.7585967183113098
1772459189850325500,0.462325439453125,-0.16890250146389008,-0.5959776639938354,0.6934899091720581
1772459189860322800,0.47232275390625,-0.22422130405902863,-0.6919898390769958,0.5772475004196167
1772459189870319600,0.482319580078125,-0.2968718111515045,-0.7404918670654297,0.43774470686912537
1772459189880315600,0.492315673828125,-0.3770885765552521,-0.6797326803207397,0.3338463008403778
1772459189890312700,0.502312744140625,-0.4407346546649933,-0.5523757934570312,0.260305255651474
1772459189900309500,0.5123095703125,-0.4852549135684967,-0.41470932960510254,0.20811913907527924
1772459189910305800,0.522305908203125,-0.5236031413078308,-0.32328352332115173,0.15806768834590912
1772459189920302600,0.532302490234375,-0.5415253043174744,-0.2627617418766022,0.08706910908222198
1772459189930299600,0.542299560546875,-0.5459879636764526,-0.2513261139392853,-0.008554885163903236
1772459189940295700,0.552295654296875,-0.5436331629753113,-0.28479424118995667,-0.12443549185991287
1772459189950292500,0.56229248046875,-0.530942440032959,-0.33025893568992615,-0.2509511113166809
1772459189960288800,0.572288818359375,-0.5054758191108704,-0.3812548816204071,-0.36710166931152344
1772459189970285600,0.58228564453125,-0.46958068013191223,-0.4106612503528595,-0.46332886815071106
1772459189980282600,0.59228271484375,-0.4377228915691376,-0.41724884510040283,-0.5426950454711914
1772459189990278700,0.602278564453125,-0.40697988867759705,-0.40505316853523254,-0.6209448575973511
1772459190000275700,0.612275634765625,-0.3578978478908539,-0.3809603154659271,-0.6949434876441956
1772459190010272800,0.622272705078125,-0.3063923120498657,-0.36403724551200867,-0.7744334936141968
1772459190020268800,0.632268798828125,-0.261015921831131,-0.3515869677066803,-0.8547205328941345
1772459190030265600,0.642265625,-0.22378547489643097,-0.2868138253688812,-0.9505562782287598
1772459190040262700,0.6522626953125,-0.19908566772937775,-0.12020675092935562,-1.0595561265945435
1772459190050258700,0.6622587890625,-0.20315709710121155,-0.2145811766386032,-1.1922883987426758
1772459190060255700,0.672255859375,-0.21766920387744904,-0.20930013060569763,-1.260886311531067
1772459190070252500,0.68225244140625,-0.23232591152191162,-0.09414532035589218,-1.2696353197097778
1772459190080248600,0.69224853515625,-0.25631895661354065,-0.09544774144887924,-1.2686079740524292
1772459190090245600,0.70224560546875,-0.3291718661785126,-0.20864354074001312,-1.3120619058609009
1772459190100242700,0.71224267578125,-0.39168354868888855,-0.3344728946685791,-1.3600326776504517
1772459190110238500,0.722238525390625,-0.4003625214099884,-0.3877861797809601,-1.4059969186782837
1772459190120235800,0.73223583984375,-0.3861697316169739,-0.4218761622905731,-1.4623074531555176
1772459190130232600,0.742232666015625,-0.357088565826416,-0.38847264647483826,-1.5121583938598633
1772459190140228900,0.752228759765625,-0.3058900535106659,-0.29122745990753174,-1.523720383644104
1772459190150225700,0.7622255859375,-0.26664599776268005,-0.1679675579071045,-1.4992022514343262
1772459190160222700,0.77222265625,-0.2575913667678833,-0.04593103379011154,-1.444598913192749
1772459190170218800,0.78221875,-0.2804029583930969,0.026313602924346924,-1.371384859085083
1772459190180215600,0.792215576171875,-0.29572033882141113,0.03626301884651184,-1.2986727952957153
1772459190190212600,0.802212646484375,-0.26667216420173645,0.019922930747270584,-1.21685791015625
1772459190200208600,0.812208740234375,-0.1904911994934082,-0.02596523053944111,-1.1264418363571167
1772459190210205400,0.822205322265625,-0.08109147101640701,-0.11137306690216064,-1.003414511680603
1772459190220202800,0.83220263671875,0.03730057552456856,-0.22433671355247498,-0.7961467504501343
1772459190230198500,0.842198486328125,0.15301598608493805,-0.39959508180618286,-0.5370507836341858
1772459190240195800,0.85219580078125,0.2606523633003235,-0.5504392981529236,-0.25850221514701843
1772459190250192600,0.862192626953125,0.30235666036605835,-0.6329240202903748,-0.0023966548033058643
1772459190260188700,0.872188720703125,0.3117496967315674,-0.7055025696754456,0.2345876544713974
1772459190270185700,0.882185791015625,0.2882978916168213,-0.7195664048194885,0.41022685170173645
1772459190280182500,0.8921826171875,0.15674854815006256,-0.6084203720092773,0.48468005657196045
1772459190290178600,0.902178466796875,-0.07171843945980072,-0.4441257119178772,0.4435192942619324
1772459190300175600,0.912175537109375,-0.23093298077583313,-0.3833359181880951,0.3372860550880432
1772459190310172700,0.922172607421875,-0.2850712835788727,-0.4369456171989441,0.2138858437538147
1772459190320168700,0.932168701171875,-0.29487913846969604,-0.6050804853439331,0.07951204478740692
1772459190330165500,0.94216552734375,-0.29287058115005493,-0.8167034983634949,-0.04684456065297127
1772459190340162800,0.952162841796875,-0.2523914873600006,-1.0017787218093872,-0.15837080776691437
1772459190350158600,0.96215869140625,-0.12169124186038971,-1.128455638885498,-0.23596733808517456
1772459190360155600,0.97215576171875,0.028688255697488785,-1.1346533298492432,-0.2514967918395996
1772459190370152700,0.982152587890625,0.13434970378875732,-1.0682950019836426,-0.23727257549762726
1772459190380148700,0.992148681640625,0.20759586989879608,-0.9507136940956116,-0.2449515014886856
1772459190390145500,1.0021455078125,0.27774113416671753,-0.7513211965560913,-0.2697244882583618
1772459190400142600,1.012142578125,0.3475464880466461,-0.524929940700531,-0.28610241413116455
1772459190410138600,1.022138671875,0.42068782448768616,-0.3110498785972595,-0.30630889534950256
1772459190420135700,1.0321357421875,0.48150792717933655,-0.15135562419891357,-0.3375698924064636
1772459190430132700,1.0421328125,0.5391786694526672,-0.05873087793588638,-0.3781551122665405
1772459190440128500,1.05212841796875,0.5664407014846802,-0.05079343169927597,-0.42326200008392334
1772459190450125600,1.06212548828125,0.5534362196922302,-0.11556603759527206,-0.47350943088531494
1772459190460122600,1.07212255859375,0.48610809445381165,-0.2001514732837677,-0.5502465963363647
1772459190470119700,1.08211962890625,0.3910449743270874,-0.2709555923938751,-0.6310780644416809
1772459190480115700,1.09211572265625,0.2964707314968109,-0.3214126229286194,-0.6839514374732971
1772459190490116900,1.102116943359375,0.22995644807815552,-0.3342980444431305,-0.6790842413902283
1772459190500114000,1.112114013671875,0.20609863102436066,-0.292512446641922,-0.6079071760177612
1772459190510110000,1.12210986328125,0.21805809438228607,-0.22606578469276428,-0.5056732296943665
1772459190520106800,1.132106689453125,0.2550298273563385,-0.15585175156593323,-0.3968349099159241
1772459190530103800,1.142103759765625,0.3032684624195099,-0.08976328372955322,-0.30283409357070923
1772459190540099800,1.152099853515625,0.34262070059776306,-0.0481904111802578,-0.24635034799575806
1772459190550097000,1.162096923828125,0.3593807816505432,-0.036444805562496185,-0.22684483230113983
1772459190560094000,1.172093994140625,0.34983766078948975,-0.02914508432149887,-0.2389957308769226
1772459190570089700,1.18208984375,0.32752224802970886,-0.022888250648975372,-0.27904409170150757
1772459190580087000,1.192087158203125,0.2752258777618408,-0.03704746812582016,-0.32586580514907837
1772459190590083800,1.202083740234375,0.21851305663585663,-0.04996832460165024,-0.361645370721817
1772459190600080100,1.212080078125,0.1756916046142578,-0.068943090736866,-0.3759952783584595
1772459190610077000,1.222076904296875,0.13853278756141663,-0.08911227434873581,-0.3689269721508026
1772459190620073700,1.23207373046875,0.11210092157125473,-0.10087236762046814,-0.34612032771110535
1772459190630070000,1.242070068359375,0.09757870435714722,-0.09979671984910965,-0.29608696699142456
1772459190640066800,1.25206689453125,0.08022423833608627,-0.09432006627321243,-0.2337512969970703
1772459190650064000,1.26206396484375,0.06525461375713348,-0.09435149282217026,-0.17576150596141815
1772459190660060000,1.272059814453125,0.0478268638253212,-0.09821969270706177,-0.13632968068122864
1772459190670056700,1.282056640625,0.028754370287060738,-0.09877762943506241,-0.11115801334381104
1772459190680054000,1.292053955078125,0.004450970329344273,-0.10003549605607986,-0.09245423227548599
1772459190690049800,1.3020498046875,-0.02748565748333931,-0.0903589054942131,-0.0864165797829628
1772459190700047000,1.312047119140625,-0.060180481523275375,-0.07589831203222275,-0.08452960103750229
1772459190710044000,1.3220439453125,-0.08849095553159714,-0.06691014021635056,-0.0669436827301979
1772459190720040700,1.332040771484375,-0.10523975640535355,-0.05957266315817833,-0.03283178433775902
1772459190730037000,1.342037109375,-0.10383734107017517,-0.048833467066287994,0.02564750239253044
1772459190740033800,1.35203369140625,-0.08133527636528015,-0.03524092957377434,0.1096060648560524
1772459190750031000,1.362031005859375,-0.038330819457769394,-0.01793225109577179,0.20418955385684967
1772459190760027000,1.37202685546875,0.016000809147953987,0.012668551877140999,0.29369425773620605
1772459190770024000,1.38202392578125,0.0585717037320137,0.0570748969912529,0.37489643692970276
1772459190780021000,1.39202099609375,0.08429709076881409,0.07573655247688293,0.4371270537376404
1772459190790016800,1.402016845703125,0.09343785792589188,0.06548897176980972,0.46853744983673096
1772459190800014000,1.41201416015625,0.0922345370054245,0.03154574707150459,0.4725811779499054
1772459190810011000,1.422010986328125,0.08148016035556793,-0.0050101326778531075,0.47422167658805847
1772459190820007000,1.4320068359375,0.07105392962694168,-0.012845654971897602,0.4785987436771393
1772459190830004000,1.44200390625,0.05604302138090134,0.004859305918216705,0.5049453973770142
1772459190840000800,1.452000732421875,0.052920449525117874,0.02169867977499962,0.5436052083969116
1772459190849996800,1.461996826171875,0.06523836404085159,0.02123289369046688,0.5929112434387207
1772459190859993900,1.471993896484375,0.09444932639598846,0.012998869642615318,0.6585255265235901
1772459190869991000,1.481990966796875,0.1382809579372406,-0.004045361187309027,0.7361116409301758
1772459190879987000,1.491987060546875,0.18069888651371002,0.01612493023276329,0.8237124681472778
1772459190889984000,1.50198388671875,0.2148595154285431,0.12313074618577957,0.9036304950714111
1772459190899981000,1.51198095703125,0.23542581498622894,0.28134700655937195,0.9416471123695374
1772459190909977900,1.521977783203125,0.2543867230415344,0.4027472138404846,0.9301537275314331
1772459190919974000,1.531973876953125,0.28330814838409424,0.45453932881355286,0.8606603145599365
1772459190929971000,1.541970947265625,0.2950785458087921,0.42301976680755615,0.7533591985702515
1772459190939967700,1.5519677734375,0.3041326105594635,0.35885709524154663,0.6404845714569092
1772459190949963800,1.5619638671875,0.28457915782928467,0.2811122238636017,0.5529294013977051
1772459190959960800,1.5719609375,0.23900237679481506,0.16297602653503418,0.534248411655426
1772459190969958000,1.5819580078125,0.21270392835140228,0.00416586734354496,0.5854982733726501
1772459190979954000,1.591953857421875,0.20131903886795044,-0.20602062344551086,0.6607053279876709
1772459190989951000,1.601950927734375,0.15659230947494507,-0.508878231048584,0.6164550185203552
1772459190999947800,1.61194775390625,0.024991996586322784,-0.8282384276390076,0.37653443217277527
1772459191009944000,1.621944091796875,-0.1528826653957367,-1.1196712255477905,-0.028630642220377922
1772459191019940900,1.63194091796875,-0.31343820691108704,-1.219789743423462,-0.4150140583515167
1772459191029938000,1.64193798828125,-0.42149674892425537,-0.9626373052597046,-0.5900548100471497
1772459191039935000,1.65193505859375,-0.42716625332832336,-0.38782998919487,-0.5475286245346069
1772459191049930800,1.6619306640625,-0.27064746618270874,0.31741607189178467,-0.37677398324012756
1772459191059928000,1.671927978515625,0.040674179792404175,0.9391992688179016,-0.1428777426481247
1772459191069924900,1.6819248046875,0.3668472170829773,1.3104887008666992,0.05923141911625862
1772459191079921000,1.6919208984375,0.5433885455131531,1.2660359144210815,0.20264704525470734
1772459191089918000,1.70191796875,0.5020354986190796,0.873420000076294,0.30069583654403687
1772459191099914800,1.711914794921875,0.23153899610042572,0.3697931468486786,0.3632752001285553
1772459191109911000,1.7219111328125,-0.18711870908737183,-0.1426680088043213,0.3786397874355316
1772459191119907800,1.731907958984375,-0.5842111706733704,-0.5718937516212463,0.2890077829360962
1772459191129905000,1.74190478515625,-0.9132934808731079,-0.7283912301063538,0.0645672157406807
1772459191139902000,1.75190185546875,-1.174343228340149,-0.6028439998626709,-0.3075770437717438
1772459191149897700,1.761897705078125,-1.335475206375122,-0.3180237114429474,-0.7414355874061584
1772459191159895000,1.77189501953125,-1.397323727607727,0.02084425278007984,-1.1398077011108398
1772459191169891800,1.781891845703125,-1.3392359018325806,0.36872154474258423,-1.403338074684143
1772459191179888000,1.79188818359375,-1.1208295822143555,0.6677303314208984,-1.478574275970459
1772459191189885000,1.801885009765625,-0.8480422496795654,0.9251549243927002,-1.4200410842895508
1772459191199881700,1.8118818359375,-0.6052245497703552,1.1454658508300781,-1.2754509449005127
1772459191209878000,1.8218779296875,-0.41083773970603943,1.2770649194717407,-1.0425924062728882
1772459191219874800,1.831874755859375,-0.2803472578525543,1.2668722867965698,-0.7365307211875916
1772459191229871900,1.841871826171875,-0.19629362225532532,1.1024601459503174,-0.3364187180995941
1772459191239868000,1.851867919921875,-0.13083869218826294,0.7734675407409668,0.1498132348060608
1772459191249864700,1.86186474609375,-0.09103161841630936,0.29934820532798767,0.6472528576850891
1772459191259862000,1.871862060546875,-0.05055792257189751,-0.24233856797218323,1.0660420656204224
1772459191269858800,1.88185888671875,-0.007306854240596294,-0.7439976930618286,1.358134388923645
1772459191279855000,1.891855224609375,0.041258443146944046,-1.0433059930801392,1.5013715028762817
1772459191289852000,1.901851806640625,0.08896631002426147,-1.1264184713363647,1.4889475107192993
1772459191299848700,1.9118486328125,0.10940232872962952,-1.0594435930252075,1.3722620010375977
1772459191309845000,1.921844970703125,0.09792649745941162,-0.8698669672012329,1.2189958095550537
1772459191319841800,1.931841796875,0.05792677402496338,-0.6495369672775269,1.0813634395599365
1772459191329839000,1.941839111328125,0.003938375040888786,-0.4446493089199066,0.9745120406150818
1772459191339836000,1.9518359375,-0.008624213747680187,-0.3249834179878235,0.9095861911773682
1772459191349832000,1.96183203125,-0.04789039492607117,-0.1923217922449112,0.9181261658668518
1772459191359829000,1.9718291015625,-0.03579052537679672,-0.22001756727695465,0.9985243082046509
1772459191369825800,1.98182568359375,-0.01574091613292694,-0.29354211688041687,1.0780441761016846
1772459191379822000,1.991822021484375,0.013844585977494717,-0.33631980419158936,1.1276503801345825
1772459191389819000,2.00181884765625,0.03983038291335106,-0.384656697511673,1.164732813835144
1772459191399815700,2.011815673828125,0.050046417862176895,-0.4577488899230957,1.2193934917449951
1772459191409812000,2.02181201171875,0.07046859711408615,-0.5663757920265198,1.3137705326080322
1772459191419808800,2.031808837890625,0.14078882336616516,-0.6042647361755371,1.4573416709899902
1772459191429806000,2.04180615234375,0.2735995948314667,-0.3641917109489441,1.5726823806762695
1772459191439803000,2.051802978515625,0.44949132204055786,-0.17970019578933716,1.502819538116455
1772459191449799000,2.061798828125,0.6595961451530457,0.08570138365030289,1.2469340562820435
1772459191459796000,2.0717958984375,0.9061040878295898,0.2251744568347931,0.8310254216194153
1772459191469792800,2.081792724609375,1.1194602251052856,0.14902722835540771,0.33576780557632446
1772459191479789000,2.0917890625,1.1322119235992432,0.018823763355612755,-0.2144579291343689
1772459191489782500,2.101782470703125,0.9407904148101807,-0.018469812348484993,-0.9439443349838257
1772459191499779600,2.111779541015625,0.6607896089553833,0.7391944527626038,-1.5439159870147705
1772459191509775600,2.121775634765625,0.38229966163635254,2.1003572940826416,-1.4999088048934937
1772459191519772700,2.131772705078125,0.34456366300582886,3.3722591400146484,-0.7368187308311462
1772459191529769700,2.141769775390625,0.6062093377113342,3.7078959941864014,0.14135463535785675
1772459191539766500,2.1517666015625,0.7993598580360413,3.079820156097412,0.8045070171356201
1772459191549762800,2.1617626953125,0.767845094203949,1.9802790880203247,1.1630555391311646
1772459191559759600,2.171759521484375,0.49535566568374634,0.9463493227958679,1.1477288007736206
1772459191569756700,2.181756591796875,0.03711991757154465,0.31955814361572266,0.8879014849662781
1772459191579752700,2.191752685546875,-0.42270511388778687,0.044315826147794724,0.5505791306495667
1772459191589749500,2.20174951171875,-0.8200067281723022,0.20563867688179016,0.21891123056411743
1772459191599746800,2.211746826171875,-1.1669901609420776,0.7779135704040527,-0.1376972645521164
1772459191609743600,2.22174365234375,-1.4578486680984497,1.399170160293579,-0.4688571095466614
1772459191619739600,2.23173974609375,-1.6158853769302368,1.7099801301956177,-0.6942420601844788
1772459191629736700,2.24173681640625,-1.6263095140457153,1.5628540515899658,-0.7658366560935974
1772459191639733500,2.2517333984375,-1.5475149154663086,1.0119889974594116,-0.6737361550331116
1772459191649729800,2.261729736328125,-1.4617549180984497,0.1988375186920166,-0.5092774629592896
1772459191659726600,2.2717265625,-1.454594612121582,-0.6548019051551819,-0.37896862626075745
1772459191669723600,2.2817236328125,-1.481821894645691,-1.2718967199325562,-0.23674306273460388
1772459191679720700,2.291720703125,-1.4619596004486084,-1.504235863685608,0.029734306037425995
1772459191689716500,2.301716552734375,-1.36771821975708,-1.4140582084655762,0.4457871615886688
1772459191699713800,2.3117138671875,-1.1867730617523193,-1.1666678190231323,0.8942024111747742
1772459191709710600,2.321710693359375,-0.9549625515937805,-0.9412621259689331,1.2409963607788086
1772459191719706600,2.33170654296875,-0.7335934638977051,-0.8257356882095337,1.4524728059768677
1772459191729703700,2.34170361328125,-0.5211898684501648,-0.846636950969696,1.5169575214385986
1772459191739700500,2.351700439453125,-0.3416511118412018,-0.9541154503822327,1.4224299192428589
1772459191749697800,2.36169775390625,-0.218570739030838,-1.0521607398986816,1.217970848083496
1772459191759693600,2.371693603515625,-0.18736660480499268,-1.0784189701080322,0.9741390347480774
1772459191769691000,2.38169091796875,-0.22322314977645874,-1.0025029182434082,0.7991757392883301
1772459191779687700,2.391687744140625,-0.26475024223327637,-0.8698403239250183,0.7660000920295715
1772459191789683500,2.401683349609375,-0.27176180481910706,-0.6978813409805298,0.8696441650390625
1772459191799680800,2.4116806640625,-0.24365665018558502,-0.5162105560302734,1.0825508832931519
1772459191809677600,2.421677490234375,-0.18509133160114288,-0.3922736644744873,1.3177053928375244
1772459191819674600,2.431674560546875,-0.08389175683259964,-0.33441969752311707,1.5157688856124878
1772459191829670700,2.441670654296875,0.0055302721448242664,-0.3225933909416199,1.6089504957199097
1772459191839667500,2.45166748046875,0.03445884585380554,-0.3286683261394501,1.5680832862854004
1772459191849664800,2.461664794921875,-0.02398156188428402,-0.30715104937553406,1.4044901132583618
1772459191859660500,2.47166064453125,-0.13399896025657654,-0.24801099300384521,1.1513700485229492
1772459191869657900,2.481657958984375,-0.24866962432861328,-0.10911248624324799,0.8919160962104797
1772459191879654700,2.491654541015625,-0.293546199798584,0.10099223256111145,0.7062476277351379
1772459191889651500,2.5016513671875,-0.2039121836423874,0.16870257258415222,0.6030615568161011
1772459191899647700,2.511647705078125,-0.02188888192176819,0.21068879961967468,0.49166440963745117
1772459191909644500,2.52164453125,0.20602896809577942,0.2847374379634857,0.28515705466270447
1772459191919641900,2.531641845703125,0.4347183108329773,0.2644629180431366,0.015608750283718109
1772459191929637600,2.5416376953125,0.5869584679603577,0.10713133215904236,-0.18639147281646729
1772459191939634700,2.551634765625,0.4991406500339508,-0.30488529801368713,-0.4814941883087158
1772459191949631700,2.5616318359375,0.20545098185539246,-0.7105126976966858,-1.0504460334777832
1772459191959628500,2.571628662109375,0.011249501258134842,-0.6153128743171692,-1.752525806427002
1772459191969624800,2.581624755859375,-0.12277088314294815,-0.1451123207807541,-2.0947861671447754
1772459191979621600,2.59162158203125,-0.10961828380823135,0.7857888340950012,-1.6527469158172607
1772459191989618400,2.601618408203125,0.2027667760848999,1.8739804029464722,-0.7589280009269714
1772459191999615700,2.61161572265625,0.6627982258796692,2.5013599395751953,0.13643209636211395
1772459192009611500,2.621611572265625,0.9656598567962646,2.6048221588134766,0.6457257270812988
1772459192019608800,2.63160888671875,1.0396490097045898,2.2687273025512695,0.693722128868103
1772459192029605600,2.641605712890625,0.9334365129470825,1.8781436681747437,0.5341455340385437
1772459192039601700,2.6516015625,0.5522253513336182,1.5432276725769043,0.2525807321071625
1772459192049598700,2.6615986328125,-0.03940625116229057,1.2679494619369507,-0.00838563684374094
1772459192059595500,2.671595458984375,-0.6325220465660095,1.0673824548721313,-0.1814235895872116
1772459192069592800,2.6815927734375,-1.0522493124008179,0.8077881336212158,-0.2813318073749542
1772459192079588600,2.691588623046875,-1.2747713327407837,0.427925169467926,-0.3377804458141327
1772459192089585700,2.701585693359375,-1.2943089008331299,0.04770113155245781,-0.2884480655193329
1772459192099582700,2.711582763671875,-1.118191123008728,-0.2540662884712219,-0.13947376608848572
1772459192109579500,2.72157958984375,-0.8566961884498596,-0.4106343388557434,0.09206093102693558
1772459192119575800,2.731575927734375,-0.6271761059761047,-0.4374699294567108,0.37692856788635254
1772459192129572600,2.741572509765625,-0.48304158449172974,-0.4109927713871002,0.7000339031219482
1772459192139569700,2.751569580078125,-0.4087747037410736,-0.38185474276542664,1.025523066520691
1772459192149565700,2.761565673828125,-0.4038824737071991,-0.38949403166770935,1.3016606569290161
1772459192159562500,2.7715625,-0.44654610753059387,-0.4487525522708893,1.463845133781433
1772459192169559800,2.781559814453125,-0.4948425590991974,-0.5430050492286682,1.4728785753250122
1772459192179556600,2.791556640625,-0.5315288305282593,-0.690001904964447,1.308763027191162
1772459192189552600,2.801552734375,-0.5356450080871582,-0.8765478134155273,0.9993594288825989
1772459192199549700,2.8115498046875,-0.5111715793609619,-1.0244991779327393,0.6175389289855957
1772459192209546500,2.82154638671875,-0.4185631275177002,-1.0732007026672363,0.28256088495254517
1772459192219543800,2.831543701171875,-0.29677093029022217,-1.044234037399292,0.08939827978610992
1772459192229539600,2.84153955078125,-0.1928839385509491,-0.9351964592933655,0.10767155885696411
1772459192239536600,2.85153662109375,-0.09546620398759842,-0.7957582473754883,0.2815800905227661
1772459192249533700,2.86153369140625,-0.018840935081243515,-0.6544085741043091,0.5544702410697937
1772459192259529500,2.871529541015625,0.03858768939971924,-0.5403596758842468,0.8684793710708618
1772459192269526800,2.88152685546875,0.08595973998308182,-0.48854175209999084,1.1348305940628052
1772459192279523600,2.891523681640625,0.09465024620294571,-0.5220996737480164,1.2907016277313232
1772459192289520600,2.901520751953125,0.06279484182596207,-0.601851224899292,1.3306957483291626
1772459192299516700,2.9115166015625,0.022807903587818146,-0.7147818207740784,1.2573946714401245
1772459192309513500,2.921513427734375,-0.0640508309006691,-0.8043791055679321,1.0414631366729736
1772459192319510800,2.9315107421875,-0.12682895362377167,-0.7899922132492065,0.7229748368263245
1772459192329507600,2.941507568359375,-0.10348580032587051,-0.5930341482162476,0.4011182188987732
1772459192339503900,2.95150390625,-0.043688226491212845,-0.19792571663856506,0.18334247171878815
1772459192349500700,2.961500732421875,0.051862798631191254,0.2790493667125702,0.03940314054489136
1772459192359497500,2.97149755859375,0.13505728542804718,0.6742568016052246,-0.08118513226509094
1772459192369494800,2.981494873046875,0.17714880406856537,0.9225771427154541,-0.22807897627353668
1772459192379490600,2.991490478515625,0.24624475836753845,1.0893687009811401,-0.4715219736099243
1772459192389487600,3.001487548828125,0.3420570492744446,1.0881855487823486,-0.9564468264579773
1772459192399484700,3.011484619140625,0.37130481004714966,0.7031719088554382,-1.6663262844085693
1772459192409480400,3.02148046875,0.3150236904621124,0.24621689319610596,-2.389457941055298
1772459192419477800,3.031477783203125,0.236986443400383,0.26063382625579834,-2.9643445014953613
1772459192429474600,3.041474609375,0.10513360798358917,0.5740732550621033,-3.143798828125
1772459192439471600,3.0514716796875,0.20363716781139374,1.0566390752792358,-2.726475954055786
1772459192449467600,3.061467529296875,0.5153982043266296,1.4199914932250977,-1.9802658557891846
1772459192459464400,3.07146435546875,0.7210723757743835,1.3921808004379272,-1.227208137512207
1772459192469461800,3.081461669921875,0.8353792428970337,1.1522613763809204,-0.6592169404029846
1772459192479458600,3.09145849609375,0.9375749826431274,0.7747110724449158,-0.32247114181518555
1772459192489454800,3.101454833984375,0.9286195635795593,0.3625916540622711,-0.24422933161258698
1772459192499452400,3.111452392578125,0.5511365532875061,0.11632536351680756,-0.4224724769592285
1772459192509449200,3.12144921875,-0.1463404893875122,-0.01049542985856533,-0.8125531673431396
1772459192519446300,3.1314462890625,-0.7899971008300781,-0.08670405298471451,-1.2843600511550903
1772459192529442300,3.1414423828125,-1.1141462326049805,-0.037104278802871704,-1.605453372001648
1772459192539439000,3.151439208984375,-1.1289653778076172,0.03289097175002098,-1.6775192022323608
1772459192549436400,3.1614365234375,-0.9648182392120361,0.12365683913230896,-1.4682048559188843
1772459192559432200,3.17143212890625,-0.7160398960113525,0.15801042318344116,-0.9362736344337463
1772459192569429500,3.181429443359375,-0.46863144636154175,0.06490923464298248,-0.14623460173606873
1772459192579426300,3.19142626953125,-0.2853472828865051,-0.1107703149318695,0.7227838635444641
1772459192589423000,3.201423095703125,-0.15718238055706024,-0.2404145896434784,1.5292526483535767
1772459192599419400,3.21141943359375,-0.09668362885713577,-0.2545231282711029,2.126863479614258
1772459192609416200,3.221416259765625,-0.14914259314537048,-0.2537175416946411,2.408798933029175
1772459192619413200,3.231413330078125,-0.31347063183784485,-0.3206825852394104,2.3951871395111084
1772459192629410300,3.241410400390625,-0.45710477232933044,-0.4647262990474701,2.192378520965576
1772459192639406000,3.251406005859375,-0.4774891436100006,-0.625832200050354,1.8298258781433105
1772459192649403400,3.2614033203125,-0.3516923487186432,-0.8222752213478088,1.2868001461029053
1772459192659400200,3.271400146484375,-0.15611626207828522,-0.9921022057533264,0.716355562210083
1772459192669397200,3.281397216796875,0.03750966116786003,-1.1192772388458252,0.3070510923862457
1772459192679393300,3.291393310546875,0.16367009282112122,-1.1957142353057861,0.13252362608909607
1772459192689390000,3.30139013671875,0.23547318577766418,-1.211402177810669,0.15413038432598114
1772459192699387400,3.311387451171875,0.2395702302455902,-1.158165454864502,0.32979217171669006
1772459192709384200,3.32138427734375,0.20890073478221893,-0.9888092279434204,0.6405293345451355
1772459192719380500,3.33138037109375,0.17494454979896545,-0.7661958932876587,0.9951471090316772
1772459192729377300,3.341377197265625,0.15901991724967957,-0.5811578631401062,1.3214056491851807
1772459192739374000,3.3513740234375,0.16577620804309845,-0.4642552435398102,1.5669853687286377
1772459192749371400,3.361371337890625,0.1791847050189972,-0.41457369923591614,1.729549527168274
1772459192759367200,3.3713671875,0.17869305610656738,-0.3761243522167206,1.775412917137146
1772459192769364500,3.381364501953125,0.16874375939369202,-0.29195675253868103,1.6517130136489868
1772459192779361300,3.391361328125,0.13859419524669647,-0.1191609725356102,1.343282699584961
1772459192789358300,3.4013583984375,0.176751971244812,0.11852535605430603,0.9207000136375427
1772459192799354400,3.411354248046875,0.23951777815818787,0.3642423152923584,0.43670111894607544
1772459192809351200,3.42135107421875,0.27315589785575867,0.5910384654998779,-0.08142432570457458
1772459192819348200,3.43134814453125,0.3163750469684601,0.7514333724975586,-0.5231099724769592
1772459192829345300,3.44134521484375,0.37570253014564514,0.8348188400268555,-0.7843450307846069
1772459192839341000,3.451341064453125,0.4665299654006958,0.9516550302505493,-0.8350136876106262
1772459192849338400,3.46133837890625,0.6379520893096924,1.1129873991012573,-0.7825267910957336
1772459192859335200,3.471335205078125,0.807589054107666,1.058758020401001,-0.8850630521774292
1772459192869332200,3.481332275390625,0.714860737323761,0.5332643985748291,-1.296375036239624
1772459192879328300,3.491328369140625,0.3777003586292267,-0.16020962595939636,-1.7166152000427246
1772459192889325300,3.5013251953125,0.009007834829390049,-0.4132820963859558,-1.810241460800171
1772459192899322400,3.511322265625,-0.3619997501373291,-0.20074951648712158,-1.6106929779052734
1772459192909319200,3.521319091796875,-0.48049283027648926,0.27021321654319763,-1.2241530418395996
1772459192919315500,3.5313154296875,-0.19612960517406464,0.7501348853111267,-0.6878522038459778
1772459192929312300,3.541312255859375,0.16815169155597687,0.9884244203567505,-0.2106882780790329
1772459192939309300,3.551309326171875,0.4094087481498718,1.0886019468307495,0.0929025411605835
1772459192949306400,3.561306396484375,0.5599029064178467,0.941385805606842,0.1901974081993103
1772459192959302100,3.57130224609375,0.6234914064407349,0.5828521847724915,0.0685725286602974
1772459192969299200,3.58129931640625,0.5748423933982849,0.18005335330963135,-0.1377452313899994
1772459192979296300,3.591296142578125,0.35484474897384644,0.0021694479510188103,-0.3034326136112213
1772459192989293300,3.601293212890625,-0.08735795319080353,-0.09246065467596054,-0.47967982292175293
1772459192999289300,3.611289306640625,-0.5737826824188232,-0.26022788882255554,-0.7524904608726501
1772459193009286100,3.6212861328125,-0.8937151432037354,-0.36071106791496277,-1.129233956336975
1772459193019283200,3.631283203125,-0.9659465551376343,-0.32587993144989014,-1.5784929990768433
1772459193029280300,3.6412802734375,-0.7765899300575256,-0.21513476967811584,-1.9843326807022095
1772459193039276300,3.6512763671875,-0.451900839805603,-0.03186941146850586,-2.178377628326416
1772459193049273300,3.6612734375,-0.13680042326450348,0.1247156634926796,-1.9934114217758179
1772459193059270400,3.6712705078125,0.10151378810405731,0.195674866437912,-1.4118831157684326
1772459193069267200,3.68126708984375,0.2480214685201645,0.2022709846496582,-0.5942721366882324
1772459193079263200,3.69126318359375,0.33180463314056396,0.13566020131111145,0.2525511085987091
1772459193089260300,3.70126025390625,0.34181997179985046,-0.0043214065954089165,0.9894285798072815
1772459193099257300,3.71125732421875,0.3043052852153778,-0.1981513351202011,1.5272170305252075
1772459193109254400,3.72125439453125,0.2163543999195099,-0.439439058303833,1.8273707628250122
1772459193119250200,3.731250244140625,0.08979698270559311,-0.6288830041885376,1.8841246366500854
1772459193129247200,3.741247314453125,-0.052583590149879456,-0.7355071902275085,1.7341326475143433
1772459193139244300,3.751244384765625,-0.17928025126457214,-0.7925507426261902,1.429347038269043
1772459193149241000,3.761240966796875,-0.2759830951690674,-0.8036134839057922,1.0553356409072876
1772459193159237400,3.7712373046875,-0.3590525686740875,-0.7408846020698547,0.7271261215209961
1772459193169234200,3.781234130859375,-0.4188312292098999,-0.6250858306884766,0.5335883498191833
1772459193179231200,3.791231201171875,-0.4588594436645508,-0.4936787188053131,0.5058844685554504
1772459193189228300,3.801228271484375,-0.47832024097442627,-0.36134812235832214,0.5956002473831177
1772459193199224300,3.811224365234375,-0.4960026144981384,-0.21585702896118164,0.7435311079025269
1772459193209221400,3.821221435546875,-0.49776986241340637,-0.08563217520713806,0.900216817855835
1772459193219218200,3.83121826171875,-0.4976750314235687,-0.0041090864688158035,1.0277976989746094
1772459193229215500,3.841215576171875,-0.5258669853210449,0.027056289836764336,1.123842477798462
1772459193239211300,3.851211181640625,-0.5906843543052673,0.0358455628156662,1.1896332502365112
1772459193249208300,3.861208251953125,-0.6496379971504211,-0.009189287200570107,1.218185544013977
1772459193259205400,3.871205322265625,-0.6583545207977295,-0.08515427261590958,1.20610773563385
1772459193269202200,3.8812021484375,-0.6410037875175476,-0.14387084543704987,1.1220895051956177
1772459193279199500,3.891199462890625,-0.5797855257987976,-0.10335071384906769,0.9776026010513306
1772459193289195300,3.9011953125,-0.4412603974342346,0.004588534124195576,0.8098772764205933
1772459193299192000,3.911192138671875,-0.22975119948387146,0.013116042129695415,0.6440756916999817
1772459193309189400,3.921189453125,-0.01877637952566147,-0.08924468606710434,0.4777061641216278
1772459193319186200,3.931186279296875,0.11234384775161743,-0.0579676553606987,0.3347399830818176
1772459193329182500,3.941182373046875,0.21423159539699554,0.2887250781059265,0.1060388833284378
1772459193339179300,3.95117919921875,0.2915029525756836,0.6756453514099121,-0.4205341339111328
1772459193349176000,3.961176025390625,0.28698596358299255,0.7215332388877869,-1.226486325263977
1772459193359173400,3.97117333984375,0.2337723821401596,0.6965628266334534,-2.152292490005493
1772459193369169200,3.981169189453125,0.026749413460493088,0.8139563202857971,-2.9228594303131104
1772459193379166500,3.99116650390625,-0.2186720222234726,1.1717889308929443,-3.2188210487365723
1772459193389163300,4.001163330078125,-0.12594714760780334,1.6924078464508057,-3.0759546756744385
1772459193399160300,4.011160400390625,0.22105158865451813,2.0537304878234863,-2.5266921520233154
1772459193409156400,4.02115625,0.613837718963623,2.177623748779297,-1.7409394979476929
1772459193419153200,4.031153076171875,0.8672767281532288,2.0448107719421387,-1.02634859085083
1772459193429150500,4.041150390625,1.017413854598999,1.5895843505859375,-0.5534445643424988
1772459193439147300,4.051147216796875,1.0492467880249023,1.0247979164123535,-0.27437150478363037
1772459193449144300,4.061144287109375,1.0030230283737183,0.4376283884048462,-0.05124896019697189
1772459193459140400,4.071140380859375,0.8994632959365845,-0.09375182539224625,0.16639846563339233
1772459193469137200,4.08113720703125,0.701653242111206,-0.5186546444892883,0.31177377700805664
1772459193479134200,4.09113427734375,0.4721944034099579,-0.7583033442497253,0.2627044916152954
1772459193489131300,4.10113134765625,0.3664639890193939,-0.6216509342193604,-0.11059773713350296
1772459193499130400,4.11113037109375,0.4003294110298157,-0.3117179274559021,-0.9095343351364136
1772459193509127400,4.12112744140625,0.48205381631851196,-0.034863151609897614,-1.8016109466552734
1772459193519124200,4.131124267578125,0.622178316116333,0.1662450134754181,-2.300933599472046
1772459193529121300,4.141121337890625,0.7482315897941589,0.33376583456993103,-2.2490572929382324
1772459193539117300,4.151117431640625,0.833896279335022,0.445320188999176,-1.7550008296966553
1772459193549114000,4.161114013671875,0.8381929993629456,0.4949108958244324,-1.0247876644134521
1772459193559111400,4.171111328125,0.7401944398880005,0.4288633167743683,-0.2722289562225342
1772459193569108200,4.181108154296875,0.5534104704856873,0.26013660430908203,0.36542901396751404
1772459193579105300,4.191105224609375,0.33460038900375366,0.036274153739213943,0.8101839423179626
1772459193589101300,4.201101318359375,0.10734487324953079,-0.18680180609226227,1.05995512008667
1772459193599098000,4.21109814453125,-0.09020807594060898,-0.3707059323787689,1.1295974254608154
1772459193609095400,4.221095458984375,-0.22119006514549255,-0.4825618863105774,1.0428516864776611
1772459193619092200,4.23109228515625,-0.28100302815437317,-0.5108058452606201,0.8521084785461426
1772459193629088500,4.241088623046875,-0.268992155790329,-0.45720013976097107,0.6252779960632324
1772459193639085300,4.251085205078125,-0.22234316170215607,-0.37302058935165405,0.43383076786994934
1772459193649082400,4.261082275390625,-0.18655559420585632,-0.2536308169364929,0.3017451763153076
1772459193659079400,4.271079345703125,-0.1686358004808426,-0.07224962115287781,0.2801101803779602
1772459193669075200,4.2810751953125,-0.1541799008846283,0.0999370589852333,0.3561495542526245
1772459193679072300,4.291072265625,-0.15319733321666718,0.2226228564977646,0.4986039102077484
1772459193689069300,4.3010693359375,-0.16357406973838806,0.2831903398036957,0.6737964749336243
1772459193699066400,4.31106640625,-0.17203950881958008,0.2919447720050812,0.8386070728302002
1772459193709063200,4.321063232421875,-0.18412946164608002,0.24342411756515503,0.9491117596626282
1772459193719059200,4.33105908203125,-0.20746546983718872,0.12478291243314743,1.0034056901931763
1772459193729056300,4.34105615234375,-0.23850302398204803,-0.028855912387371063,0.9887040257453918
1772459193739053300,4.35105322265625,-0.23906537890434265,-0.15825152397155762,0.9368105530738831
1772459193749050400,4.36105029296875,-0.17978526651859283,-0.17677034437656403,0.8329296708106995
1772459193759046400,4.37104638671875,-0.10533435642719269,-0.1196243166923523,0.7191166281700134
1772459193769043200,4.381043212890625,-0.01905885338783264,-0.020083878189325333,0.5966796875
1772459193779040300,4.391040283203125,0.12376733124256134,0.1542971283197403,0.40504616498947144
1772459193789037300,4.401037353515625,0.2644972801208496,0.3576512932777405,0.05931698530912399
1772459193799034400,4.411034423828125,0.3670448958873749,0.5032387971878052,-0.3619222044944763
1772459193809030400,4.421030517578125,0.5479419231414795,0.57872074842453,-0.6944785714149475
1772459193819027500,4.43102734375,0.8455986380577087,0.4953609108924866,-0.9665625095367432
1772459193829024300,4.441024169921875,1.0971823930740356,0.11741439253091812,-1.3911068439483643
1772459193839021300,4.451021240234375,1.2380034923553467,-0.11838274449110031,-1.9796388149261475
1772459193849017300,4.461017333984375,1.0934364795684814,-0.08109848946332932,-2.5233893394470215
1772459193859014400,4.471014404296875,0.6920515298843384,-0.05225614085793495,-2.9091734886169434
1772459193869011500,4.481011474609375,0.5640110373497009,0.23932617902755737,-2.988644599914551
1772459193879008300,4.49100830078125,0.775825560092926,0.7545452117919922,-2.6609177589416504
1772459193889005300,4.50100537109375,1.006196141242981,1.4297782182693481,-1.8686885833740234
1772459193899001300,4.51100146484375,1.163508415222168,1.858431339263916,-0.9136762619018555
1772459193908998100,4.520998046875,1.2104605436325073,1.742172122001648,-0.11394310742616653
1772459193918995500,4.530995361328125,1.1806437969207764,1.2663307189941406,0.49571871757507324
1772459193928992300,4.5409921875,1.098179578781128,0.7349086403846741,1.0383702516555786
1772459193938988300,4.55098828125,0.8763436675071716,0.2887340784072876,1.5166207551956177
1772459193948985300,4.5609853515625,0.5428961515426636,-0.03161384165287018,1.869687557220459
1772459193958982100,4.570982177734375,0.1884596347808838,-0.22516314685344696,2.0345640182495117
1772459193968979500,4.5809794921875,-0.1642637997865677,-0.44296175241470337,1.999829888343811
1772459193978976300,4.590976318359375,-0.47009211778640747,-0.7301709651947021,1.763882040977478
1772459193988972500,4.60097265625,-0.6718716025352478,-1.041011095046997,1.3629028797149658
1772459193998969300,4.61096923828125,-0.7181603908538818,-1.239424705505371,0.9177155494689941
1772459194008966100,4.620966064453125,-0.5865674614906311,-1.1643574237823486,0.5559674501419067
1772459194018963500,4.63096337890625,-0.34582453966140747,-0.8212981820106506,0.3524850308895111
1772459194028959200,4.640959228515625,-0.07764343917369843,-0.32761600613594055,0.3378312587738037
1772459194038956300,4.650956298828125,0.18247286975383759,0.17186272144317627,0.5186421871185303
1772459194048953300,4.660953369140625,0.3807585537433624,0.5638174414634705,0.802122950553894
1772459194058950400,4.670950439453125,0.4620523452758789,0.8077806234359741,1.0501329898834229
1772459194068947200,4.680947265625,0.42786216735839844,0.8401257395744324,1.1869664192199707
1772459194078943200,4.690943115234375,0.30652135610580444,0.6762984395027161,1.2172480821609497
1772459194088940300,4.700940185546875,0.11973896622657776,0.3731047213077545,1.1522459983825684
1772459194098937300,4.710937255859375,-0.0910949558019638,-0.033215880393981934,0.9936056733131409
1772459194108934400,4.720934326171875,-0.29243022203445435,-0.4648120403289795,0.7637807726860046
1772459194118931200,4.73093115234375,-0.45331713557243347,-0.7892033457756042,0.5088244080543518
1772459194128927200,4.74092724609375,-0.5776265859603882,-0.9531072974205017,0.2896111309528351
1772459194138924300,4.75092431640625,-0.6466072797775269,-0.958631694316864,0.18202483654022217
1772459194148921300,4.76092138671875,-0.6661328077316284,-0.8628152012825012,0.21127113699913025
1772459194158918400,4.77091845703125,-0.6515698432922363,-0.7299181818962097,0.3539588749408722
1772459194168914400,4.78091455078125,-0.6072676181793213,-0.6213858127593994,0.5643430352210999
1772459194178911200,4.7909111328125,-0.5571470856666565,-0.5626805424690247,0.7882445454597473
1772459194188908300,4.800908203125,-0.49500247836112976,-0.543154776096344,0.9921175241470337
1772459194198905300,4.8109052734375,-0.4256189465522766,-0.5434513092041016,1.1475112438201904
1772459194208902400,4.82090234375,-0.3611763119697571,-0.5305829048156738,1.2326033115386963
1772459194218898200,4.830898193359375,-0.29964035749435425,-0.49930059909820557,1.2292147874832153
1772459194228895500,4.8408955078125,-0.22613151371479034,-0.43306779861450195,1.1498867273330688
1772459194238892300,4.850892333984375,-0.14751125872135162,-0.34230318665504456,1.015110731124878
1772459194248889000,4.86088916015625,-0.0755462571978569,-0.2737811207771301,0.880681037902832
1772459194258886400,4.870886474609375,0.04678213223814964,-0.19772352278232574,0.790234386920929
1772459194268882200,4.880882080078125,0.24341875314712524,-0.17714981734752655,0.7108277082443237
1772459194278879500,4.89087939453125,0.5289297699928284,-0.22405169904232025,0.6168221831321716
1772459194288876300,4.900876220703125,1.014662742614746,-0.14833083748817444,0.4557691812515259
1772459194298873300,4.910873291015625,1.5460102558135986,-0.13753828406333923,0.08909613639116287
1772459194308870400,4.920870361328125,1.6473091840744019,-0.557045578956604,-0.5270839929580688
1772459194318866200,4.9308662109375,1.3426214456558228,-1.2465035915374756,-1.220963478088379
1772459194328863500,4.940863525390625,0.900883674621582,-1.630191683769226,-1.7982014417648315
1772459194338860300,4.9508603515625,0.20152656733989716,-1.3912912607192993,-2.121896266937256
1772459194348857300,4.960857421875,-0.2903382480144501,-0.5107789635658264,-2.2346701622009277
1772459194358853400,4.970853271484375,-0.12663550674915314,0.5930598974227905,-2.1710610389709473
1772459194368850200,4.98085009765625,0.39553341269493103,1.4941189289093018,-1.9338245391845703
1772459194378847500,4.990847412109375,0.7902583479881287,1.9721531867980957,-1.638092279434204
1772459194388844300,5.00084423828125,0.9148004055023193,1.9333107471466064,-1.4313760995864868
1772459194398841300,5.01084130859375,0.8546287417411804,1.475774884223938,-1.353153109550476
1772459194408837400,5.02083740234375,0.6953080892562866,0.7963547706604004,-1.3414572477340698
1772459194418834200,5.030834228515625,0.5045126080513,0.18707938492298126,-1.3115644454956055
1772459194428831200,5.040831298828125,0.3732589781284332,-0.1365458220243454,-1.2586580514907837
1772459194438828300,5.050828369140625,0.30882322788238525,-0.17805993556976318,-1.2468911409378052
1772459194448825300,5.060825439453125,0.23802632093429565,0.012029847130179405,-1.3466049432754517
1772459194458821400,5.0708212890625,0.17470009624958038,0.3691469728946686,-1.5041648149490356
1772459194468818400,5.080818359375,0.15655863285064697,0.8096420168876648,-1.6282297372817993
1772459194478815200,5.090815185546875,0.17646202445030212,1.2920420169830322,-1.6353603601455688
1772459194488812300,5.100812255859375,0.22808368504047394,1.7302073240280151,-1.4800759553909302
1772459194498806000,5.110805908203125,0.2683669328689575,2.052088975906372,-1.1606225967407227
1772459194508802000,5.120802001953125,0.24188391864299774,2.2617907524108887,-0.7015101909637451
1772459194518799000,5.130799072265625,0.17679953575134277,2.329031467437744,-0.145572230219841
1772459194528796000,5.1407958984375,0.11239843815565109,2.182854175567627,0.4674038290977478
1772459194538793000,5.15079296875,0.03590014576911926,1.8199659585952759,1.0710102319717407
1772459194548790000,5.1607900390625,-0.09200002998113632,1.2995986938476562,1.5972540378570557
1772459194558786000,5.1707861328125,-0.2517469525337219,0.6577340960502625,1.979387879371643
1772459194568783000,5.180783203125,-0.4344733655452728,-0.050446756184101105,2.1957967281341553
1772459194578780200,5.1907802734375,-0.6363009214401245,-0.7405690550804138,2.2617154121398926
1772459194588777000,5.20077685546875,-0.8104607462882996,-1.3001011610031128,2.1813712120056152
1772459194598774000,5.21077392578125,-0.894506573677063,-1.6330618858337402,1.989972472190857
1772459194608770000,5.22077001953125,-0.8854967951774597,-1.7342393398284912,1.7009795904159546
1772459194618767000,5.23076708984375,-0.826738178730011,-1.628646969795227,1.3571966886520386
1772459194628764200,5.24076416015625,-0.763596773147583,-1.3714263439178467,1.027948260307312
1772459194638761000,5.250760986328125,-0.7331335544586182,-1.0414221286773682,0.7913457751274109
1772459194648758300,5.26075830078125,-0.7458421587944031,-0.7277455925941467,0.6603204011917114
1772459194658754000,5.270754150390625,-0.7806904911994934,-0.490290105342865,0.6080120801925659
1772459194668751000,5.280751220703125,-0.8495315909385681,-0.35852089524269104,0.5913036465644836
1772459194678748200,5.290748046875,-0.942588210105896,-0.32112064957618713,0.5849858522415161
1772459194688745000,5.300744873046875,-1.0431067943572998,-0.3048572540283203,0.5430008769035339
1772459194698742300,5.3107421875,-1.0992753505706787,-0.2954745888710022,0.4324246942996979
1772459194708738000,5.320738037109375,-1.0378810167312622,-0.20518943667411804,0.24636080861091614
1772459194718735000,5.330735107421875,-0.7871729731559753,-0.038534004241228104,0.04121030122041702
1772459194728732200,5.340732177734375,-0.35767513513565063,0.13619199395179749,-0.14242450892925262
1772459194738729000,5.35072900390625,0.18969041109085083,0.27405327558517456,-0.2975124716758728
1772459194748726000,5.36072607421875,0.7371055483818054,0.3833446204662323,-0.44824206829071045
1772459194758722000,5.37072216796875,1.1292518377304077,0.42264384031295776,-0.6293578147888184
1772459194768718800,5.38071875,1.2551391124725342,0.41472944617271423,-0.8375733494758606
1772459194778716200,5.390716064453125,1.2184998989105225,0.3830644488334656,-1.0206210613250732
1772459194788713000,5.400712890625,1.1306281089782715,0.2029133141040802,-1.196361780166626
1772459194798710000,5.4107099609375,1.0550363063812256,-0.17218750715255737,-1.5184215307235718
1772459194808706000,5.4207060546875,1.10019850730896,-0.4423374831676483,-2.103968381881714
1772459194818703000,5.430703125,0.8112973570823669,-0.5921900868415833,-2.7831523418426514
1772459194828700200,5.4407001953125,0.35796505212783813,-0.38994693756103516,-3.085707187652588
1772459194838697000,5.450697021484375,0.2257111817598343,0.03985312953591347,-2.7492287158966064
1772459194848694000,5.460694091796875,0.3180539011955261,0.518162190914154,-1.866047739982605
1772459194858690000,5.47068994140625,0.3622455596923828,0.8140357136726379,-0.8941527605056763
1772459194868687000,5.48068701171875,0.43143633008003235,0.7012084722518921,-0.19578298926353455
1772459194878684200,5.49068408203125,0.5665137767791748,0.22162745893001556,0.19036200642585754
1772459194888681200,5.50068115234375,0.7251889109611511,-0.3414662480354309,0.384822815656662
1772459194898678000,5.510677978515625,0.8175513744354248,-0.7764020562171936,0.40605854988098145
1772459194908674000,5.520674072265625,0.7400137186050415,-1.0993326902389526,0.29180094599723816
1772459194918671000,5.530671142578125,0.5081043243408203,-1.234505534172058,0.1316457986831665
1772459194928668000,5.54066796875,0.2361878603696823,-1.1098538637161255,0.0000662130769342184
1772459194938665200,5.550665283203125,0.036589354276657104,-0.861578643321991,-0.1516275852918625
1772459194948662000,5.560662109375,-0.05164756253361702,-0.5669248700141907,-0.41664621233940125
1772459194958658000,5.570657958984375,0.0026810304261744022,-0.22757619619369507,-0.7824020385742188
1772459194968655000,5.580655029296875,0.11180565506219864,0.15883702039718628,-1.1530041694641113
1772459194978652000,5.59065185546875,0.17373546957969666,0.5881707072257996,-1.3982447385787964
1772459194988649200,5.600649169921875,0.16668689250946045,1.0153290033340454,-1.4053412675857544
1772459194998646000,5.61064599609375,0.13297462463378906,1.4116425514221191,-1.1596144437789917
1772459195008642000,5.62064208984375,0.10723703354597092,1.7234816551208496,-0.6910264492034912
1772459195018639000,5.63063916015625,0.09015287458896637,1.8556325435638428,-0.06406750530004501
1772459195028636000,5.640635986328125,0.05208192020654678,1.7541849613189697,0.6067971587181091
1772459195038633200,5.65063330078125,-0.01045636273920536,1.3798545598983765,1.2159849405288696
1772459195048630000,5.660630126953125,-0.08569465577602386,0.7916187644004822,1.6986759901046753
1772459195058627000,5.670626953125,-0.19454267621040344,0.07577530294656754,2.026730537414551
1772459195068623000,5.680623046875,-0.33776429295539856,-0.619976282119751,2.197185516357422
1772459195078620000,5.690619873046875,-0.4953640401363373,-1.1439749002456665,2.203265905380249
1772459195088617000,5.700616943359375,-0.6157216429710388,-1.386339783668518,2.098822832107544
1772459195098614000,5.710614013671875,-0.6805347204208374,-1.3784786462783813,1.9484891891479492
1772459195108611000,5.720611083984375,-0.701042652130127,-1.193583369255066,1.7784897089004517
1772459195118607000,5.730607177734375,-0.6990247964859009,-0.899483323097229,1.5899462699890137
1772459195128604200,5.740604248046875,-0.6792199611663818,-0.5740354657173157,1.390051007270813
1772459195138601000,5.75060107421875,-0.6443995833396912,-0.30280211567878723,1.193604588508606
1772459195148598000,5.760597900390625,-0.5991625785827637,-0.15344883501529694,1.0380698442459106
1772459195158595000,5.770594970703125,-0.5465515851974487,-0.09967748075723648,0.9269954562187195
1772459195168591000,5.780591064453125,-0.49225878715515137,-0.06486942619085312,0.8293299078941345
1772459195178588200,5.790588134765625,-0.4470207095146179,-0.05028599873185158,0.7238388657569885
1772459195188585000,5.8005849609375,-0.4245380461215973,-0.06006672605872154,0.5942891240119934
1772459195198582300,5.810582275390625,-0.40236130356788635,-0.09186360239982605,0.4286288321018219
1772459195208579000,5.8205791015625,-0.319378525018692,-0.13085734844207764,0.22384986281394958
1772459195218576000,5.830575927734375,-0.14015129208564758,-0.17903895676136017,0.0016019794857129455
1772459195228572200,5.840572265625,0.12948419153690338,-0.24169301986694336,-0.15151460468769073
1772459195238569000,5.85056884765625,0.4765654504299164,-0.35617536306381226,-0.21659953892230988
1772459195248566300,5.860566162109375,0.9029481410980225,-0.5149573087692261,-0.2472250908613205
1772459195258563000,5.87056298828125,1.3946694135665894,-0.7077722549438477,-0.28836190700531006
1772459195268560100,5.88056005859375,1.840279459953308,-0.8462265729904175,-0.3777109384536743
1772459195278556200,5.89055615234375,2.0569841861724854,-0.9756170511245728,-0.657448947429657
1772459195288553000,5.900552978515625,2.0310006141662598,-0.9391959309577942,-1.266939640045166
1772459195298550000,5.910550048828125,1.7255488634109497,-0.5120658874511719,-2.091235876083374
1772459195308547000,5.920547119140625,1.0184156894683838,0.08956485241651535,-2.7956912517547607
1772459195318544100,5.930544189453125,0.4981238543987274,0.8024358749389648,-2.88128662109375
1772459195328541000,5.940541015625,0.6456552743911743,1.4395633935928345,-2.1867451667785645
1772459195338537000,5.950536865234375,1.0491955280303955,1.6959261894226074,-1.0092591047286987
1772459195348534000,5.960533935546875,1.2087007761001587,1.469226360321045,0.07199973613023758
1772459195358531000,5.970531005859375,1.069826602935791,0.819844663143158,0.6398278474807739
1772459195368528100,5.980528076171875,0.7057703733444214,-0.010367055423557758,0.7160214185714722
1772459195378525000,5.99052490234375,0.2929098606109619,-0.7897416949272156,0.5411593914031982
1772459195388521000,6.00052099609375,-0.03036220371723175,-1.236857533454895,0.3722846210002899
1772459195398518000,6.01051806640625,-0.2829030454158783,-1.393855094909668,0.2781932055950165
1772459195408515000,6.02051513671875,-0.47681018710136414,-1.3103471994400024,0.19500483572483063
1772459195418512100,6.03051220703125,-0.6007035374641418,-1.0504299402236938,0.09094377607107162
1772459195428509000,6.040509033203125,-0.6404203176498413,-0.7127347588539124,-0.041627585887908936
1772459195438506200,6.05050634765625,-0.5516985654830933,-0.45047634840011597,-0.17208655178546906
1772459195448502000,6.060501953125,-0.3617784380912781,-0.32846683263778687,-0.34046998620033264
1772459195458499000,6.0704990234375,-0.1770137995481491,-0.27192217111587524,-0.549740195274353
1772459195468496100,6.08049609375,-0.07572181522846222,-0.16857315599918365,-0.682746410369873
1772459195478493000,6.090492919921875,-0.03481990471482277,0.03353680670261383,-0.590337336063385
1772459195488490000,6.100489990234375,-0.03447981923818588,0.31600072979927063,-0.2771106958389282
1772459195498485200,6.1104853515625,-0.07794071733951569,0.5367583632469177,0.14300751686096191
1772459195508482600,6.120482666015625,-0.14522601664066315,0.6147293448448181,0.5394139885902405
1772459195518479400,6.130479248046875,-0.2057361602783203,0.512540876865387,0.812518298625946
1772459195528476400,6.140476318359375,-0.2860208749771118,0.24017243087291718,0.9457833766937256
1772459195538473500,6.150473388671875,-0.3681938648223877,-0.11852838099002838,0.9685277342796326
1772459195548470500,6.160470458984375,-0.4460356533527374,-0.4544376730918884,0.9004685282707214
1772459195558466600,6.170466552734375,-0.5060077905654907,-0.6928436756134033,0.7769882082939148
1772459195568463400,6.18046337890625,-0.5351723432540894,-0.7657272219657898,0.6165260672569275
1772459195578460400,6.19046044921875,-0.5427277088165283,-0.6553530693054199,0.46652448177337646
1772459195588457500,6.20045751953125,-0.5434837937355042,-0.39852553606033325,0.33557072281837463
1772459195598454500,6.21045458984375,-0.5429319143295288,-0.09241736680269241,0.24166931211948395
1772459195608451300,6.220451416015625,-0.5431809425354004,0.16136562824249268,0.20502768456935883
1772459195618447400,6.230447265625,-0.5379159450531006,0.33536094427108765,0.23267807066440582
1772459195628444400,6.2404443359375,-0.5368554592132568,0.4142743945121765,0.30163902044296265
1772459195638441200,6.250441162109375,-0.5351965427398682,0.4043799340724945,0.4030604362487793
1772459195648438500,6.2604384765625,-0.5212066769599915,0.31813958287239075,0.5399338603019714
1772459195658435300,6.270435302734375,-0.4913705289363861,0.21217457950115204,0.6869694590568542
1772459195668431600,6.280431640625,-0.4450773298740387,0.09335552155971527,0.8152899146080017
1772459195678428400,6.290428466796875,-0.380752295255661,-0.046744454652071,0.9255298972129822
1772459195688425200,6.30042529296875,-0.2982936203479767,-0.19629693031311035,1.0445332527160645
1772459195698422500,6.310422607421875,-0.17016591131687164,-0.3132084906101227,1.1511871814727783
1772459195708419300,6.32041943359375,-0.031642649322748184,-0.42190754413604736,1.2100661993026733
1772459195718416400,6.33041650390625,0.051583077758550644,-0.48198774456977844,1.2114251852035522
1772459195728412400,6.340412353515625,0.0415075421333313,-0.598414957523346,1.1399770975112915
1772459195738409500,6.350409423828125,0.06042182818055153,-0.8109267354011536,1.0723752975463867
1772459195748406500,6.360406494140625,0.2979568839073181,-0.9945306181907654,1.0407092571258545
1772459195758403300,6.3704033203125,0.6557508707046509,-1.1131460666656494,0.9069306254386902
1772459195768400400,6.380400390625,0.8719872832298279,-1.1696906089782715,0.3930816650390625
1772459195778397400,6.3903974609375,0.8116322159767151,-0.8950402736663818,-0.49750667810440063
1772459195788393500,6.4003935546875,0.21869561076164246,-0.1870676577091217,-1.474273443222046
1772459195798390300,6.410390380859375,-0.40123969316482544,0.8339444994926453,-2.0644140243530273
1772459195808387600,6.4203876953125,-0.47456130385398865,1.7955701351165771,-2.0626776218414307
1772459195818384400,6.43038427734375,-0.11552208662033081,2.295468330383301,-1.690629482269287
1772459195828381200,6.440381103515625,0.30865633487701416,2.321141004562378,-1.2268568277359009
1772459195838378500,6.45037841796875,0.5008652806282043,1.8523578643798828,-0.8305842876434326
1772459195848374300,6.460374267578125,0.38108375668525696,0.9547032117843628,-0.5959339141845703
1772459195858371600,6.47037158203125,0.18409737944602966,-0.021991560235619545,-0.4027871787548065
1772459195868368400,6.480368408203125,0.02600361406803131,-0.8254475593566895,-0.12387111037969589
1772459195878365400,6.490365478515625,-0.04634498059749603,-1.4667843580245972,0.24708150327205658
1772459195888362500,6.500362548828125,-0.08823037892580032,-1.9142388105392456,0.6025387048721313
1772459195898359300,6.510359375,-0.12150083482265472,-2.1097359657287598,0.8451142311096191
1772459195908355600,6.52035546875,-0.08137871325016022,-2.0980772972106934,0.7650710344314575
1772459195918352400,6.530352294921875,-0.002465885831043124,-1.8311783075332642,0.22530634701251984
1772459195928349400,6.540349365234375,0.026106903329491615,-1.1778947114944458,-0.5993366837501526
1772459195938346500,6.550346435546875,0.03196783363819122,-0.21173067390918732,-1.3908607959747314
1772459195948343600,6.560343505859375,-0.008125257678329945,0.8139123320579529,-1.8907781839370728
1772459195958340400,6.57034033203125,-0.08998063951730728,1.743038296699524,-2.0313913822174072
1772459195968336400,6.58033642578125,-0.21141386032104492,2.450112819671631,-1.8926953077316284
1772459195978333400,6.59033349609375,-0.32925063371658325,2.82997989654541,-1.531819224357605
1772459195988330200,6.600330322265625,-0.40543437004089355,2.8454575538635254,-1.0283188819885254
1772459195998327600,6.61032763671875,-0.44838815927505493,2.503347396850586,-0.49340805411338806
1772459196008324400,6.620324462890625,-0.48147422075271606,1.875342845916748,-0.03055092878639698
1772459196018321400,6.6303212890625,-0.5457196831703186,1.0814613103866577,0.3249134421348572
1772459196028317400,6.6403173828125,-0.6195483207702637,0.31584542989730835,0.5878409743309021
1772459196038314200,6.650314208984375,-0.6733140349388123,-0.2823305130004883,0.767960250377655
1772459196048311600,6.6603115234375,-0.6949455738067627,-0.6549277901649475,0.9042754769325256
1772459196058308400,6.670308349609375,-0.6887778043746948,-0.839952290058136,1.009624719619751
1772459196068305400,6.680305419921875,-0.6574761271476746,-0.8462509512901306,1.11115300655365
1772459196078302500,6.690302490234375,-0.6203932762145996,-0.747408390045166,1.2202321290969849
1772459196088298200,6.70029833984375,-0.5773501992225647,-0.6131017208099365,1.3321964740753174
1772459196098295600,6.710295654296875,-0.5444871783256531,-0.48099973797798157,1.4266294240951538
1772459196108292400,6.720292236328125,-0.5273417830467224,-0.3527514934539795,1.4733076095581055
1772459196118289400,6.730289306640625,-0.5314534902572632,-0.24763941764831543,1.4607059955596924
1772459196128286500,6.740286376953125,-0.5523465275764465,-0.16697946190834045,1.3905329704284668
1772459196138283500,6.750283447265625,-0.5752348303794861,-0.11597348004579544,1.2665935754776
1772459196148279600,6.760279541015625,-0.57524174451828,-0.07953158766031265,1.1000453233718872
1772459196158276400,6.7702763671875,-0.536342203617096,-0.030805153772234917,0.8881862163543701
1772459196168273400,6.7802734375,-0.4443502128124237,0.05348549038171768,0.6442164182662964
1772459196178270500,6.7902705078125,-0.2750853896141052,0.10208907723426819,0.40013471245765686
1772459196188267500,6.800267578125,-0.07355600595474243,0.09644903242588043,0.21309319138526917
1772459196198264300,6.810264404296875,0.16898594796657562,0.08627135306596756,0.1664084643125534
1772459196208261400,6.820261474609375,0.5137680768966675,-0.04198009520769119,0.2923416495323181
1772459196218257400,6.83025732421875,0.8772318363189697,-0.36704161763191223,0.49262532591819763
1772459196228254200,6.840254150390625,1.0684369802474976,-1.1515835523605347,0.5662617087364197
1772459196238251500,6.85025146484375,1.080377459526062,-2.4476637840270996,0.4563941955566406
1772459196248248300,6.860248291015625,1.1019214391708374,-3.7432475090026855,0.29248806834220886
1772459196258245400,6.870245361328125,1.2355440855026245,-4.126425743103027,0.2151101976633072
1772459196268242400,6.880242431640625,1.072675347328186,-3.4414050579071045,0.17783498764038086
1772459196278238200,6.89023828125,0.8308258652687073,-1.814286231994629,0.34619560837745667
1772459196288235500,6.900235595703125,0.8824262022972107,-0.10190676152706146,0.6905827522277832
1772459196298232300,6.910232421875,1.052992343902588,0.9135631322860718,1.0067979097366333
1772459196308229400,6.9202294921875,1.1568589210510254,1.334564447402954,1.1870269775390625
1772459196318226400,6.930226318359375,1.0376672744750977,1.1581382751464844,1.0845746994018555
1772459196328223500,6.940223388671875,0.5977534651756287,0.6733607053756714,0.7908145189285278
1772459196338219500,6.950219482421875,0.034682709723711014,0.31483766436576843,0.6027845740318298
1772459196348216300,6.96021630859375,-0.4905003607273102,0.10147584229707718,0.5962893962860107
1772459196358213400,6.97021337890625,-0.861724317073822,-0.09607596695423126,0.725496768951416
1772459196368210400,6.98021044921875,-1.060761570930481,-0.2506370544433594,0.9292120933532715
1772459196378207500,6.99020751953125,-1.1740351915359497,-0.3452325165271759,1.1156903505325317
1772459196388204300,7.000204345703125,-1.277869462966919,-0.39622005820274353,1.2061104774475098
1772459196398201300,7.010201416015625,-1.383721947669983,-0.40716180205345154,1.1549501419067383
1772459196408197400,7.020197265625,-1.4548884630203247,-0.3466515839099884,0.9678436517715454
1772459196418194200,7.030194091796875,-1.4589329957962036,-0.2175324559211731,0.690497875213623
1772459196428191500,7.04019140625,-1.3975725173950195,-0.006885732989758253,0.34561583399772644
1772459196438188300,7.050188232421875,-1.2812241315841675,0.32659855484962463,-0.03482972830533981
1772459196448185300,7.060185302734375,-1.132703423500061,0.7381277680397034,-0.42251166701316833
1772459196458182400,7.070182373046875,-0.9680049419403076,1.066381812095642,-0.7522588968276978
1772459196468178400,7.080178466796875,-0.7800547480583191,1.2415573596954346,-0.9770350456237793
1772459196478175500,7.090175537109375,-0.5776095390319824,1.2586803436279297,-1.101950764656067
1772459196488172300,7.10017236328125,-0.38254624605178833,1.125812292098999,-1.1662368774414062
1772459196498169900,7.110169921875,-0.2208443433046341,0.8145216703414917,-1.215486764907837
1772459196508167000,7.1201669921875,-0.11321882903575897,0.3645249307155609,-1.2588582038879395
1772459196518164000,7.1301640625,-0.05483068525791168,-0.1171225756406784,-1.2834653854370117
1772459196528160800,7.140160888671875,-0.04544118046760559,-0.5659996867179871,-1.2765939235687256
1772459196538157000,7.150156982421875,-0.07496459037065506,-0.8838587403297424,-1.2101449966430664
1772459196548153900,7.16015380859375,-0.13051839172840118,-1.0442862510681152,-1.083986520767212
1772459196558151000,7.17015087890625,-0.21642592549324036,-1.0849860906600952,-0.9100199341773987
1772459196568148000,7.18014794921875,-0.3051145076751709,-1.0483524799346924,-0.719771146774292
1772459196578144800,7.190144775390625,-0.37136542797088623,-0.9950932860374451,-0.5493123531341553
1772459196588141800,7.200141845703125,-0.4061761200428009,-0.9704473614692688,-0.40951746702194214
1772459196598139000,7.210138916015625,-0.3915552496910095,-0.9759944081306458,-0.30145928263664246
1772459196608135000,7.220135009765625,-0.3313808739185333,-1.0315921306610107,-0.21030540764331818
1772459196618132000,7.230132080078125,-0.2461453229188919,-1.0855798721313477,-0.15851324796676636
1772459196628129000,7.24012890625,-0.171868696808815,-1.1024398803710938,-0.17332787811756134
1772459196638125800,7.250125732421875,-0.11553662270307541,-1.0073806047439575,-0.24065661430358887
1772459196648123000,7.260122802734375,-0.08963152021169662,-0.8082098960876465,-0.3310573399066925
1772459196658120000,7.270119873046875,-0.09021268039941788,-0.5257238149642944,-0.4054452180862427
1772459196668116700,7.28011669921875,-0.054140958935022354,-0.2212105393409729,-0.472967267036438
1772459196678113000,7.290113037109375,0.053030963987112045,0.003938492387533188,-0.5501567125320435
1772459196688109800,7.30010986328125,0.27924996614456177,0.09634192287921906,-0.6092416048049927
1772459196698107000,7.31010693359375,0.6291226744651794,0.013262681663036346,-0.5529665946960449
1772459196708104000,7.32010400390625,1.0928517580032349,-0.16637259721755981,-0.3981921970844269
1772459196718100700,7.330100830078125,1.4877517223358154,-0.45374947786331177,-0.3219779431819916
1772459196728097800,7.340097900390625,1.4980360269546509,-1.0522619485855103,-0.659934937953949
1772459196738094800,7.3500947265625,1.1014904975891113,-1.5794949531555176,-1.473742961883545
1772459196748091000,7.3600908203125,0.23832911252975464,-1.4996464252471924,-2.3135602474212646
1772459196758088000,7.370087890625,-0.6479721665382385,-0.6304075121879578,-2.6422834396362305
1772459196768085000,7.3800849609375,-0.7217353582382202,0.535356342792511,-2.3368051052093506
1772459196778081800,7.390081787109375,-0.11867035180330276,1.299414038658142,-1.6400525569915771
1772459196788079000,7.4000791015625,0.43630820512771606,1.6411958932876587,-0.8703287243843079
1772459196798076000,7.410075927734375,0.6451768279075623,1.449385166168213,-0.3155168294906616
1772459196808072000,7.420072021484375,0.46034544706344604,0.7242697477340698,-0.1303672045469284
1772459196818069000,7.430069091796875,0.10990649461746216,-0.1687115877866745,-0.03228239342570305
1772459196828065800,7.440065673828125,-0.14142267405986786,-0.7897066473960876,0.2712574899196625
1772459196838063000,7.45006298828125,-0.234313502907753,-1.1446927785873413,0.6863476037979126
1772459196848060000,7.460059814453125,-0.2292042225599289,-1.250298261642456,0.9936904907226562
1772459196858057000,7.470056884765625,-0.2069118171930313,-1.0757133960723877,1.081001877784729
1772459196868054000,7.480053955078125,-0.15900447964668274,-0.6795873045921326,1.007256031036377
1772459196878049800,7.4900498046875,-0.07209732383489609,-0.09938250482082367,0.8421453237533569
1772459196888047000,7.500047119140625,0.00897382851690054,0.6004307270050049,0.6157031059265137
1772459196898044000,7.5100439453125,0.046805620193481445,1.2855526208877563,0.42886751890182495
1772459196908041000,7.520041015625,0.0375673808157444,1.8273881673812866,0.3548087179660797
1772459196918038000,7.5300380859375,-0.0016739231068640947,2.1455719470977783,0.4372342526912689
1772459196928035000,7.54003515625,-0.07715323567390442,2.202244281768799,0.6444505453109741
1772459196938031900,7.550031982421875,-0.1592121422290802,1.982948899269104,0.9191521406173706
1772459196948028000,7.56002783203125,-0.22345338761806488,1.4443702697753906,1.1339430809020996
1772459196958025000,7.57002490234375,-0.29036659002304077,0.6585549116134644,1.200227975845337
1772459196968021800,7.580021728515625,-0.3553759455680847,-0.14986920356750488,1.1224771738052368
1772459196978019000,7.59001904296875,-0.3947189152240753,-0.7656495571136475,0.9601774215698242
1772459196988015900,7.600015869140625,-0.4194607436656952,-1.1092604398727417,0.7626212239265442
1772459196998013000,7.610012939453125,-0.4447573125362396,-1.1947818994522095,0.5613760352134705
1772459197008010000,7.620010009765625,-0.45487624406814575,-1.0541433095932007,0.3672209084033966
1772459197018006800,7.6300068359375,-0.46691909432411194,-0.76218181848526,0.17708030343055725
1772459197028003000,7.640003173828125,-0.4879567325115204,-0.39383286237716675,-0.03559654578566551
1772459197037999900,7.649999755859375,-0.5155408978462219,-0.08629076927900314,-0.252375990152359
1772459197047997000,7.659996826171875,-0.5347329378128052,0.0993155762553215,-0.4350331723690033
1772459197057994000,7.669993896484375,-0.5391075015068054,0.198560893535614,-0.5438500642776489
1772459197067991000,7.679990966796875,-0.5496094226837158,0.2278737723827362,-0.5674672722816467
1772459197077987800,7.68998779296875,-0.5447436571121216,0.1770874410867691,-0.5007861256599426
1772459197087985000,7.69998486328125,-0.5174683928489685,0.06960305571556091,-0.36835622787475586
1772459197097981000,7.70998095703125,-0.4832608699798584,-0.0543394573032856,-0.18752694129943848
1772459197107978000,7.71997802734375,-0.43716156482696533,-0.1429404318332672,0.005121860187500715
1772459197117975000,7.72997509765625,-0.3888451159000397,-0.19031748175621033,0.18688061833381653
1772459197127971800,7.739971923828125,-0.35348260402679443,-0.2405122071504593,0.36601442098617554
1772459197137969000,7.749968994140625,-0.283796489238739,-0.28570908308029175,0.5487390160560608
1772459197147966000,7.759966064453125,-0.16304850578308105,-0.3598232567310333,0.6958363652229309
1772459197157962800,7.769962646484375,-0.03235797584056854,-0.5022462606430054,0.7767118811607361
1772459197167959000,7.779958984375,0.1024581640958786,-0.5775519013404846,0.7934099435806274
1772459197177955800,7.789955810546875,0.2975413203239441,-0.4540206491947174,0.7189190983772278
1772459197187953000,7.799952880859375,0.543506383895874,-0.23770193755626678,0.4828573167324066
1772459197197950000,7.809949951171875,0.7967566847801208,-0.14910651743412018,0.02470766007900238
1772459197207947000,7.819947021484375,0.8411129713058472,-0.3331216275691986,-0.7572893500328064
1772459197217943800,7.82994384765625,0.605932891368866,-0.24787507951259613,-1.6941723823547363
1772459197227940900,7.83994091796875,0.0799330547451973,0.3272201716899872,-2.434676170349121
1772459197237937000,7.84993701171875,-0.43670761585235596,1.1786504983901978,-2.598682165145874
1772459197247934000,7.859933837890625,-0.3986603617668152,1.9652998447418213,-2.0786354541778564
1772459197257931000,7.869930908203125,0.11025489121675491,2.326341390609741,-1.1714764833450317
1772459197267927800,7.879927734375,0.6123208999633789,2.280829429626465,-0.2722969353199005
1772459197277925000,7.889925048828125,0.8744829297065735,1.9399060010910034,0.3074633479118347
1772459197287922000,7.899921875,0.885951817035675,1.3210630416870117,0.511798620223999
1772459197297918700,7.909918701171875,0.7473879456520081,0.6318825483322144,0.5922111868858337
1772459197307916000,7.919916015625,0.41813361644744873,-0.024865178391337395,0.6707653403282166
1772459197317911800,7.929911865234375,0.01701701246201992,-0.5743895173072815,0.7243053913116455
1772459197327909000,7.9399091796875,-0.26234909892082214,-0.8974197506904602,0.7206366062164307
1772459197337906000,7.949906005859375,-0.4084821045398712,-0.8822662830352783,0.603039026260376
1772459197347903000,7.959903076171875,-0.41217857599258423,-0.6034588813781738,0.3474370837211609
1772459197357900000,7.969900146484375,-0.31211602687835693,-0.18252535164356232,-0.032270707190036774
1772459197367896800,7.979896728515625,-0.19337792694568634,0.3495017886161804,-0.4729916453361511
1772459197377894000,7.989893798828125,-0.0962117537856102,0.8727226257324219,-0.8286091089248657
1772459197387890700,7.999890625,-0.0841929018497467,1.2886602878570557,-1.0049433708190918
1772459197397887000,8.009886962890626,-0.17134402692317963,1.5551862716674805,-0.9441006779670715
1772459197407883800,8.0198837890625,-0.27811893820762634,1.6394507884979248,-0.6359479427337646
1772459197417881000,8.029881103515624,-0.38188502192497253,1.5172524452209473,-0.14822520315647125
1772459197427878000,8.0398779296875,-0.4808216989040375,1.1590520143508911,0.3976338803768158
1772459197437874700,8.049874755859374,-0.5541778206825256,0.5957643389701843,0.8830024600028992
1772459197447872000,8.0598720703125,-0.615111231803894,-0.08270256966352463,1.2286453247070312
1772459197457868800,8.069868896484374,-0.6767663955688477,-0.770890474319458,1.4029426574707031
1772459197467865900,8.079865966796875,-0.7186219692230225,-1.3171018362045288,1.3920329809188843
1772459197477862000,8.08986181640625,-0.7077510356903076,-1.5828372240066528,1.2153159379959106
1772459197487859000,8.09985888671875,-0.6426066160202026,-1.5288989543914795,0.9226859211921692
1772459197497858800,8.10985888671875,-0.5532346367835999,-1.2211835384368896,0.5548714995384216
1772459197507856000,8.11985595703125,-0.4724891781806946,-0.7559878826141357,0.19399848580360413
1772459197517852700,8.129852783203125,-0.3908761739730835,-0.22832076251506805,-0.07395442575216293
1772459197527849700,8.139849609375,-0.30633917450904846,0.2182287573814392,-0.20820970833301544
1772459197537846800,8.1498466796875,-0.23090817034244537,0.5098707675933838,-0.2439698427915573
1772459197547842800,8.1598427734375,-0.17503264546394348,0.6333109140396118,-0.206956684589386
1772459197557840000,8.16983984375,-0.16043318808078766,0.6006396412849426,-0.12507164478302002
1772459197567836700,8.179836669921874,-0.1697675585746765,0.4641076326370239,-0.025827879086136818
1772459197577834000,8.189833984375,-0.18352150917053223,0.3085583448410034,0.0676182359457016
1772459197587830800,8.199830810546874,-0.19117970764636993,0.15454800426959991,0.11711388826370239
1772459197597827600,8.20982763671875,-0.19039028882980347,0.05140692740678787,0.12422977387905121
1772459197607825000,8.219824951171875,-0.1563878357410431,0.03207451105117798,0.11479099839925766
1772459197617821700,8.22982177734375,-0.09377362579107285,0.06377045065164566,0.11758030205965042
1772459197627818000,8.23981787109375,-0.011597268283367157,0.05081070587038994,0.164618119597435
1772459197637814800,8.249814697265625,0.10227147489786148,-0.019027328118681908,0.2500302493572235
1772459197647811800,8.259811767578125,0.25220051407814026,-0.17904815077781677,0.3137836754322052
1772459197657809000,8.269808837890626,0.4213370680809021,-0.3967265784740448,0.25608599185943604
1772459197667805700,8.2798056640625,0.5344204306602478,-0.6649364233016968,-0.02762429602444172
1772459197677802800,8.289802734375,0.627342700958252,-0.9860246777534485,-0.5072505474090576
1772459197687799800,8.2997998046875,0.746294379234314,-1.1865441799163818,-1.0418368577957153
1772459197697796900,8.309796875,0.877901554107666,-0.8553408980369568,-1.4687690734863281
1772459197707793700,8.319793701171875,0.8261925578117371,-0.011899387463927269,-1.815093755722046
1772459197717790000,8.3297900390625,0.5574564337730408,0.970376193523407,-2.015519857406616
1772459197727786800,8.339786865234375,0.4060437083244324,1.8461130857467651,-1.8535480499267578
1772459197737783600,8.349783447265626,0.5663641095161438,2.3249518871307373,-1.3562692403793335
1772459197747780900,8.35978076171875,0.8195945024490356,2.309583902359009,-0.7305619120597839
1772459197757777700,8.369777587890624,0.9753350019454956,1.8292858600616455,-0.06918292492628098
1772459197767774700,8.379774658203125,0.9456396698951721,1.037540316581726,0.48009592294692993
1772459197777771800,8.389771728515624,0.7426390647888184,0.07668913155794144,0.7928470969200134
1772459197787767800,8.399767822265625,0.3727978765964508,-0.8464783430099487,0.9049648642539978
1772459197797764900,8.409764892578124,-0.09173911809921265,-1.5272092819213867,0.8847469687461853
1772459197807761700,8.41976171875,-0.465860515832901,-1.8823000192642212,0.7811889052391052
1772459197817758700,8.4297587890625,-0.6681205034255981,-1.8444141149520874,0.5901086926460266
1772459197827755800,8.439755859375,-0.6756833791732788,-1.4219504594802856,0.27238109707832336
1772459197837752800,8.4497529296875,-0.4804471433162689,-0.7732348442077637,-0.1538161188364029
1772459197847749600,8.45974951171875,-0.11257322877645493,-0.005051359999924898,-0.586390495300293
1772459197857747000,8.469746826171875,0.2923164963722229,0.7809199690818787,-0.9061955213546753
1772459197867743700,8.47974365234375,0.5931618213653564,1.4416835308074951,-1.0374855995178223
1772459197877739800,8.48973974609375,0.716247022151947,1.9318121671676636,-0.9752767086029053
1772459197887736800,8.49973681640625,0.6874169707298279,2.229644298553467,-0.7396570444107056
1772459197897733600,8.509733642578125,0.5578925013542175,2.288602113723755,-0.38030627369880676
1772459197907731000,8.51973095703125,0.3699074387550354,2.075120687484741,0.06631091237068176
1772459197917727700,8.529727783203125,0.1339598298072815,1.6063544750213623,0.5225892066955566
1772459197927724800,8.539724853515626,-0.09854478389024734,0.9318264722824097,0.9320797920227051
1772459197937721900,8.549721923828125,-0.3023392856121063,0.16841956973075867,1.2357397079467773
1772459197947719000,8.559718994140624,-0.4604567587375641,-0.5289832353591919,1.3907804489135742
1772459197957714700,8.569714599609375,-0.5361508131027222,-1.0123419761657715,1.4023300409317017
1772459197967711700,8.579711669921876,-0.5139355063438416,-1.2498679161071777,1.3209233283996582
1772459197977708800,8.589708740234375,-0.41318532824516296,-1.2627266645431519,1.160699486732483
1772459197987705600,8.59970556640625,-0.2868284583091736,-1.0962964296340942,0.9791646003723145
1772459197997703000,8.609702880859375,-0.1905878335237503,-0.7986441850662231,0.8231248259544373
1772459198007699700,8.61969970703125,-0.13405132293701172,-0.42185381054878235,0.7202813029289246
1772459198017696800,8.62969677734375,-0.08688918501138687,-0.07441038638353348,0.6535958647727966
1772459198027693800,8.63969384765625,-0.035987384617328644,0.1772221177816391,0.5788289308547974
1772459198037691000,8.64969091796875,0.002735993592068553,0.27645862102508545,0.4943193793296814
1772459198047687000,8.65968701171875,0.02469455637037754,0.274582177400589,0.43203577399253845
1772459198057683700,8.66968359375,0.03123205527663231,0.21972334384918213,0.4078196585178375
1772459198067680800,8.6796806640625,0.04000663757324219,0.1699075847864151,0.40708035230636597
1772459198077677800,8.689677734375,0.064739890396595,0.17071959376335144,0.4162043333053589
1772459198087675000,8.6996748046875,0.08652694523334503,0.25884810090065,0.42383721470832825
1772459198097671700,8.709671630859376,0.11578620970249176,0.4198390543460846,0.4356609880924225
1772459198107669000,8.7196689453125,0.11145457625389099,0.5461815595626831,0.4556938111782074
1772459198117665800,8.729665771484376,0.044607460498809814,0.38644522428512573,0.444591224193573
1772459198127662800,8.739662841796875,-0.12963037192821503,-0.16888563334941864,0.46490582823753357
1772459198137659000,8.749658935546876,-0.21453815698623657,-0.7141257524490356,0.649971604347229
1772459198147655700,8.75965576171875,-0.10567877441644669,-0.914860188961029,0.8616026639938354
1772459198157652700,8.76965283203125,0.18058472871780396,-0.875787615776062,0.7979047298431396
1772459198167649800,8.77964990234375,0.5945702195167542,-0.8636859655380249,0.3209991455078125
1772459198177646800,8.789646728515624,0.9419644474983215,-0.8738709688186646,-0.4607916474342346
1772459198187643600,8.7996435546875,0.8735390305519104,-0.3657475709915161,-1.2555582523345947
1772459198197641000,8.809640869140624,0.3419010043144226,0.2787753939628601,-1.933301568031311
1772459198207637800,8.8196376953125,-0.11685939133167267,1.0482970476150513,-2.246699333190918
1772459198217633800,8.8296337890625,-0.20827291905879974,1.6639626026153564,-2.0645179748535156
1772459198227630800,8.839630859375,-0.007517973892390728,1.7264206409454346,-1.5069162845611572
1772459198237627600,8.849627685546874,0.16421829164028168,1.2707289457321167,-0.8793200254440308
1772459198247625000,8.859625,0.1967834234237671,0.5469586849212646,-0.43723610043525696
1772459198257621800,8.869621826171874,0.1798812299966812,-0.08493566513061523,-0.11233367770910263
1772459198267618800,8.879618896484375,0.09712269902229309,-0.6222718358039856,0.11438921838998795
1772459198277615900,8.889615966796875,-0.022564232349395752,-1.0350795984268188,0.1614047735929489
1772459198287612700,8.89961279296875,-0.11303980648517609,-1.1791040897369385,0.006957140285521746
1772459198297609700,8.909609619140625,-0.1510077565908432,-1.009674310684204,-0.28054532408714294
1772459198307606800,8.919606689453126,-0.14268778264522552,-0.6049262285232544,-0.5968087315559387
1772459198317602800,8.929602783203125,-0.11162246763706207,-0.043710459023714066,-0.8623338937759399
1772459198327599900,8.939599853515626,-0.07544848322868347,0.5721995830535889,-1.022059440612793
1772459198337597000,8.949596923828125,-0.0692625641822815,1.122760534286499,-1.0278818607330322
1772459198347593700,8.95959375,-0.1145983561873436,1.587489128112793,-0.8495157957077026
1772459198357590800,8.9695908203125,-0.1732998639345169,1.9042412042617798,-0.4551619291305542
1772459198367587800,8.979587890625,-0.20712174475193024,2.021230459213257,0.11863584071397781
1772459198377584600,8.989584716796875,-0.23030297458171844,1.917965292930603,0.7807972431182861
1772459198387582000,8.99958203125,-0.2598342299461365,1.5888561010360718,1.4210118055343628
1772459198397578800,9.009578857421875,-0.2906765639781952,1.0811611413955688,1.9460245370864868
1772459198407574800,9.01957470703125,-0.2807227373123169,0.4473291337490082,2.2397255897521973
1772459198417571800,9.02957177734375,-0.2272748351097107,-0.17323432862758636,2.235461950302124
1772459198427568600,9.039568603515624,-0.15476946532726288,-0.6614615321159363,1.9776779413223267
1772459198437565700,9.049565673828125,-0.0809256061911583,-0.9471659660339355,1.5611271858215332
1772459198447562800,9.059562744140624,-0.012719388119876385,-0.9694883227348328,1.077856183052063
1772459198457559800,9.069559814453125,0.0443306639790535,-0.7963966727256775,0.6092218160629272
1772459198467556600,9.079556640625,0.07995151728391647,-0.48542678356170654,0.2076362520456314
1772459198477554000,9.089553955078125,0.10516009479761124,-0.12433376908302307,-0.0864332839846611
1772459198487550700,9.09955078125,0.14599035680294037,0.1779928058385849,-0.27516433596611023
1772459198497544200,9.109544189453125,0.2010548710823059,0.38794851303100586,-0.3920162320137024
1772459198507540500,9.11954052734375,0.27481669187545776,0.46201714873313904,-0.4486158490180969
1772459198517537300,9.129537353515625,0.3632625639438629,0.4159187078475952,-0.4506404995918274
1772459198527534600,9.13953466796875,0.464685320854187,0.3152690529823303,-0.4112403690814972
1772459198537531400,9.149531494140625,0.5548259615898132,0.18648721277713776,-0.36095356941223145
1772459198547528400,9.159528564453124,0.6207021474838257,0.056070879101753235,-0.2947008013725281
1772459198557525500,9.169525390625,0.6629276275634766,-0.0702509880065918,-0.21008284389972687
1772459198567522300,9.179522216796874,0.6855295896530151,-0.20448042452335358,-0.0850524753332138
1772459198577519400,9.189519287109375,0.676298975944519,-0.3596629500389099,0.10562510043382645
1772459198587516400,9.199516357421874,0.643135130405426,-0.6044896841049194,0.3411047160625458
1772459198597512400,9.209512451171875,0.6151665449142456,-0.9448201060295105,0.5898789167404175
1772459198607509200,9.21950927734375,0.6074020862579346,-1.3329322338104248,0.7812438011169434
1772459198617506600,9.229506591796875,0.6467153429985046,-1.5974253416061401,0.8077465295791626
1772459198627503400,9.23950341796875,0.7546879053115845,-1.5938031673431396,0.6066325902938843
1772459198637500200,9.249500244140625,0.9230198860168457,-1.4629074335098267,0.1461363285779953
1772459198647497500,9.25949755859375,1.1408847570419312,-1.341586947441101,-0.5067338347434998
1772459198657494300,9.269494384765625,1.299415111541748,-0.948445737361908,-1.2133451700210571
1772459198667491300,9.2794912109375,1.1681265830993652,-0.1186511367559433,-1.900895595550537
1772459198677488400,9.28948828125,0.7170299291610718,0.9909687638282776,-2.376616954803467
1772459198687485400,9.2994853515625,0.2823921740055084,2.1379733085632324,-2.3589818477630615
1772459198697481500,9.3094814453125,0.10797587782144547,2.8896360397338867,-1.8801469802856445
1772459198707478500,9.319478515625,0.13532735407352448,2.9231860637664795,-1.1810258626937866
1772459198717475300,9.329475341796876,0.22041453421115875,2.3122782707214355,-0.5054203867912292
1772459198727472400,9.339472412109375,0.2261136919260025,1.286120891571045,-0.048175107687711716
1772459198737469400,9.349469482421876,0.15703225135803223,0.2021082043647766,0.13408245146274567
1772459198747466200,9.35946630859375,-0.030756566673517227,-0.6802297830581665,0.18278340995311737
1772459198757463600,9.369463623046874,-0.2293189913034439,-1.2056066989898682,0.14814789593219757
1772459198767460400,9.37946044921875,-0.35997819900512695,-1.2728196382522583,-0.08340782672166824
1772459198777457400,9.38945751953125,-0.42635077238082886,-0.9548647999763489,-0.47299709916114807
1772459198787454500,9.399454345703125,-0.3799297511577606,-0.35625413060188293,-0.8882060050964355
1772459198797450200,9.4094501953125,-0.2536155879497528,0.30942460894584656,-1.1811147928237915
1772459198807447600,9.419447509765625,-0.12574337422847748,0.8474555611610413,-1.2626829147338867
1772459198817444400,9.4294443359375,-0.06783387809991837,1.115268349647522,-1.0944262742996216
1772459198827441400,9.43944140625,-0.13445498049259186,1.0720676183700562,-0.7230444550514221
1772459198837438500,9.4494384765625,-0.30108916759490967,0.8191025853157043,-0.1765180081129074
1772459198847435500,9.459435546875,-0.49240055680274963,0.5058913826942444,0.5091972351074219
1772459198857432300,9.469432373046875,-0.6229123473167419,0.25472018122673035,1.281237006187439
1772459198867429400,9.479429443359376,-0.6626980900764465,0.11185624450445175,2.037763833999634
1772459198877426400,9.489426513671875,-0.6443589925765991,-0.0033757092896848917,2.678718328475952
1772459198887423500,9.499423583984376,-0.597078800201416,-0.18021227419376373,3.119950532913208
1772459198897419500,9.50941943359375,-0.4902257025241852,-0.4352565109729767,3.2865047454833984
1772459198907416300,9.519416259765626,-0.308680921792984,-0.7491891384124756,3.1043384075164795
1772459198917413400,9.529413330078125,-0.13983675837516785,-1.0558292865753174,2.5942869186401367
1772459198927410400,9.539410400390626,-0.01695239171385765,-1.2618772983551025,1.904653787612915
1772459198937407500,9.549407470703125,0.02342824824154377,-1.3244562149047852,1.184848427772522
1772459198947404300,9.559404296875,-0.02586526609957218,-1.1838122606277466,0.5193024277687073
1772459198957401600,9.569401611328125,-0.09838412702083588,-0.8330104947090149,-0.03328565135598183
1772459198967398400,9.5793984375,-0.16125282645225525,-0.3440264165401459,-0.43415743112564087
1772459198977395200,9.589395263671875,-0.18827547132968903,0.16606393456459045,-0.6672142148017883
1772459198987392500,9.599392578125,-0.171426460146904,0.5435116291046143,-0.7424682378768921
1772459198997389300,9.609389404296875,-0.12080761790275574,0.6802363395690918,-0.6849689483642578
1772459199007385600,9.619385498046874,-0.04181826859712601,0.6058782339096069,-0.5487170815467834
1772459199017382400,9.62938232421875,0.022511333227157593,0.3780713975429535,-0.3917461931705475
1772459199027379500,9.63937939453125,0.06108083203434944,0.07962212711572647,-0.23763036727905273
1772459199037376500,9.64937646484375,0.0931330993771553,-0.2222827672958374,-0.10575893521308899
1772459199047373300,9.659373291015624,0.11436541378498077,-0.4332117736339569,0.0006713636685162783
1772459199057370400,9.669370361328125,0.1482832282781601,-0.56210857629776,0.08218178153038025
1772459199067367400,9.679367431640625,0.14909310638904572,-0.6898649334907532,0.154132679104805
1772459199077364500,9.689364501953126,0.17413848638534546,-0.8004240989685059,0.23320452868938446
1772459199087361300,9.699361328125,0.24800924956798553,-0.9536299109458923,0.2983990013599396
1772459199097358600,9.709358642578126,0.43475934863090515,-1.0846558809280396,0.2985213100910187
1772459199107355400,9.71935546875,0.7104212641716003,-1.1090754270553589,0.11153039336204529
1772459199117351200,9.72935107421875,1.1482347249984741,-1.1264818906784058,-0.3673192262649536
1772459199127348500,9.739348388671875,1.633690595626831,-1.1714493036270142,-1.1211748123168945
1772459199137345300,9.74934521484375,1.8709865808486938,-0.9178017377853394,-1.9245579242706299
1772459199147342300,9.75934228515625,1.6541144847869873,-0.19971153140068054,-2.5994348526000977
1772459199157339400,9.76933935546875,1.152711272239685,0.8966593742370605,-2.916170835494995
1772459199167336400,9.77933642578125,0.7714325785636902,2.1370322704315186,-2.6248362064361572
1772459199177333200,9.789333251953124,0.6598047614097595,2.8309531211853027,-1.7666517496109009
1772459199187330600,9.79933056640625,0.6529593467712402,2.6518337726593018,-0.6965134739875793
1772459199197327400,9.809327392578124,0.5980436205863953,1.9025185108184814,0.31108298897743225
1772459199207324400,9.819324462890625,0.4049535095691681,0.7238455414772034,0.9670805335044861
1772459199217321500,9.829321533203125,0.1792980581521988,-0.4769879877567291,1.185581088066101
1772459199227317200,9.839317138671875,-0.14209088683128357,-1.247443437576294,1.0223709344863892
1772459199237314600,9.849314453125,-0.5434802174568176,-1.4010138511657715,0.6039499044418335
1772459199247311400,9.859311279296875,-0.8000579476356506,-1.1200029850006104,0.05762263387441635
1772459199257308400,9.869308349609375,-0.845936119556427,-0.5445500612258911,-0.48052942752838135
1772459199267305500,9.879305419921875,-0.6677520275115967,0.15452198684215546,-0.9105585813522339
1772459199277302500,9.889302490234375,-0.30721208453178406,0.7387863397598267,-1.1647664308547974
1772459199287299300,9.89929931640625,0.018177170306444168,0.9423232674598694,-1.2208681106567383
1772459199297296400,9.90929638671875,0.15773899853229523,0.7513818740844727,-1.1048939228057861
1772459199307293400,9.91929345703125,0.07119531184434891,0.38622385263442993,-0.8244089484214783
1772459199317290200,9.929290283203125,-0.12435474991798401,0.14672474563121796,-0.434766560792923
1772459199327287600,9.93928759765625,-0.32157593965530396,0.1356012523174286,-0.02662089839577675
1772459199337284400,9.949284423828125,-0.46320199966430664,0.28843817114830017,0.3669399321079254
1772459199347280400,9.9592802734375,-0.532067060470581,0.49200621247291565,0.748228132724762
1772459199357277400,9.96927734375,-0.5625846982002258,0.625506579875946,1.0765303373336792
1772459199367274500,9.9792744140625,-0.5438717007637024,0.5443957448005676,1.314897894859314
1772459199377271300,9.989271240234375,-0.46262526512145996,0.1694287657737732,1.4162062406539917
1772459199387268400,9.999268310546874,-0.33906763792037964,-0.3575591444969177,1.3500999212265015
1772459199397265400,10.009265380859375,-0.22502589225769043,-0.8339888453483582,1.1003444194793701
1772459199407262200,10.01926220703125,-0.17577099800109863,-1.0963475704193115,0.7040380835533142
1772459199417259500,10.029259521484375,-0.1636882871389389,-0.9908746480941772,0.32368606328964233
1772459199427256300,10.03925634765625,-0.1361759752035141,-0.5769941210746765,0.04733408987522125
1772459199437253400,10.04925341796875,-0.07676631957292557,-0.020755840465426445,-0.13461792469024658
1772459199447250400,10.05925048828125,0.006187422666698694,0.5280542969703674,-0.25095996260643005
1772459199457246200,10.06924609375,0.10372136533260345,0.9462587833404541,-0.3229093551635742
1772459199467243500,10.079243408203125,0.1666470617055893,1.1804559230804443,-0.35235005617141724
1772459199477240300,10.089240234375,0.1646343320608139,1.1258413791656494,-0.3419184684753418
1772459199487237400,10.0992373046875,0.09951630234718323,0.7431226372718811,-0.320983350276947
1772459199497234200,10.109234130859376,-0.0020441398955881596,0.2742688059806824,-0.3108369708061218
1772459199507231200,10.119231201171875,-0.06669091433286667,-0.04820844158530235,-0.30198147892951965
1772459199517228000,10.12922802734375,-0.08922810852527618,-0.21184153854846954,-0.3396587669849396
1772459199527225300,10.139225341796875,-0.09849803894758224,-0.10390281677246094,-0.4035181701183319
1772459199537222100,10.14922216796875,0.02333192713558674,0.2429089993238449,-0.38547083735466003
1772459199547219000,10.159218994140625,0.2553401291370392,0.5405289530754089,-0.39644119143486023
1772459199557216300,10.16921630859375,0.47208741307258606,0.5464993715286255,-0.5125044584274292
1772459199567213000,10.179213134765625,0.5876198410987854,0.3667397201061249,-0.5908207893371582
1772459199577209300,10.189209228515624,0.6101706027984619,0.0864093229174614,-0.5194205641746521
1772459199587206100,10.1992060546875,0.54038405418396,-0.41249051690101624,-0.3737190067768097
1772459199597203200,10.209203125,0.4155276417732239,-1.227475881576538,-0.39725780487060547
1772459199607200300,10.2192001953125,0.33853939175605774,-2.076347589492798,-0.8551191687583923
1772459199617197000,10.229197021484374,0.1886879950761795,-2.1159229278564453,-1.7678488492965698
1772459199627194000,10.239194091796875,-0.1827033907175064,-1.0012423992156982,-2.773533582687378
1772459199637191200,10.249191162109375,-0.49947819113731384,0.5368537902832031,-3.164344310760498
1772459199647188200,10.259188232421875,-0.18339668214321136,1.7607553005218506,-2.3609931468963623
1772459199657185000,10.26918505859375,0.5382850170135498,2.019458770751953,-0.5836955308914185
1772459199667182000,10.27918212890625,1.1616564989089966,0.9250550866127014,1.035852313041687
1772459199677179100,10.28917919921875,1.3065077066421509,-0.1953778862953186,1.6880345344543457
1772459199687176200,10.29917626953125,1.097817301750183,-0.8858993649482727,1.4309020042419434
1772459199697173000,10.309173095703125,0.8499109745025635,-1.1753803491592407,1.0864628553390503
1772459199707169000,10.3191689453125,0.8100879192352295,-0.936802089214325,0.7978523969650269
1772459199717166000,10.329166015625,0.9204281568527222,-0.7138115167617798,0.441219687461853
1772459199727163100,10.3391630859375,1.1811752319335938,-0.5471018552780151,0.10688403993844986
1772459199737160200,10.34916015625,1.5369452238082886,-0.2898595631122589,-0.1511712521314621
1772459199747157000,10.359156982421876,1.8889565467834473,0.15941889584064484,-0.38549962639808655
1772459199757154300,10.369154296875,2.098417043685913,0.8423281908035278,-0.6182565093040466
1772459199767151000,10.379151123046874,1.9204388856887817,1.5587913990020752,-0.8166327476501465
1772459199777148200,10.389148193359375,1.159890055656433,1.8657594919204712,-0.8455244898796082
1772459199787145200,10.399145263671874,0.08043781667947769,1.750193476676941,-0.6495323777198792
1772459199797142300,10.409142333984375,-0.8186335563659668,1.3791987895965576,-0.23779578506946564
1772459199807139000,10.41913916015625,-1.4013800621032715,0.9270036220550537,0.29189762473106384
1772459199817136000,10.42913623046875,-1.6367238759994507,0.41821223497390747,0.9198428988456726
1772459199827132200,10.439132080078124,-1.5850865840911865,-0.12372375279664993,1.5914396047592163
1772459199837129200,10.449129150390625,-1.3584952354431152,-0.5929879546165466,2.09883189201355
1772459199847126300,10.459126220703125,-1.0596392154693604,-0.7697880268096924,2.2752673625946045
1772459199857123000,10.469123046875,-0.7271446585655212,-0.7171850800514221,2.128798246383667
1772459199867120400,10.479120361328125,-0.4164597690105438,-0.46098899841308594,1.6959034204483032
1772459199877117200,10.4891171875,-0.14217820763587952,-0.00938119925558567,0.9577775001525879
1772459199887114000,10.499114013671875,0.02111138217151165,0.38650861382484436,0.07816893607378006
1772459199897111300,10.509111328125,0.03062685951590538,0.8113471269607544,-0.7896148562431335
1772459199907108000,10.519108154296875,-0.02365262433886528,1.1316121816635132,-1.5425647497177124
1772459199917105200,10.529105224609374,-0.15134580433368683,1.3279469013214111,-2.074084520339966
1772459199927102200,10.539102294921875,-0.31177595257759094,1.3057904243469238,-2.410623550415039
1772459199937099300,10.549099365234374,-0.3460545539855957,0.9663878083229065,-2.4915411472320557
1772459199947096000,10.559095947265625,-0.26203182339668274,0.49348124861717224,-2.3635151386260986
1772459199957093000,10.569093017578124,-0.16332650184631348,0.19601668417453766,-2.1745388507843018
1772459199967089200,10.579089111328125,-0.05120289698243141,0.29520586133003235,-1.7664167881011963
1772459199977086000,10.5890859375,-0.02215486392378807,0.5614902377128601,-1.2979403734207153
1772459199987083300,10.599083251953125,-0.07981016486883163,0.8164079785346985,-0.949033260345459
1772459199997080000,10.609080078125,-0.16972774267196655,0.9168205261230469,-0.7199226021766663
1772459200007077000,10.6190771484375,-0.20750175416469574,0.8169650435447693,-0.523720383644104
1772459200017074200,10.62907421875,-0.2461795061826706,0.5460717678070068,-0.3158888518810272
1772459200027071200,10.6390712890625,-0.31907740235328674,0.35179632902145386,-0.01294311136007309
1772459200037068000,10.649068115234375,-0.3691132366657257,0.07104979455471039,0.4177692234516144
1772459200047065300,10.6590654296875,-0.4401581287384033,-0.31270211935043335,0.7429446578025818
1772459200057062100,10.669062255859375,-0.4976905584335327,-0.4125290513038635,0.8341248035430908
1772459200067059000,10.679058837890626,-0.4486979842185974,-0.0752229169011116,0.7090752720832825
1772459200077056300,10.68905615234375,-0.2621404230594635,0.039789117872714996,0.35027098655700684
1772459200087053000,10.699052978515626,-0.14379914104938507,-0.08729133009910583,-0.25588497519493103
1772459200097050000,10.709050048828125,-0.33281660079956055,-0.3276377022266388,-0.9826517105102539
1772459200107046100,10.719046142578126,-0.8358789086341858,-0.21380382776260376,-1.5252164602279663
1772459200117043200,10.729043212890625,-1.1537073850631714,0.4049619138240814,-1.4147530794143677
1772459200127040300,10.739040283203124,-1.0030057430267334,0.9359112977981567,-0.760810375213623
1772459200137037000,10.749037109375,-0.500494122505188,1.001829743385315,0.039313916116952896
1772459200147034000,10.7590341796875,0.08835633099079132,0.5231584906578064,0.7008175253868103
1772459200157031200,10.76903125,0.40169766545295715,-0.04055692255496979,1.092968225479126
1772459200167028200,10.7790283203125,0.35295170545578003,-0.6167594790458679,1.064653754234314
1772459200177025000,10.78902490234375,0.056115638464689255,-0.9417421817779541,0.5073343515396118
1772459200187022300,10.799022216796875,-0.3269585072994232,-0.8194274306297302,-0.29765212535858154
1772459200197019100,10.80901904296875,-0.4784810543060303,-0.7885569334030151,-0.9547075629234314
1772459200207016200,10.81901611328125,-0.3013179898262024,-0.9169449806213379,-1.3065979480743408
1772459200217013200,10.82901318359375,0.05425076186656952,-0.8824139833450317,-1.5381178855895996
1772459200227010300,10.83901025390625,0.3695743680000305,-0.5951159000396729,-1.789043664932251
1772459200237006000,10.849006103515626,0.534736156463623,-0.33566194772720337,-2.041175127029419
1772459200247003100,10.859003173828125,0.6058510541915894,-0.30921995639801025,-2.2193729877471924
1772459200257000200,10.869000244140626,0.5803301334381104,-0.4718689024448395,-2.320204257965088
1772459200266997000,10.8789970703125,0.3834085464477539,-0.5761860013008118,-2.3656082153320312
1772459200276994300,10.888994384765626,0.01735719107091427,-0.47918400168418884,-2.2346227169036865
1772459200286991000,10.8989912109375,-0.30636894702911377,-0.24695265293121338,-1.7753139734268188
1772459200296988200,10.90898828125,-0.44272521138191223,-0.056061580777168274,-0.9315235018730164
1772459200306985200,10.918985107421875,-0.4259278476238251,-0.026816342025995255,0.11405297368764877
1772459200316982300,10.928982177734374,-0.33510085940361023,-0.16810891032218933,1.104455828666687
1772459200326979000,10.93897900390625,-0.19802050292491913,-0.469017893075943,1.8669393062591553
1772459200336976100,10.94897607421875,-0.11786480993032455,-0.8615968227386475,2.292616128921509
1772459200346973200,10.95897314453125,-0.14079515635967255,-1.1685421466827393,2.3170433044433594
1772459200356970000,10.968969970703125,-0.19762489199638367,-1.2336139678955078,1.9906328916549683
1772459200366967300,10.97896728515625,-0.22985127568244934,-0.9993135333061218,1.3657621145248413
1772459200376964000,10.988964111328125,-0.2514893710613251,-0.5339691638946533,0.5605397820472717
1772459200386960400,10.99896044921875,-0.21544456481933594,0.03124065324664116,-0.22495076060295105
1772459200396957200,11.008957275390625,-0.04096650332212448,0.5510834455490112,-0.7705410718917847
1772459200406954000,11.0189541015625,0.2309105545282364,0.8871355056762695,-0.9768422842025757
1772459200416951300,11.028951416015625,0.4972427785396576,1.0011379718780518,-0.8463484644889832
1772459200426948000,11.038947998046876,0.7238293290138245,0.9309242367744446,-0.45278093218803406
1772459200436945200,11.048945068359375,0.8981969356536865,0.7096045613288879,0.027777153998613358
1772459200446942200,11.058942138671876,0.9891358613967896,0.461023211479187,0.41239166259765625
1772459200456939300,11.068939208984375,0.9823250770568848,0.24983000755310059,0.6277604699134827
1772459200466936000,11.07893603515625,0.8793206810951233,0.19803231954574585,0.6589034795761108
1772459200476933000,11.08893310546875,0.7238318920135498,0.2684522271156311,0.5564861297607422
1772459200486930200,11.09893017578125,0.5834910273551941,0.40709027647972107,0.3894531726837158
1772459200496931000,11.10893115234375,0.48033103346824646,0.5695536732673645,0.18984785676002502
1772459200506928000,11.11892822265625,0.46262526512145996,0.6723021864891052,0.025348128750920296
1772459200516925200,11.12892529296875,0.5225697755813599,0.652023434638977,-0.037226296961307526
1772459200526922200,11.138922119140625,0.5833559036254883,0.476445734500885,-0.030925258994102478
1772459200536918300,11.148918212890624,0.6176840662956238,0.03242895007133484,-0.013147179037332535
1772459200546915000,11.1589150390625,0.6936345100402832,-0.6246287822723389,-0.054069578647613525
1772459200556912000,11.168912109375,0.8743311166763306,-1.1393793821334839,-0.22224296629428864
1772459200566909200,11.1789091796875,0.9941028356552124,-1.264744520187378,-0.5377431511878967
1772459200576906200,11.18890625,0.8709304928779602,-0.9078116416931152,-0.9347878694534302
1772459200586903000,11.198903076171876,0.5771632790565491,-0.49763721227645874,-1.2591841220855713
1772459200596900400,11.208900390625,0.3225608468055725,-0.45578598976135254,-1.3843294382095337
1772459200606897200,11.218897216796876,0.2360171675682068,-0.5271613597869873,-1.345456600189209
1772459200616894200,11.228894287109375,0.1265726238489151,-0.5548558831214905,-1.2814161777496338
1772459200626891300,11.238891357421876,0.017755333334207535,-0.4868568480014801,-1.5247400999069214
1772459200636888300,11.248888427734375,-0.03645850345492363,-0.3835335671901703,-1.9939342737197876
1772459200646885000,11.258885009765624,-0.021126950159668922,-0.31731724739074707,-2.3901774883270264
1772459200656882000,11.2688818359375,0.04201546683907509,-0.2904961407184601,-2.5545613765716553
1772459200666879200,11.278879150390624,0.10735133290290833,-0.20319481194019318,-2.517677068710327
1772459200676876000,11.2888759765625,0.20994135737419128,-0.025176336988806725,-2.266312837600708
1772459200686873000,11.298873046875,0.3928634822368622,0.06223500147461891,-1.751070499420166
1772459200696870100,11.3088701171875,0.5102670788764954,-0.04918734356760979,-0.9304682016372681
1772459200706866200,11.3188662109375,0.5279262661933899,-0.4576195776462555,-0.02938125841319561
1772459200716863200,11.32886328125,0.4440760910511017,-0.7734143733978271,0.30785486102104187
1772459200726860000,11.338860107421874,0.44327473640441895,-0.7622339129447937,0.4115051031112671
1772459200736857000,11.348857177734375,0.4687807857990265,-0.6401892900466919,0.45551782846450806
1772459200746854100,11.358854248046875,0.6780863404273987,-0.2987748980522156,0.21680884063243866
1772459200756851200,11.368851318359376,0.8794862627983093,0.144048810005188,-0.05305388569831848
1772459200766848000,11.378847900390625,0.987247884273529,0.4901902377605438,-0.14115311205387115
1772459200776845300,11.38884521484375,0.9400246739387512,0.6162580251693726,-0.07733793556690216
1772459200786842000,11.398842041015625,0.7610714435577393,0.4626554250717163,0.08898766338825226
1772459200796839200,11.408839111328126,0.48453184962272644,0.17929139733314514,0.3348398506641388
1772459200806836200,11.418836181640625,0.11785023659467697,-0.16564495861530304,0.5937331914901733
1772459200816833300,11.428833251953124,-0.2814510762691498,-0.415927529335022,0.7297229766845703
1772459200826830000,11.438830078125,-0.6381855010986328,-0.5300815105438232,0.7912018299102783
1772459200836827100,11.4488271484375,-0.8595730662345886,-0.5730579495429993,0.8606722354888916
1772459200846824200,11.45882421875,-0.9116037487983704,-0.5622934699058533,0.9035752415657043
1772459200856821000,11.468821044921874,-0.8208230137825012,-0.5016105771064758,0.9134830236434937
1772459200866817300,11.4788173828125,-0.6787593364715576,-0.4598676562309265,0.895603358745575
1772459200876814000,11.48881396484375,-0.5629841089248657,-0.45852747559547424,0.8186615705490112
1772459200886811100,11.49881103515625,-0.4715321958065033,-0.49423807859420776,0.6823809742927551
1772459200896808200,11.50880810546875,-0.40906962752342224,-0.5296967029571533,0.502823531627655
1772459200906805000,11.518804931640625,-0.3494590222835541,-0.5583972930908203,0.3591339886188507
1772459200916802000,11.528802001953125,-0.3033571243286133,-0.5834847688674927,0.2836571931838989
1772459200926799000,11.538799072265626,-0.2650430202484131,-0.5685191750526428,0.22229553759098053
1772459200936796200,11.548796142578125,-0.1992548108100891,-0.4784422516822815,0.15577325224876404
1772459200946793000,11.55879296875,-0.12392223626375198,-0.36999887228012085,0.07196836918592453
1772459200956790300,11.568790283203125,-0.03461726754903793,-0.2515712082386017,-0.022917212918400764
1772459200966787000,11.578787109375,0.04515186324715614,-0.14661067724227905,-0.1311454027891159
1772459200976784100,11.5887841796875,0.11919920146465302,-0.07367926836013794,-0.245356485247612
1772459200986781200,11.59878125,0.17273779213428497,-0.00076937151607126,-0.3394089639186859
1772459200996778200,11.6087783203125,0.2063189148902893,0.08007024228572845,-0.400086373090744
1772459201006775000,11.618775146484374,0.22904179990291595,0.15269118547439575,-0.39395764470100403
1772459201016772400,11.6287724609375,0.24685469269752502,0.17519626021385193,-0.3338998258113861
1772459201026769200,11.63876904296875,0.26721054315567017,0.17584820091724396,-0.27549004554748535
1772459201036765200,11.64876513671875,0.29538896679878235,0.19110310077667236,-0.20540139079093933
1772459201046762200,11.65876220703125,0.30801448225975037,0.19629493355751038,-0.1342662274837494
1772459201056759000,11.668759033203125,0.2929271161556244,0.17699389159679413,-0.0694308951497078
1772459201066756400,11.67875634765625,0.24081704020500183,0.13853251934051514,-0.007690033409744501
1772459201076753200,11.688753173828125,0.17243504524230957,0.07002950459718704,0.07625897228717804
1772459201086750200,11.698750244140625,0.08503836393356323,-0.020271359011530876,0.16106094419956207
1772459201096747300,11.708747314453126,0.004479741677641869,-0.0926656574010849,0.23120994865894318
1772459201106744000,11.718744140625,-0.04780903086066246,-0.15202964842319489,0.2858012914657593
1772459201116741000,11.7287412109375,-0.07829663902521133,-0.1880628615617752,0.33266791701316833
1772459201126738200,11.73873828125,-0.08430393040180206,-0.203842893242836,0.3682517409324646
1772459201136735200,11.7487353515625,-0.08739838004112244,-0.21682532131671906,0.4214024841785431
1772459201146732000,11.75873193359375,-0.09868273138999939,-0.24607694149017334,0.4603482782840729
1772459201156729300,11.768729248046874,-0.12086393684148788,-0.2611135244369507,0.462832510471344
1772459201166726100,11.77872607421875,-0.14935310184955597,-0.2560889422893524,0.45780739188194275
1772459201176723200,11.78872314453125,-0.16184493899345398,-0.27528074383735657,0.4524749517440796
1772459201186720300,11.79872021484375,-0.15303413569927216,-0.2711845338344574,0.36718666553497314
1772459201196717300,11.80871728515625,-0.13769064843654633,-0.2488640695810318,0.21467086672782898
1772459201206713000,11.818713134765625,-0.09322544932365417,-0.2009601891040802,0.08040601015090942
1772459201216710100,11.828710205078124,-0.03754906728863716,-0.13502605259418488,0.003108552424237132
1772459201226707200,11.838707275390625,0.024149183183908463,-0.047725241631269455,-0.0026225699111819267
1772459201236704000,11.8487041015625,0.07586783170700073,0.021397121250629425,0.03651208430528641
1772459201246701300,11.858701416015625,0.1229913979768753,0.055872540920972824,0.07396518439054489
1772459201256698000,11.868697998046875,0.17146706581115723,0.10389014333486557,0.0813666582107544
