time,seconds_elapsed,z,y,x
1772024948089611300,0.078611328125,0.013655934482812881,0.38260844349861145,1.0176440477371216
1772024948099608000,0.088608154296875,-0.10354472696781158,0.7958593368530273,1.0424953699111938
1772024948109606100,0.098606201171875,-0.43115001916885376,0.9805939197540283,0.9404556155204773
1772024948119603500,0.108603515625,-0.8286372423171997,0.9350991249084473,0.7977192401885986
1772024948129600300,0.118600341796875,-1.14311683177948,0.7668969035148621,0.7382597923278809
1772024948139597300,0.128597412109375,-1.3290438652038574,0.6243067383766174,0.7747360467910767
1772024948149594400,0.138594482421875,-1.4297316074371338,0.4473433792591095,0.879131555557251
1772024948159591200,0.148591064453125,-1.4508312940597534,0.1990632712841034,1.0082767009735107
1772024948169588200,0.158588134765625,-1.3536487817764282,-0.11961592733860016,1.1466538906097412
1772024948179585300,0.168585205078125,-1.1226941347122192,-0.47034597396850586,1.298854112625122
1772024948189582300,0.178582275390625,-0.8191515207290649,-1.147632122039795,1.0935847759246826
1772024948199579100,0.1885791015625,-0.9545455574989319,-1.414984107017517,0.10007651150226593
1772024948209576400,0.198576416015625,-1.0132782459259033,-1.3474206924438477,-0.23750637471675873
1772024948219573200,0.2085732421875,-1.081013560295105,-1.4468798637390137,-0.3296360671520233
1772024948229570300,0.2185703125,-1.2729640007019043,-1.5533581972122192,-0.39403948187828064
1772024948239567400,0.2285673828125,-1.6114760637283325,-1.4275074005126953,-0.47379687428474426
1772024948249564400,0.238564453125,-1.726539969444275,-1.3246475458145142,-0.43867623805999756
1772024948259561200,0.248561279296875,-1.7020729780197144,-1.1409695148468018,-0.381564199924469
1772024948269558300,0.258558349609375,-1.5788872241973877,-0.9648035764694214,-0.3988536596298218
1772024948279555300,0.268555419921875,-1.3620866537094116,-0.8997095227241516,-0.49011141061782837
1772024948289552100,0.27855224609375,-1.0869159698486328,-0.4488765597343445,-0.7331221103668213
1772024948299549400,0.288549560546875,-0.7839177846908569,-0.7249433398246765,-0.8900488615036011
1772024948309546200,0.298546142578125,-0.5490524172782898,-0.9493535161018372,-1.0085601806640625
1772024948319543300,0.308543212890625,-0.3457818627357483,-1.2167038917541504,-1.0961989164352417
1772024948329540400,0.318540283203125,-0.17444352805614471,-1.4822505712509155,-1.0503814220428467
1772024948339538400,0.328538330078125,-0.0656435415148735,-1.5095882415771484,-0.8572250604629517
1772024948349535200,0.33853515625,-0.04914112761616707,-1.4282281398773193,-0.5997148752212524
1772024948359532300,0.3485322265625,-0.1145734041929245,-1.3764575719833374,-0.3529554307460785
1772024948369529300,0.358529296875,-0.23296155035495758,-1.3369613885879517,-0.198238804936409
1772024948379526400,0.3685263671875,-0.31880295276641846,-1.3259632587432861,-0.10549848526716232
1772024948389523200,0.378523193359375,-0.3413803279399872,-1.3323533535003662,-0.06099168211221695
1772024948399520500,0.3885205078125,-0.3221442997455597,-1.2533326148986816,-0.0730518028140068
1772024948409517300,0.398517333984375,-0.28627005219459534,-1.1461209058761597,-0.1305171698331833
1772024948419514400,0.408514404296875,-0.26993101835250854,-1.078546404838562,-0.20486143231391907
1772024948429511400,0.418511474609375,-0.29515981674194336,-1.0780991315841675,-0.2919923961162567
1772024948439509000,0.428509033203125,-0.3644683361053467,-1.1101047992706299,-0.39557576179504395
1772024948449506000,0.438506103515625,-0.47294753789901733,-1.1136802434921265,-0.49034619331359863
1772024948459502800,0.4485029296875,-0.5924624800682068,-1.1324217319488525,-0.5408298373222351
1772024948469500000,0.4585,-0.7007161974906921,-1.115999698638916,-0.5493077635765076
1772024948479497000,0.4684970703125,-0.8049342632293701,-1.0376760959625244,-0.5400271415710449
1772024948489493800,0.47849365234375,-0.922289252281189,-0.9363069534301758,-0.5557333827018738
1772024948499491000,0.488490966796875,-1.0390859842300415,-0.8586127161979675,-0.6124398112297058
1772024948509487900,0.49848779296875,-1.1263399124145508,-0.8941564559936523,-0.696929931640625
1772024948519485000,0.50848486328125,-1.1500517129898071,-0.9423311352729797,-0.7843104004859924
1772024948529482000,0.51848193359375,-1.1120712757110596,-0.9223599433898926,-0.804222822189331
1772024948539479000,0.52847900390625,-1.0409221649169922,-0.859496533870697,-0.7798575758934021
1772024948549476900,0.538476806640625,-0.9753343462944031,-0.7577493786811829,-0.72543865442276
1772024948559474000,0.548473876953125,-0.9510740041732788,-0.6489354968070984,-0.6430806517601013
1772024948569471000,0.558470947265625,-0.9642284512519836,-0.5431938767433167,-0.5193323493003845
1772024948579468000,0.568468017578125,-0.9897234439849854,-0.423917293548584,-0.38300621509552
1772024948589464800,0.57846484375,-1.010217547416687,-0.35722020268440247,-0.26736295223236084
1772024948599462100,0.588462158203125,-1.0441789627075195,-0.41663452982902527,-0.18514399230480194
1772024948609459000,0.598458984375,-1.0817114114761353,-0.5102437734603882,-0.11620873212814331
1772024948619455700,0.608455810546875,-1.1324177980422974,-0.5262112617492676,-0.015066934749484062
1772024948629453000,0.618453125,-1.2180333137512207,-0.4735528826713562,0.1390448659658432
1772024948639449900,0.628449951171875,-1.3347615003585815,-0.3781187832355499,0.29298514127731323
1772024948649447000,0.638447021484375,-1.4305471181869507,-0.292864590883255,0.3885325789451599
1772024948659444000,0.64844384765625,-1.4402979612350464,-0.2610664367675781,0.42265433073043823
1772024948669441000,0.65844091796875,-1.3645830154418945,-0.27523326873779297,0.37181487679481506
1772024948679437800,0.668437744140625,-1.1869696378707886,-0.28837811946868896,0.2732432782649994
1772024948689435000,0.678434814453125,-0.8869296908378601,-0.25925934314727783,0.17189151048660278
1772024948699432000,0.688431884765625,-0.6179336309432983,-0.2709636688232422,0.07177609205245972
1772024948709429000,0.698428955078125,-0.5054966807365417,-0.405337393283844,-0.024963976815342903
1772024948719425800,0.70842578125,-0.5200676321983337,-0.49418070912361145,-0.12612521648406982
1772024948729422800,0.7184228515625,-0.5576274394989014,-0.5280211567878723,-0.2025514841079712
1772024948739420000,0.728419921875,-0.5764064192771912,-0.5166319012641907,-0.2182319164276123
1772024948749416700,0.738416748046875,-0.5846343636512756,-0.49805426597595215,-0.19050832092761993
1772024948759414000,0.7484140625,-0.5761790871620178,-0.4809381365776062,-0.1526016891002655
1772024948769412000,0.758412109375,-0.5316326022148132,-0.4825272560119629,-0.12810415029525757
1772024948779409000,0.768408935546875,-0.45591089129447937,-0.3471366763114929,-0.14992289245128632
1772024948789405700,0.77840576171875,-0.33897268772125244,-0.12924611568450928,-0.2590925693511963
1772024948799403000,0.788403076171875,-0.24404165148735046,-0.16646724939346313,-0.3568628132343292
1772024948809399800,0.79839990234375,-0.19142770767211914,-0.16522110998630524,-0.4529798924922943
1772024948819396900,0.80839697265625,-0.15505744516849518,-0.18661721050739288,-0.5119758248329163
1772024948829394000,0.818393798828125,-0.10360171645879745,-0.14026305079460144,-0.46600207686424255
1772024948839391000,0.828390869140625,-0.03497019037604332,-0.044583916664123535,-0.3731059730052948
1772024948849387800,0.8383876953125,0.043741125613451004,0.03995750844478607,-0.30504170060157776
1772024948859385000,0.848385009765625,0.09417527168989182,0.019153691828250885,-0.2823787331581116
1772024948869382000,0.8583818359375,0.09154646098613739,-0.09451080113649368,-0.2881890833377838
1772024948879379000,0.86837890625,0.05881914496421814,-0.2478630691766739,-0.27767786383628845
1772024948889376000,0.8783759765625,0.03630079701542854,-0.3779301643371582,-0.20247244834899902
1772024948899372800,0.888372802734375,0.011395180597901344,-0.42642951011657715,0.015332323499023914
1772024948909369900,0.898369873046875,0.009106583893299103,-0.45849552750587463,0.2983829975128174
1772024948919367000,0.908366943359375,0.02673165127635002,-0.4958580732345581,0.5296074151992798
1772024948929364000,0.918364013671875,0.0674041137099266,-0.5155920386314392,0.6993951797485352
1772024948939360800,0.92836083984375,0.1268879473209381,-0.5453446507453918,0.8155433535575867
1772024948949358000,0.938358154296875,0.16658902168273926,-0.5983763933181763,0.8996734023094177
1772024948959355000,0.94835498046875,0.17457157373428345,-0.695741593837738,0.9698929786682129
1772024948969353000,0.95835302734375,0.10204757750034332,-0.863383948802948,1.0337656736373901
1772024948979349800,0.968349853515625,0.017981700599193573,-1.18086838722229,1.026599645614624
1772024948989347000,0.97834716796875,0.0018946097698062658,-1.3962050676345825,0.8816789388656616
1772024948999343900,0.98834375,-0.09990951418876648,-1.5289535522460938,0.6143708229064941
1772024949009341000,0.9983408203125,-0.2879830002784729,-1.3241420984268188,0.24139805138111115
1772024949019338000,1.008337890625,-0.3272808790206909,-1.2726755142211914,-0.19477578997612
1772024949029335000,1.0183349609375,-0.26321321725845337,-0.8510485291481018,-0.37976187467575073
1772024949039331800,1.028331787109375,-0.1275147795677185,0.09122284501791,-0.2360987365245819
1772024949049329200,1.0383291015625,-0.04667066037654877,0.866094172000885,0.1763572096824646
1772024949059326000,1.048325927734375,-0.04803446680307388,1.0936435461044312,0.655276358127594
1772024949069322800,1.05832275390625,-0.06914001703262329,0.9931635856628418,1.1252635717391968
1772024949079320000,1.068320068359375,-0.1202000081539154,0.6400873064994812,1.5446687936782837
1772024949089316900,1.07831689453125,-0.20197023451328278,0.013303226791322231,1.8046791553497314
1772024949099314000,1.08831396484375,-0.25767236948013306,-0.7553350925445557,1.831238865852356
1772024949109311000,1.09831103515625,-0.19186580181121826,-1.4869173765182495,1.6835857629776
1772024949119308000,1.10830810546875,-0.028467552736401558,-2.0229740142822266,1.4689348936080933
1772024949129304800,1.118304931640625,0.1055537611246109,-2.32464337348938,1.2563880681991577
1772024949139302000,1.128302001953125,0.06193304806947708,-2.359891891479492,1.1284583806991577
1772024949149299000,1.138298828125,-0.1518310308456421,-2.1459031105041504,1.1121991872787476
1772024949159297000,1.148297119140625,-0.3986395001411438,-1.8220775127410889,1.1129273176193237
1772024949169293800,1.1582939453125,-0.415850430727005,-1.5944161415100098,1.0828291177749634
1772024949179291100,1.168291015625,-0.3957046866416931,-1.2738226652145386,0.9497983455657959
1772024949189288000,1.178287841796875,-0.43269503116607666,-0.9004839658737183,0.6351584792137146
1772024949199285000,1.188284912109375,-0.4266888201236725,-0.562329113483429,0.18399633467197418
1772024949209282000,1.198281982421875,-0.32223379611968994,-0.18249735236167908,-0.26582977175712585
1772024949219278800,1.20827880859375,-0.13206864893436432,0.2911834120750427,-0.5725276470184326
1772024949229276000,1.21827587890625,0.07478839159011841,0.768820583820343,-0.7460352778434753
1772024949239273000,1.22827294921875,0.276000052690506,1.1159939765930176,-0.827872097492218
1772024949249270000,1.23827001953125,0.45126843452453613,1.4042190313339233,-0.8404245376586914
1772024949259266800,1.248266845703125,0.4712975323200226,1.6482388973236084,-0.7689684629440308
1772024949269264000,1.258263916015625,0.270466685295105,1.6903040409088135,-0.6021779179573059
1772024949279261000,1.268260986328125,-0.018574979156255722,1.5955109596252441,-0.389868825674057
1772024949289258000,1.278258056640625,-0.27486932277679443,1.482275366783142,-0.20139306783676147
1772024949299254800,1.2882548828125,-0.44431376457214355,1.2754309177398682,-0.02904900349676609
1772024949309252000,1.298252197265625,-0.5595006942749023,0.9987030029296875,0.14997966587543488
1772024949319249000,1.308248779296875,-0.6624848246574402,0.7148353457450867,0.3278881311416626
1772024949329246000,1.318245849609375,-0.7634978294372559,0.4726221561431885,0.4955284893512726
1772024949339243800,1.328243896484375,-0.859338104724884,0.32049041986465454,0.6466689705848694
1772024949349241000,1.338240966796875,-0.8957998752593994,0.2817367613315582,0.7327489256858826
1772024949359238000,1.34823779296875,-0.8765974044799805,0.3043435215950012,0.7389945387840271
1772024949369235000,1.35823486328125,-0.7798829674720764,0.3492763638496399,0.6829169988632202
1772024949379232000,1.36823193359375,-0.6495558619499207,0.4541518986225128,0.5734072923660278
1772024949389228800,1.378228759765625,-0.5467538237571716,0.550724983215332,0.4170304834842682
1772024949399225900,1.388225830078125,-0.5282832384109497,0.617292582988739,0.21963590383529663
1772024949409223000,1.398222900390625,-0.6058105230331421,0.726032018661499,0.004249568097293377
1772024949419220000,1.408219970703125,-0.7999783754348755,0.8652482032775879,-0.2240224927663803
1772024949429216800,1.418216796875,-1.020614743232727,0.9744581580162048,-0.4253089129924774
1772024949439214000,1.428214111328125,-1.107992172241211,0.9581143856048584,-0.5887383818626404
1772024949449210600,1.438210693359375,-0.9816288352012634,0.7859204411506653,-0.6275598406791687
1772024949459207400,1.44820751953125,-0.6482346653938293,0.7692413330078125,-0.3118889629840851
1772024949469204700,1.458204833984375,-0.16007685661315918,0.8348835706710815,0.22445282340049744
1772024949479201500,1.468201416015625,0.3305075168609619,0.32002583146095276,0.47283467650413513
1772024949489198300,1.4781982421875,0.5522372126579285,-0.9522964954376221,0.1494799107313156
1772024949499195600,1.488195556640625,0.4474210739135742,-2.024247407913208,-0.2664720118045807
1772024949509193700,1.49819384765625,0.013789620250463486,-2.394582509994507,-0.38110506534576416
1772024949519190500,1.5081904296875,-0.29934751987457275,-1.873111367225647,-0.30743828415870667
1772024949529187300,1.518187255859375,-0.24341687560081482,-0.9910871386528015,-0.2976702153682709
1772024949539184600,1.5281845703125,0.103725366294384,-0.21359190344810486,-0.46205809712409973
1772024949549181400,1.538181396484375,0.4365515112876892,0.4319412410259247,-0.7593706250190735
1772024949559178500,1.548178466796875,0.6145692467689514,0.6771033406257629,-1.0944780111312866
1772024949569175600,1.558175537109375,0.6695741415023804,0.420427143573761,-1.3960578441619873
1772024949579172600,1.568172607421875,0.5733024477958679,-0.12567029893398285,-1.448760986328125
1772024949589169400,1.57816943359375,0.4180995523929596,-0.7178678512573242,-1.1079163551330566
1772024949599166700,1.588166748046875,0.3368030786514282,-1.1450668573379517,-0.5829535126686096
1772024949609163500,1.59816357421875,0.3370944559574127,-1.3135356903076172,-0.1659795492887497
1772024949619160600,1.60816064453125,0.4495275318622589,-1.18254816532135,0.004970614332705736
1772024949629157600,1.61815771484375,0.6611203551292419,-0.7022282481193542,-0.1602742075920105
1772024949639154400,1.628154541015625,0.8693899512290955,0.02776283770799637,-0.5855823755264282
1772024949649151500,1.6381513671875,0.9893473386764526,0.8068636059761047,-1.0803288221359253
1772024949659148500,1.6481484375,0.9557440876960754,1.4127269983291626,-1.4474599361419678
1772024949669146600,1.658146728515625,0.7937076687812805,1.7696337699890137,-1.560657024383545
1772024949679143700,1.668143798828125,0.5876495838165283,1.8764216899871826,-1.4048104286193848
1772024949689140500,1.678140380859375,0.3672102689743042,1.7433733940124512,-1.0561692714691162
1772024949699137500,1.688137451171875,0.16977016627788544,1.4233118295669556,-0.6011455655097961
1772024949709134600,1.698134521484375,0.01393582671880722,0.9592897891998291,-0.13759532570838928
1772024949719131400,1.70813134765625,-0.11846402287483215,0.39505085349082947,0.3024616837501526
1772024949729128700,1.718128662109375,-0.22612737119197845,-0.2114880383014679,0.6981936693191528
1772024949739125500,1.72812548828125,-0.30859747529029846,-0.7787634134292603,0.9514454007148743
1772024949749122600,1.73812255859375,-0.3659367859363556,-1.1675677299499512,1.0174099206924438
1772024949759119600,1.74811962890625,-0.36797836422920227,-1.2974117994308472,0.9030919075012207
1772024949769116700,1.75811669921875,-0.34636059403419495,-1.1786696910858154,0.687873899936676
1772024949779113500,1.768113525390625,-0.3159337043762207,-0.8695987462997437,0.4316384494304657
1772024949789110800,1.77811083984375,-0.2771873474121094,-0.47563081979751587,0.19295687973499298
1772024949799107600,1.788107666015625,-0.21932458877563477,-0.06982340663671494,0.04745320603251457
1772024949809104400,1.7981044921875,-0.13456189632415771,0.33558225631713867,0.010422828607261181
1772024949819101700,1.808101806640625,-0.05795260891318321,0.6666890978813171,0.06333345174789429
1772024949829099800,1.818099853515625,-0.0023376853205263615,0.8721641302108765,0.17307080328464508
1772024949839096600,1.8280966796875,0.009789817035198212,0.9809649586677551,0.334672749042511
1772024949849093400,1.83809326171875,-0.007620198652148247,1.0073466300964355,0.4695380926132202
1772024949859090700,1.848090576171875,-0.0631692111492157,0.8731875419616699,0.4960157573223114
1772024949869087500,1.85808740234375,-0.1640288382768631,0.6706050634384155,0.5268873572349548
1772024949879084500,1.86808447265625,-0.2167450487613678,0.5087029933929443,0.7480098605155945
1772024949889081600,1.87808154296875,-0.17017342150211334,0.35032474994659424,1.1694773435592651
1772024949899078700,1.88807861328125,0.013450996950268745,0.37289875745773315,1.6324650049209595
1772024949909075500,1.898075439453125,0.2846524119377136,0.32294410467147827,1.7869799137115479
1772024949919072500,1.908072509765625,0.5349405407905579,-0.0788523331284523,1.14748215675354
1772024949929069600,1.918069580078125,0.6015430092811584,-0.7083675265312195,-0.16147196292877197
1772024949939066600,1.928066650390625,0.4384547472000122,-1.4882301092147827,-1.5472654104232788
1772024949949063400,1.9380634765625,0.05056174471974373,-2.16800856590271,-2.2113559246063232
1772024949959060700,1.948060791015625,-0.4826022982597351,-2.2662696838378906,-2.046086311340332
1772024949969057500,1.9580576171875,-0.7323578000068665,-1.6300641298294067,-1.4203917980194092
1772024949979054300,1.968054443359375,-0.5762707591056824,-0.6152572631835938,-0.7569661736488342
1772024949989052400,1.978052490234375,-0.2303604632616043,0.25214752554893494,-0.47960978746414185
1772024949999049700,1.9880498046875,-0.01704392395913601,0.7044726610183716,-0.5610652565956116
1772024950009046500,1.998046630859375,0.03295212611556053,0.7631751298904419,-0.7514039278030396
1772024950019043300,2.008043212890625,-0.041579365730285645,0.29152926802635193,-0.9920532703399658
1772024950029040600,2.01804052734375,-0.14507539570331573,-0.5997890830039978,-1.0249390602111816
1772024950039037400,2.028037353515625,-0.2422722578048706,-1.52476167678833,-0.5965327024459839
1772024950049034500,2.038034423828125,-0.29608461260795593,-2.182443857192993,0.1264612078666687
1772024950059031600,2.048031494140625,-0.25617101788520813,-2.4836440086364746,0.8099319338798523
1772024950069028600,2.058028564453125,-0.17109301686286926,-2.4206912517547607,1.2571678161621094
1772024950079025400,2.068025390625,-0.0614546574652195,-2.01346755027771,1.3143309354782104
1772024950089022700,2.078022705078125,0.09791821986436844,-1.2508645057678223,0.9366829991340637
1772024950099019500,2.08801953125,0.24479739367961884,-0.19964584708213806,0.2291378676891327
1772024950109016600,2.0980166015625,0.33349132537841797,0.924713671207428,-0.5419101119041443
1772024950119013600,2.108013671875,0.39869242906570435,1.8710862398147583,-1.1187716722488403
1772024950129010400,2.118010498046875,0.40343165397644043,2.5276994705200195,-1.428427815437317
1772024950139007500,2.128007568359375,0.34113073348999023,2.7875442504882812,-1.4763580560684204
1772024950149005600,2.138005615234375,0.2926904857158661,2.6113176345825195,-1.2541322708129883
1772024950159002600,2.148002685546875,0.27355700731277466,2.0589590072631836,-0.8129516839981079
1772024950168999400,2.15799951171875,0.2535080909729004,1.2524662017822266,-0.27548748254776
1772024950178996500,2.16799658203125,0.21409808099269867,0.3629962205886841,0.2518940269947052
1772024950188993500,2.17799365234375,0.1683562994003296,-0.4757255017757416,0.6969707608222961
1772024950198990600,2.187990478515625,0.11755809187889099,-1.0782794952392578,1.0152297019958496
1772024950208987400,2.1979873046875,0.03798549994826317,-1.3858152627944946,1.2070711851119995
1772024950218984700,2.207984619140625,-0.09654301404953003,-1.4225008487701416,1.2830172777175903
1772024950228981500,2.2179814453125,-0.25280505418777466,-1.233324646949768,1.230486273765564
1772024950238978600,2.227978515625,-0.38813653588294983,-0.8790856003761292,1.035339593887329
1772024950248975600,2.2379755859375,-0.46269890666007996,-0.4263722002506256,0.7469390034675598
1772024950258972700,2.24797265625,-0.4729904234409332,0.03996485099196434,0.45697081089019775
1772024950268969500,2.257969482421875,-0.426574170589447,0.48340126872062683,0.20577122271060944
1772024950278966800,2.267966796875,-0.35226771235466003,0.8519833087921143,0.008441916666924953
1772024950288963600,2.277963623046875,-0.26948243379592896,1.1095930337905884,-0.07971678674221039
1772024950298961700,2.287961669921875,-0.2142689824104309,1.241927981376648,0.02064496837556362
1772024950308958500,2.29795849609375,-0.238841712474823,1.1953388452529907,0.302754670381546
1772024950318955800,2.307955810546875,-0.3785950541496277,0.9600650668144226,0.7102723717689514
1772024950328952600,2.31795263671875,-0.5627667903900146,0.601187527179718,1.1400845050811768
1772024950338949400,2.327949462890625,-0.6936795115470886,0.21964627504348755,1.460453748703003
1772024950348946700,2.33794677734375,-0.6407667398452759,0.13911232352256775,1.6103641986846924
1772024950358943500,2.347943603515625,-0.4085439145565033,0.5663310289382935,1.546525001525879
1772024950368940500,2.3579404296875,-0.16341258585453033,1.1227002143859863,1.1250112056732178
1772024950378937600,2.3679375,-0.01802104152739048,1.1815677881240845,0.19915500283241272
1772024950388934700,2.3779345703125,-0.03042670711874962,0.5255924463272095,-0.9422246813774109
1772024950398931500,2.387931396484375,-0.16725805401802063,-0.2852386236190796,-1.622093915939331
1772024950408928500,2.397928466796875,-0.33261290192604065,-0.9467092156410217,-1.5529028177261353
1772024950418925600,2.407925537109375,-0.4003767669200897,-0.8386027216911316,-0.9886232018470764
1772024950428922600,2.417922607421875,-0.3202452063560486,-0.25570496916770935,-0.37762823700904846
1772024950438919400,2.42791943359375,-0.24689136445522308,0.13159960508346558,0.08775436878204346
1772024950448918000,2.43791796875,-0.223641037940979,-0.019987139850854874,0.3398064970970154
1772024950458915000,2.4479150390625,-0.1689455658197403,-0.40027615427970886,0.5431857109069824
1772024950468912000,2.457912109375,-0.04108720272779465,-1.0162827968597412,0.6552638411521912
1772024950478909000,2.467908935546875,0.11365284025669098,-1.8169128894805908,0.7312036156654358
1772024950488906000,2.477906005859375,0.29958489537239075,-2.479480266571045,0.9659135341644287
1772024950498903000,2.487903076171875,0.5029593706130981,-2.7744359970092773,1.3337839841842651
1772024950508899800,2.49789990234375,0.6716572642326355,-2.678591728210449,1.5530139207839966
1772024950518897200,2.507897216796875,0.739839494228363,-2.2110705375671387,1.4982802867889404
1772024950528894000,2.51789404296875,0.7274553775787354,-1.4647220373153687,1.2443733215332031
1772024950538891000,2.52789111328125,0.71986323595047,-0.5572845935821533,0.8658590316772461
1772024950548888000,2.53788818359375,0.7692622542381287,0.33787649869918823,0.40149563550949097
1772024950558885000,2.547885009765625,0.8339805006980896,1.0587366819381714,-0.033759161829948425
1772024950568882000,2.5578818359375,0.8628623485565186,1.581691861152649,-0.3090272545814514
1772024950578879200,2.567879150390625,0.8641928434371948,1.8766521215438843,-0.38755908608436584
1772024950588876000,2.5778759765625,0.8249235153198242,1.9143683910369873,-0.29167798161506653
1772024950598874000,2.5878740234375,0.7463828921318054,1.7065004110336304,-0.09150360524654388
1772024950608871000,2.597870849609375,0.6476694941520691,1.3011586666107178,0.12328211963176727
1772024950618868200,2.6078681640625,0.5578176379203796,0.8183237314224243,0.2785332202911377
1772024950628865000,2.617864990234375,0.483364462852478,0.37731409072875977,0.35888373851776123
1772024950638861800,2.62786181640625,0.43855759501457214,0.05200444161891937,0.39545106887817383
1772024950648859100,2.637859130859375,0.40445712208747864,-0.1332540512084961,0.41408947110176086
1772024950658856000,2.64785595703125,0.36209288239479065,-0.1710384488105774,0.41417786478996277
1772024950668853000,2.65785302734375,0.2859061062335968,-0.06628235429525375,0.38062146306037903
1772024950678850000,2.66785009765625,0.16344089806079865,0.12460663169622421,0.3173055946826935
1772024950688847000,2.67784716796875,0.011210483498871326,0.3216017782688141,0.2452615648508072
1772024950698844000,2.687843994140625,-0.1628957986831665,0.5132519006729126,0.16310171782970428
1772024950708841000,2.697841064453125,-0.33200186491012573,0.6969273090362549,0.05972212553024292
1772024950718838000,2.707838134765625,-0.46220460534095764,0.8199232816696167,-0.07640588283538818
1772024950728835000,2.7178349609375,-0.5345439314842224,0.9185904860496521,-0.2571040987968445
1772024950738832000,2.727831787109375,-0.5659982562065125,1.0103070735931396,-0.4644370377063751
1772024950748830200,2.737830322265625,-0.5718080401420593,1.0574167966842651,-0.6517823934555054
1772024950758827000,2.747826904296875,-0.587967038154602,1.0286977291107178,-0.7581474184989929
1772024950768824000,2.757823974609375,-0.6333135962486267,0.8854770064353943,-0.7682693004608154
1772024950778820900,2.76782080078125,-0.7978101372718811,0.6644575595855713,-0.6859349608421326
1772024950788818200,2.777818115234375,-0.9966863393783569,0.48968949913978577,-0.5268636345863342
1772024950798815000,2.78781494140625,-1.0804592370986938,0.4860614836215973,-0.3342198431491852
1772024950808811800,2.797811767578125,-0.9434964060783386,0.7129594087600708,-0.19463717937469482
1772024950818809000,2.80780908203125,-0.6636642217636108,1.121764063835144,-0.1769665628671646
1772024950828806000,2.817805908203125,-0.42587628960609436,1.1861597299575806,-0.3099689185619354
1772024950838803000,2.827802978515625,-0.44323211908340454,0.4868934452533722,-0.5375066995620728
1772024950848800000,2.837800048828125,-0.6559802293777466,-0.6277421116828918,-0.5696405172348022
1772024950858797000,2.847797119140625,-0.7815237641334534,-1.6288232803344727,-0.42990949749946594
1772024950868793900,2.8577939453125,-0.7967658042907715,-1.967748999595642,-0.16652685403823853
1772024950878791200,2.867791259765625,-0.7298781275749207,-1.8075330257415771,0.19950786232948303
1772024950888788000,2.8777880859375,-0.6511390805244446,-1.3089935779571533,0.49638548493385315
1772024950898786000,2.8877861328125,-0.6484413146972656,-0.8851600885391235,0.4639063775539398
1772024950908782800,2.897782958984375,-0.6806966066360474,-0.7313883900642395,0.24331852793693542
1772024950918780200,2.9077802734375,-0.6190372705459595,-1.0747292041778564,-0.011980083771049976
1772024950928777000,2.91777685546875,-0.38620877265930176,-1.673934817314148,-0.19499345123767853
1772024950938774000,2.92777392578125,-0.05840800330042839,-2.0668208599090576,-0.2284795045852661
1772024950948771000,2.93777099609375,0.2602647542953491,-2.092179536819458,-0.22742101550102234
1772024950958767900,2.947767822265625,0.4725077748298645,-1.785224437713623,-0.3604104816913605
1772024950968765000,2.957764892578125,0.5031229257583618,-1.2963532209396362,-0.6609700322151184
1772024950978762000,2.967761962890625,0.36584019660949707,-0.8138896226882935,-1.012294054031372
1772024950988759000,2.977759033203125,0.15951046347618103,-0.4234905242919922,-1.2868059873580933
1772024950998755800,2.987755859375,0.0030926386825740337,-0.11728427559137344,-1.436696171760559
1772024951008753200,2.997753173828125,-0.019316669553518295,0.1801757961511612,-1.4261986017227173
1772024951018750000,3.00775,0.05959785729646683,0.47009098529815674,-1.2767219543457031
1772024951028747000,3.0177470703125,0.15730364620685577,0.6959095001220703,-1.0117751359939575
1772024951038744000,3.027744140625,0.2329656481742859,0.8315019607543945,-0.6895502209663391
1772024951048742100,3.0377421875,0.2756355106830597,0.8379743695259094,-0.3732147216796875
1772024951058739000,3.047739013671875,0.2796664535999298,0.6666673421859741,-0.11209019273519516
1772024951068736000,3.057736083984375,0.2376473844051361,0.3951435983181,0.044877052307128906
1772024951078733000,3.067733154296875,0.15340042114257812,0.1019737720489502,0.10057307034730911
1772024951088730000,3.077730224609375,0.03998527303338051,-0.1562332957983017,0.0837201401591301
1772024951098727000,3.087726806640625,-0.08594842255115509,-0.31133076548576355,0.04313010349869728
1772024951108724200,3.09772412109375,-0.2257072478532791,-0.3427717685699463,0.01525898464024067
1772024951118721000,3.107720947265625,-0.34876924753189087,-0.28714099526405334,0.007311846129596233
1772024951128717800,3.1177177734375,-0.4464877247810364,-0.13622121512889862,0.011763394810259342
1772024951138715100,3.127715087890625,-0.49737221002578735,0.10092610120773315,0.030337344855070114
1772024951148712000,3.1377119140625,-0.49318304657936096,0.38588863611221313,0.0743456706404686
1772024951158709000,3.147708984375,-0.4590815305709839,0.6220390796661377,0.14781484007835388
1772024951168706000,3.1577060546875,-0.41768336296081543,0.7793800830841064,0.26597750186920166
1772024951178703000,3.167703125,-0.40046629309654236,0.8476163744926453,0.423528254032135
1772024951188700000,3.177699951171875,-0.42072415351867676,0.8343971967697144,0.6012868285179138
1772024951198698000,3.187697998046875,-0.47827479243278503,0.7505859136581421,0.7874723672866821
1772024951208695000,3.197695068359375,-0.5386679172515869,0.619705080986023,0.9767627716064453
1772024951218692000,3.207692138671875,-0.6066171526908875,0.445048063993454,1.1586012840270996
1772024951228689000,3.21768896484375,-0.6839949488639832,0.2856189012527466,1.3384507894515991
1772024951238686200,3.227686279296875,-0.7207894325256348,0.02873888798058033,1.542586088180542
1772024951248683000,3.23768310546875,-0.6799887418746948,-0.3037989139556885,1.7159420251846313
1772024951258680000,3.24768017578125,-0.5474972724914551,-0.4639896750450134,1.7749459743499756
1772024951268677000,3.257677001953125,-0.32584476470947266,-0.3341485261917114,1.6147500276565552
1772024951278674200,3.267674072265625,-0.1653088927268982,-0.02588603086769581,1.145276427268982
1772024951288671000,3.2776708984375,-0.16003435850143433,-0.03865712136030197,0.4214695394039154
1772024951298668000,3.28766796875,-0.30685150623321533,-0.44622382521629333,-0.38106977939605713
1772024951308665000,3.2976650390625,-0.5088770389556885,-0.7824632525444031,-1.0303313732147217
1772024951318662000,3.307661865234375,-0.6453779339790344,-0.665019154548645,-1.3493213653564453
1772024951328659000,3.317658935546875,-0.671880841255188,-0.063991479575634,-1.2963213920593262
1772024951338656000,3.327656005859375,-0.5344393253326416,0.904600203037262,-1.0722132921218872
1772024951348654000,3.337654052734375,-0.2621082663536072,1.8524678945541382,-0.9315676689147949
1772024951358651000,3.34765087890625,0.04289078712463379,2.365581750869751,-0.965411901473999
1772024951368648000,3.35764794921875,0.2819035053253174,2.380220890045166,-1.186387538909912
1772024951378645000,3.36764501953125,0.4045676589012146,1.9123014211654663,-1.4181100130081177
1772024951388642000,3.37764208984375,0.4514094591140747,0.9703258275985718,-1.5315872430801392
1772024951398638800,3.387638916015625,0.36967384815216064,-0.36444833874702454,-1.6132408380508423
1772024951408636200,3.39763623046875,0.15745264291763306,-1.8271653652191162,-1.7707037925720215
1772024951418633000,3.407633056640625,-0.14225737750530243,-3.089456558227539,-2.072072744369507
1772024951428630000,3.417630126953125,-0.41002675890922546,-3.8678853511810303,-2.294187545776367
1772024951438627000,3.427626953125,-0.47275644540786743,-4.105944633483887,-2.2430126667022705
1772024951448623900,3.437623779296875,-0.3177538216114044,-3.7863190174102783,-1.9101142883300781
1772024951458620700,3.44762060546875,-0.0690196305513382,-3.0463950634002686,-1.3798720836639404
1772024951468618000,3.457617919921875,0.1983494758605957,-1.979531168937683,-0.732447624206543
1772024951478614800,3.46761474609375,0.45654296875,-0.7987748384475708,-0.07028800249099731
1772024951488611600,3.477611572265625,0.6745331883430481,0.1594124436378479,0.4959354102611542
1772024951498609700,3.487609619140625,0.8258606791496277,0.8355371356010437,0.8973944187164307
1772024951508607000,3.49760693359375,0.8919734954833984,1.2368953227996826,1.1272430419921875
1772024951518603800,3.507603759765625,0.8890522718429565,1.3436439037322998,1.241373062133789
1772024951528600600,3.5176005859375,0.8178011775016785,1.2567951679229736,1.235169768333435
1772024951538598000,3.527597900390625,0.7211459875106812,1.0377116203308105,1.1412230730056763
1772024951548594700,3.5375947265625,0.6250913739204407,0.7760365009307861,1.0059895515441895
1772024951558591700,3.547591796875,0.536530613899231,0.5680761337280273,0.8621328473091125
1772024951568588800,3.5575888671875,0.46878430247306824,0.4518192410469055,0.7292184829711914
1772024951578585900,3.5675859375,0.4153549075126648,0.43898385763168335,0.6054427027702332
1772024951588582700,3.577582763671875,0.34624627232551575,0.4938580095767975,0.5125119090080261
1772024951598580000,3.587580078125,0.265237957239151,0.578148365020752,0.4559847414493561
1772024951608576800,3.59757666015625,0.19106028974056244,0.6481258869171143,0.45084166526794434
1772024951618573800,3.60757373046875,0.12213049083948135,0.7068176865577698,0.48818397521972656
1772024951628571000,3.61757080078125,0.053193747997283936,0.7413129806518555,0.5510781407356262
1772024951638569000,3.62756884765625,-0.02018006518483162,0.7493261694908142,0.6399691700935364
1772024951648565800,3.637565673828125,-0.11988614499568939,0.7273500561714172,0.7152274250984192
1772024951658562800,3.647562744140625,-0.26573070883750916,0.6416679620742798,0.8052433133125305
1772024951668560000,3.657559814453125,-0.33123713731765747,0.4474444091320038,0.8215188980102539
1772024951678557000,3.667556884765625,-0.39243072271347046,0.1778196096420288,0.7549225687980652
1772024951688553700,3.6775537109375,-0.47036388516426086,-0.12747658789157867,0.5768128633499146
1772024951698550800,3.68755078125,-0.5964584350585938,-0.4196682274341583,0.2787896990776062
1772024951708547800,3.6975478515625,-0.5746075510978699,-0.5927687287330627,0.1428830474615097
1772024951718544600,3.707544677734375,-0.3411117494106293,-0.33059462904930115,0.0932137668132782
1772024951728542000,3.7175419921875,0.016306594014167786,0.30276060104370117,0.11262780427932739
1772024951738538800,3.727538818359375,0.24745140969753265,0.6692269444465637,-0.02680438570678234
1772024951748535800,3.737535888671875,0.0617050901055336,0.40782418847084045,-0.2511809468269348
1772024951758532900,3.747532958984375,-0.20135903358459473,0.02717139571905136,-0.14280840754508972
1772024951768530000,3.757530029296875,-0.2914830446243286,-0.04693696275353432,0.2628661096096039
1772024951778526700,3.767526611328125,-0.3174203634262085,0.1488916575908661,0.7789773941040039
1772024951788524800,3.77752490234375,-0.22976495325565338,0.2772802710533142,1.154157042503357
1772024951798521900,3.78752197265625,-0.1083700880408287,0.304864764213562,1.2713077068328857
1772024951808519000,3.797518798828125,0.04501306265592575,0.23746958374977112,1.2175031900405884
1772024951818515700,3.807515625,0.2765083312988281,-0.03318268060684204,0.959135115146637
1772024951828513000,3.817512939453125,0.42989522218704224,-0.5930644273757935,0.515199601650238
1772024951838509800,3.827509765625,0.5142855048179626,-1.2425543069839478,0.2641330659389496
1772024951848506600,3.837506591796875,0.6068652272224426,-1.7839370965957642,0.3141670525074005
1772024951858504000,3.84750390625,0.6364678144454956,-2.158060073852539,0.5243831276893616
1772024951868500700,3.857500732421875,0.5438684225082397,-2.3762402534484863,0.6617388725280762
1772024951878497800,3.867497802734375,0.35775765776634216,-2.4081552028656006,0.5370033383369446
1772024951888494800,3.877494873046875,0.16211317479610443,-2.1980807781219482,0.09024441987276077
1772024951898492000,3.887491943359375,-0.010013044811785221,-1.7641384601593018,-0.6245416402816772
1772024951908488700,3.89748876953125,-0.13560958206653595,-1.113487958908081,-1.462238073348999
1772024951918485800,3.90748583984375,-0.20066474378108978,-0.28526490926742554,-2.208397626876831
1772024951928483800,3.91748388671875,-0.18678370118141174,0.5949645638465881,-2.673774242401123
1772024951938481000,3.92748095703125,-0.07401958853006363,1.3960466384887695,-2.7813472747802734
1772024951948477700,3.937477783203125,0.10404588282108307,2.028146743774414,-2.5604233741760254
1772024951958474800,3.947474853515625,0.25289687514305115,2.3232836723327637,-2.128117799758911
1772024951968471800,3.957471923828125,0.33197852969169617,2.2434444427490234,-1.6123665571212769
1772024951978468900,3.96746875,0.37431105971336365,1.8526062965393066,-1.0909974575042725
1772024951988465700,3.977465576171875,0.4038974642753601,1.2583898305892944,-0.564211905002594
1772024951998463000,3.987462890625,0.4011799693107605,0.5737688541412354,-0.09129549562931061
1772024952008459800,3.997459716796875,0.35223308205604553,-0.09006354957818985,0.3116529583930969
1772024952018456600,4.00745654296875,0.2939141094684601,-0.6040552258491516,0.6480661630630493
1772024952028454000,4.017453857421875,0.23019036650657654,-0.9208648800849915,0.8821589946746826
1772024952038450700,4.02745068359375,0.14768670499324799,-1.0331122875213623,1.0317972898483276
1772024952048447700,4.03744775390625,0.07173268496990204,-0.9677411913871765,1.102281928062439
1772024952058444800,4.04744482421875,0.016421493142843246,-0.7602431178092957,1.0914311408996582
1772024952068443000,4.05744287109375,-0.050903622061014175,-0.46062469482421875,1.0163075923919678
1772024952078439700,4.067439697265625,-0.11896523088216782,-0.10397788882255554,0.8849804997444153
1772024952088436700,4.077436767578125,-0.17525500059127808,0.2977462410926819,0.7294721603393555
1772024952098433800,4.087433837890625,-0.24435710906982422,0.6348137855529785,0.5540121793746948
1772024952108430800,4.097430908203125,-0.31204360723495483,0.8830540776252747,0.37835004925727844
1772024952118427600,4.107427734375,-0.38788163661956787,1.0383342504501343,0.22333940863609314
1772024952128425000,4.117425048828125,-0.5036042332649231,1.0562571287155151,0.09046445786952972
1772024952138421800,4.127421875,-0.693758487701416,0.9196860194206238,-0.014121869578957558
1772024952148418800,4.137418701171875,-0.9805395007133484,0.36626505851745605,0.14794686436653137
1772024952158416000,4.147415771484375,-1.110875129699707,-0.18882745504379272,0.587419331073761
1772024952168412700,4.15741259765625,-1.0897568464279175,-0.5716893672943115,1.1454299688339233
1772024952178409700,4.16740966796875,-0.8789610862731934,-0.4976484477519989,1.7315703630447388
1772024952188406800,4.17740673828125,-0.437035471200943,-0.013470263220369816,2.34763503074646
1772024952198403800,4.18740380859375,-0.0024757646024227142,0.3954181969165802,2.5783016681671143
1772024952208400600,4.197400634765625,0.1284947693347931,0.5247032642364502,2.2355031967163086
1772024952218398700,4.207398681640625,0.07117263227701187,0.4070967435836792,1.6581125259399414
1772024952228395800,4.217395751953125,0.06330352276563644,0.40415701270103455,1.1234650611877441
1772024952238392800,4.227392822265625,-0.027100680395960808,0.6963697075843811,0.9696285724639893
1772024952248389600,4.2373896484375,-0.04774869978427887,1.0341873168945312,1.0518360137939453
1772024952258387000,4.247386962890625,0.007054358720779419,1.2820072174072266,0.9530268311500549
1772024952268383700,4.2573837890625,0.06419007480144501,1.4771052598953247,0.6839849948883057
1772024952278380800,4.267380859375,0.19775186479091644,1.4526240825653076,0.20226018130779266
1772024952288377900,4.2773779296875,0.2913682162761688,1.0136914253234863,-0.4406103491783142
1772024952298375000,4.287375,0.3102218210697174,0.33062946796417236,-0.8328710794448853
1772024952308371700,4.297371826171875,0.3233047425746918,-0.3740999400615692,-0.773326575756073
1772024952318369000,4.307369140625,0.34228163957595825,-0.9421351552009583,-0.39295658469200134
1772024952328365800,4.31736572265625,0.3491668105125427,-1.340738296508789,0.06852734833955765
1772024952338362600,4.327362548828125,0.3820962607860565,-1.5848768949508667,0.4071733057498932
1772024952348360000,4.33735986328125,0.44987067580223083,-1.6449910402297974,0.5164653658866882
1772024952358358000,4.34735791015625,0.5153015851974487,-1.4290603399276733,0.37065863609313965
1772024952368354800,4.357354736328125,0.557165265083313,-0.9230931401252747,0.07586314529180527
1772024952378351600,4.3673515625,0.6012827157974243,-0.21529017388820648,-0.24042078852653503
1772024952388349000,4.377348876953125,0.652794361114502,0.5324126482009888,-0.45942145586013794
1772024952398345700,4.387345703125,0.702466607093811,1.1483761072158813,-0.5366200804710388
1772024952408342800,4.3973427734375,0.7312255501747131,1.5443488359451294,-0.5032999515533447
1772024952418339800,4.40733984375,0.7194833755493164,1.6878224611282349,-0.3830704987049103
1772024952428337000,4.4173369140625,0.6901055574417114,1.5500444173812866,-0.1926286220550537
1772024952438333700,4.427333740234375,0.6560154557228088,1.163050889968872,0.015398072078824043
1772024952448330500,4.43733056640625,0.5711904168128967,0.5986883044242859,0.21176059544086456
1772024952458327300,4.447327392578125,0.43977808952331543,-0.019470233470201492,0.35691168904304504
1772024952468324000,4.457323974609375,0.2902762293815613,-0.5799936056137085,0.42649659514427185
1772024952478321400,4.4673212890625,0.12077746540307999,-0.9201290607452393,0.4178154766559601
1772024952488318200,4.477318115234375,-0.016976550221443176,-0.9861863851547241,0.3606640100479126
1772024952498316300,4.48731640625,-0.11238563060760498,-0.8578156232833862,0.2671132981777191
1772024952508313300,4.497313232421875,-0.17529919743537903,-0.5823037624359131,0.13564610481262207
1772024952518310400,4.507310302734375,-0.20317716896533966,-0.21479657292366028,-0.010081264190375805
1772024952528307200,4.51730712890625,-0.22896923124790192,0.1502499282360077,-0.1324305385351181
1772024952538304300,4.52730419921875,-0.32315006852149963,0.4068138003349304,-0.16712354123592377
1772024952548301300,4.53730126953125,-0.4032612442970276,0.4898782968521118,-0.114141084253788
1772024952558298400,4.54729833984375,-0.3910849988460541,0.4616274833679199,-0.0302341990172863
1772024952568295200,4.557295166015625,-0.36072567105293274,0.3324300944805145,0.08132196217775345
1772024952578292500,4.56729248046875,-0.3331289291381836,0.05721639096736908,0.11561628431081772
1772024952588289300,4.577289306640625,-0.22404196858406067,-0.3371311128139496,0.09402822703123093
1772024952598286300,4.587286376953125,-0.11536342650651932,-0.6461190581321716,-0.015419702976942062
1772024952608283400,4.597283447265625,-0.13413698971271515,-0.6997645497322083,-0.0898367390036583
1772024952618280400,4.607280517578125,-0.2469988316297531,-0.49490275979042053,0.05472789704799652
1772024952628277200,4.61727734375,-0.3406026363372803,-0.13211803138256073,0.43743789196014404
1772024952638275300,4.627275390625,-0.27246060967445374,0.45405811071395874,0.8468747138977051
1772024952648272400,4.6372724609375,-0.12010212242603302,0.8337271809577942,0.82392817735672
1772024952658269400,4.64726953125,-0.126247376203537,0.7055562138557434,0.18139956891536713
1772024952668266200,4.657266357421875,-0.3003898859024048,0.3092488646507263,-0.5823355317115784
1772024952678263300,4.66726318359375,-0.4856042265892029,-0.20803792774677277,-1.3056145906448364
1772024952688260400,4.67726025390625,-0.7077745795249939,-0.2610380947589874,-1.5656424760818481
1772024952698257200,4.687257080078125,-0.7122377157211304,0.009915907867252827,-1.2489674091339111
1772024952708254500,4.69725439453125,-0.48334383964538574,0.5455662608146667,-0.6904065608978271
1772024952718251300,4.707251220703125,-0.2656085789203644,1.147685170173645,-0.2548462748527527
1772024952728248300,4.717248291015625,-0.06745781749486923,1.254306435585022,-0.26283329725265503
1772024952738245400,4.727245361328125,0.02195061929523945,0.6513763070106506,-0.7212637066841125
1772024952748242400,4.737242431640625,-0.007509646005928516,-0.11804871261119843,-1.149092435836792
1772024952758239200,4.7472392578125,-0.05996566265821457,-0.6198495030403137,-1.180376410484314
1772024952768237300,4.7572373046875,-0.11117401719093323,-0.7452003955841064,-0.8145250082015991
1772024952778234400,4.767234375,-0.14102113246917725,-0.6591888070106506,-0.2828899025917053
1772024952788231400,4.7772314453125,-0.1061551570892334,-0.4888623058795929,0.19106072187423706
1772024952798228200,4.787228271484375,0.013863921165466309,-0.2577979266643524,0.45676109194755554
1772024952808225300,4.797225341796875,0.17180389165878296,0.029060883447527885,0.4798038899898529
1772024952818222300,4.807222412109375,0.30307137966156006,0.3998014032840729,0.3032477796077728
1772024952828219400,4.817219482421875,0.39265623688697815,0.8084375858306885,0.022316837683320045
1772024952838216200,4.82721630859375,0.4472568929195404,1.2149251699447632,-0.22795744240283966
1772024952848213200,4.837213134765625,0.5128656029701233,1.5322120189666748,-0.360178679227829
1772024952858210300,4.847210205078125,0.5683482885360718,1.6604875326156616,-0.39729034900665283
1772024952868207000,4.85720703125,0.611545979976654,1.5895286798477173,-0.3560789227485657
1772024952878204400,4.867204345703125,0.6554103493690491,1.3268710374832153,-0.23982425034046173
1772024952888201200,4.877201171875,0.696451723575592,0.8957327604293823,-0.06438617408275604
1772024952898198300,4.8871982421875,0.7208095192909241,0.33576107025146484,0.1556820124387741
1772024952908196000,4.897196044921875,0.7053928375244141,-0.2884266674518585,0.39192017912864685
1772024952918193400,4.907193359375,0.6397033333778381,-0.8569473624229431,0.6258876919746399
1772024952928190200,4.917190185546875,0.537817656993866,-1.245752215385437,0.8243169188499451
1772024952938187300,4.927187255859375,0.3882582187652588,-1.3938865661621094,0.9476942420005798
1772024952948184300,4.937184326171875,0.1868603378534317,-1.346985101699829,0.9621283411979675
1772024952958181400,4.947181396484375,-0.04153208062052727,-1.1695729494094849,0.894706130027771
1772024952968178200,4.95717822265625,-0.25829580426216125,-0.8932023048400879,0.7707394361495972
1772024952978175500,4.967175537109375,-0.4252222180366516,-0.5503640174865723,0.5973671078681946
1772024952988172300,4.97717236328125,-0.5237792730331421,-0.20930738747119904,0.4277189373970032
1772024952998169000,4.987169189453125,-0.5630564093589783,0.06364532560110092,0.27642369270324707
1772024953008166400,4.99716650390625,-0.5943566560745239,0.23003172874450684,0.14376436173915863
1772024953018163200,5.0071630859375,-0.611991286277771,0.2742849290370941,0.0486341193318367
1772024953028160300,5.01716015625,-0.5944973826408386,0.19072496891021729,-0.0013059423072263598
1772024953038158300,5.027158447265625,-0.5741285085678101,0.01014401949942112,0.021756764501333237
1772024953048155400,5.0371552734375,-0.615419328212738,-0.25763416290283203,0.1280708909034729
1772024953058152200,5.047152099609375,-0.7372781038284302,-0.577277660369873,0.26924610137939453
1772024953068149200,5.057149169921875,-0.8741246461868286,-0.8155797123908997,0.3428943455219269
1772024953078146300,5.067146240234375,-0.9323943257331848,-0.7665327787399292,0.24548979103565216
1772024953088143400,5.077143310546875,-0.8604615330696106,-0.3578486442565918,-0.10313650965690613
1772024953098140200,5.08714013671875,-0.7345529198646545,0.08233458548784256,-0.8371753096580505
1772024953108137500,5.097137451171875,-0.5879557728767395,0.030108995735645294,-1.8388245105743408
1772024953118134300,5.10713427734375,-0.4909607470035553,-0.8090554475784302,-2.594761610031128
1772024953128131300,5.11713134765625,-0.4349426031112671,-1.86573326587677,-2.5570998191833496
1772024953138128400,5.12712841796875,-0.4037647247314453,-2.3434622287750244,-1.6950466632843018
1772024953148125400,5.13712548828125,-0.41311028599739075,-1.9402556419372559,-0.4730898439884186
1772024953158122200,5.147122314453125,-0.3155171573162079,-1.362532615661621,0.5096823573112488
1772024953168120300,5.157120361328125,-0.0424247607588768,-0.8221807479858398,1.0204828977584839
1772024953178117400,5.167117431640625,0.3459285795688629,-0.31871119141578674,1.2122619152069092
1772024953188114400,5.177114501953125,0.7227838039398193,-0.13745956122875214,1.096091389656067
1772024953198111200,5.187111328125,0.8889461755752563,-0.4759872555732727,0.7260688543319702
1772024953208108300,5.1971083984375,0.8208809494972229,-1.0403757095336914,0.5108058452606201
1772024953218105300,5.207105224609375,0.6924835443496704,-1.5149071216583252,0.6150736808776855
1772024953228102100,5.21710205078125,0.6101951003074646,-1.7687627077102661,0.8538652658462524
1772024953238099500,5.227099365234375,0.6037768721580505,-1.7465041875839233,1.0338510274887085
1772024953248096300,5.23709619140625,0.6668120622634888,-1.4460214376449585,0.9961000084877014
1772024953258093300,5.24709326171875,0.7563871741294861,-0.9049047231674194,0.6947811841964722
1772024953268090400,5.25709033203125,0.8340650796890259,-0.1890527456998825,0.21415656805038452
1772024953278087400,5.26708740234375,0.8677482008934021,0.58182692527771,-0.30156004428863525
1772024953288084200,5.277084228515625,0.818988025188446,1.3280105590820312,-0.7194774746894836
1772024953298082300,5.287082275390625,0.7276021838188171,1.9723711013793945,-1.012274146080017
1772024953308079400,5.297079345703125,0.6322692632675171,2.4092612266540527,-1.1847960948944092
1772024953318076400,5.307076416015625,0.5517224669456482,2.537912607192993,-1.235323429107666
1772024953328073200,5.3170732421875,0.5087795257568359,2.341702461242676,-1.1480571031570435
1772024953338069200,5.3270693359375,0.5046471357345581,1.8802096843719482,-0.9076266288757324
1772024953348066300,5.33706640625,0.5154677033424377,1.2999540567398071,-0.551997721195221
1772024953358063000,5.34706298828125,0.5127424597740173,0.6904518008232117,-0.1673872023820877
1772024953368060400,5.357060302734375,0.4663737714290619,0.10474837571382523,0.18314850330352783
1772024953378057200,5.36705712890625,0.353503942489624,-0.3356015682220459,0.4173058867454529
1772024953388054300,5.37705419921875,0.21746209263801575,-0.579966127872467,0.5208021998405457
1772024953398051300,5.38705126953125,0.08113088458776474,-0.5895801186561584,0.4990308880805969
1772024953408048400,5.39704833984375,-0.09037964046001434,-0.41075262427330017,0.37278124690055847
1772024953418045200,5.407045166015625,-0.29702603816986084,-0.10876481235027313,0.16346901655197144
1772024953428042500,5.41704248046875,-0.4785449206829071,0.2831345498561859,-0.08178402483463287
1772024953438039300,5.427039306640625,-0.5893716216087341,0.7105170488357544,-0.30553561449050903
1772024953448037000,5.437037109375,-0.6660003066062927,1.0915464162826538,-0.4503873586654663
1772024953458035000,5.447034912109375,-0.7025405168533325,1.3516381978988647,-0.49273186922073364
1772024953468032000,5.457031982421875,-0.6882355809211731,1.4664267301559448,-0.4429577887058258
1772024953478029000,5.467029052734375,-0.6387684345245361,1.4157012701034546,-0.33084961771965027
1772024953488026000,5.477026123046875,-0.628048837184906,1.22860586643219,-0.13620485365390778
1772024953498023000,5.48702294921875,-0.7339363694190979,0.9439842104911804,0.1697356253862381
1772024953508020200,5.497020263671875,-0.8611118793487549,0.6326034069061279,0.5210437774658203
1772024953518017000,5.50701708984375,-0.9249753355979919,0.40848055481910706,0.8063713908195496
1772024953528013800,5.517013916015625,-0.9180434942245483,0.3741568624973297,0.9220963716506958
1772024953538011100,5.52701123046875,-0.8085873126983643,0.608937680721283,0.9225086569786072
1772024953548008000,5.537008056640625,-0.6261112093925476,1.1369565725326538,0.8223747611045837
1772024953558005000,5.5470048828125,-0.5110061764717102,1.426440954208374,0.45277300477027893
1772024953568002000,5.557001953125,-0.5015997886657715,0.7827858924865723,-0.2970857322216034
1772024953577999000,5.5669990234375,-0.6163516640663147,-0.16089515388011932,-1.159698724746704
1772024953587997000,5.576996826171875,-0.6130421161651611,-1.0984869003295898,-1.7854523658752441
1772024953597994000,5.586993896484375,-0.5004098415374756,-1.368430256843567,-2.0465009212493896
1772024953607991000,5.596990966796875,-0.3591795563697815,-0.7934820055961609,-1.8143209218978882
1772024953617988000,5.606988037109375,-0.12569010257720947,-0.08305581659078598,-1.3533035516738892
1772024953627985000,5.61698486328125,0.02741917595267296,0.44905713200569153,-0.9727758169174194
1772024953637982200,5.626982177734375,0.18613985180854797,0.7174270153045654,-0.6728447675704956
1772024953647979000,5.63697900390625,0.48267000913619995,0.5886753797531128,-0.5129249095916748
1772024953657976000,5.64697607421875,0.7200730443000793,0.08407321572303772,-0.5762114524841309
1772024953667973000,5.65697314453125,0.8013060688972473,-0.4415842592716217,-0.5609720349311829
1772024953677970000,5.666969970703125,0.7424952387809753,-0.8110845685005188,-0.277479887008667
1772024953687967000,5.676967041015625,0.5440336465835571,-1.010927438735962,0.18763020634651184
1772024953697964000,5.686964111328125,0.2783963978290558,-1.0676666498184204,0.5245861411094666
1772024953707961000,5.696961181640625,0.08883915841579437,-0.944303572177887,0.4864276051521301
1772024953717959200,5.706959228515625,0.02984880656003952,-0.514297604560852,0.06508038192987442
1772024953727956000,5.7169560546875,0.08689086884260178,0.1622743457555771,-0.6532818078994751
1772024953737953000,5.726953125,0.18332979083061218,0.9272093176841736,-1.4829150438308716
1772024953747950000,5.7369501953125,0.26600536704063416,1.615863561630249,-2.151360511779785
1772024953757947000,5.74694677734375,0.2851574718952179,2.049607753753662,-2.4630632400512695
1772024953767944200,5.756944091796875,0.22372567653656006,2.1535701751708984,-2.380657911300659
1772024953777941000,5.76694091796875,0.12834802269935608,1.92037034034729,-1.9516098499298096
1772024953787938000,5.77693798828125,0.02825925126671791,1.4176692962646484,-1.2545114755630493
1772024953797935000,5.78693505859375,-0.05877178534865379,0.7601802945137024,-0.4154588580131531
1772024953807932200,5.79693212890625,-0.1379343867301941,0.06954263150691986,0.4285444915294647
1772024953817929000,5.806928955078125,-0.19113130867481232,-0.5622792840003967,1.1666935682296753
1772024953827926300,5.81692626953125,-0.2049630582332611,-1.0732214450836182,1.7323368787765503
1772024953837924000,5.826924072265625,-0.18331636488437653,-1.441235899925232,2.0919957160949707
1772024953847921200,5.836921142578125,-0.12537585198879242,-1.63740074634552,2.272820472717285
1772024953857918000,5.84691796875,-0.05671262741088867,-1.6637436151504517,2.3293538093566895
1772024953867915300,5.856915283203125,0.03579190373420715,-1.5208948850631714,2.3041603565216064
1772024953877912000,5.866912109375,0.14112311601638794,-1.3254797458648682,2.210327625274658
1772024953887908900,5.876908935546875,0.17494751513004303,-1.1174156665802002,2.0250210762023926
1772024953897906200,5.88690625,0.15830355882644653,-0.8703475594520569,1.7504491806030273
1772024953907903000,5.896903076171875,0.12092731893062592,-0.5628560781478882,1.3921308517456055
1772024953917900000,5.906900146484375,0.06977252662181854,-0.21370714902877808,0.9924865365028381
1772024953927897000,5.91689697265625,0.02128923498094082,0.1317296326160431,0.6276416778564453
1772024953937894100,5.92689404296875,0.019592536613345146,0.4593130946159363,0.3677528500556946
1772024953947891000,5.936890869140625,0.0592772401869297,0.6923471689224243,0.18214695155620575
1772024953957889000,5.946888916015625,0.12196619063615799,0.8102660775184631,0.11622679978609085
1772024953967886000,5.956885986328125,0.12778466939926147,0.8479510545730591,0.250510036945343
1772024953977883100,5.966883056640625,0.04611564055085182,0.8130096197128296,0.5783131718635559
1772024953987880000,5.9768798828125,-0.0672447681427002,0.759313702583313,0.9335840940475464
1772024953997877200,5.986877197265625,-0.10271035134792328,0.7545389533042908,1.1154446601867676
1772024954007874000,5.9968740234375,0.055793166160583496,0.7695444822311401,1.009203314781189
1772024954017871000,6.00687109375,0.29502546787261963,0.5689429640769958,0.48786234855651855
1772024954027868200,6.0168681640625,0.4504666030406952,-0.0877636969089508,-0.31754982471466064
1772024954037865200,6.026865234375,0.3520455062389374,-0.7482439279556274,-0.9362629055976868
1772024954047862000,6.036862060546875,0.10357119143009186,-1.4156410694122314,-1.0742238759994507
1772024954057858800,6.04685888671875,-0.2116999328136444,-1.274980902671814,-0.7172998785972595
1772024954067856100,6.056856201171875,-0.4392643868923187,-0.6682763695716858,-0.0821647197008133
1772024954077854200,6.066854248046875,-0.44304847717285156,-0.3574731945991516,0.2922973036766052
1772024954087851000,6.07685107421875,-0.38186129927635193,-0.18554453551769257,0.37018945813179016
1772024954097848000,6.08684814453125,-0.1863037645816803,-0.153756782412529,0.34085550904273987
1772024954107845000,6.09684521484375,0.050277229398489,-0.3958231210708618,0.0806943029165268
1772024954117842000,6.106842041015625,0.12663377821445465,-0.6923048496246338,-0.1869746893644333
1772024954127839000,6.1168388671875,0.12800957262516022,-1.0395241975784302,-0.12655861675739288
1772024954137836000,6.1268359375,0.15128187835216522,-1.3716070652008057,0.2745845317840576
1772024954147833000,6.1368330078125,0.1928938925266266,-1.5962797403335571,0.8680686354637146
1772024954157830000,6.146829833984375,0.2534483075141907,-1.6724402904510498,1.4190614223480225
1772024954167827200,6.1568271484375,0.33979132771492004,-1.5429950952529907,1.7084457874298096
1772024954177824000,6.166823974609375,0.4416971802711487,-1.1556320190429688,1.6156740188598633
1772024954187821000,6.176821044921875,0.5544463396072388,-0.532435953617096,1.1151984930038452
1772024954197818000,6.186818115234375,0.6280305981636047,0.261288046836853,0.35995709896087646
1772024954207816200,6.196816162109375,0.669459342956543,1.0845439434051514,-0.377260684967041
1772024954217813000,6.20681298828125,0.6871552467346191,1.6864385604858398,-0.8795943856239319
1772024954227810000,6.21681005859375,0.6583650708198547,1.9142674207687378,-1.0712591409683228
1772024954237807000,6.22680712890625,0.5801624059677124,1.7724997997283936,-1.017585039138794
1772024954247804200,6.23680419921875,0.4784582555294037,1.3703787326812744,-0.814989447593689
1772024954257801000,6.246801025390625,0.3953436613082886,0.856850266456604,-0.48984193801879883
1772024954267798000,6.256798095703125,0.356941819190979,0.3231545388698578,-0.1027611494064331
1772024954277795000,6.266795166015625,0.3182527422904968,-0.13253681361675262,0.2265043705701828
1772024954287791900,6.2767919921875,0.2320895940065384,-0.47723710536956787,0.44899365305900574
1772024954297789200,6.2867890625,0.11594435572624207,-0.7038779854774475,0.5638291835784912
1772024954307786000,6.296785888671875,-0.02835114300251007,-0.8058798909187317,0.585178017616272
1772024954317783000,6.306782958984375,-0.2087547332048416,-0.7939110994338989,0.5398504734039307
1772024954327780900,6.31678076171875,-0.38059160113334656,-0.6737106442451477,0.4296000897884369
1772024954337778200,6.326778076171875,-0.5082377195358276,-0.44702473282814026,0.2702959179878235
1772024954347775000,6.33677490234375,-0.5899370908737183,-0.16358214616775513,0.06755693256855011
1772024954357772000,6.34677197265625,-0.6368857026100159,0.1424608677625656,-0.1420532912015915
1772024954367769000,6.35676904296875,-0.6304291486740112,0.42686018347740173,-0.3336690664291382
1772024954377766100,6.36676611328125,-0.5980842709541321,0.6157168745994568,-0.463435560464859
1772024954387763000,6.376762939453125,-0.598204493522644,0.6576743721961975,-0.4747881591320038
1772024954397760300,6.38676025390625,-0.6515457630157471,0.5644544363021851,-0.3498142659664154
1772024954407757000,6.396757080078125,-0.7266700863838196,0.359467089176178,-0.1398145854473114
1772024954417753900,6.40675390625,-0.8283785581588745,0.1096186414361,0.010766146704554558
1772024954427751200,6.416751220703125,-0.9716302752494812,-0.09467735886573792,-0.08084564656019211
1772024954437749200,6.426749267578125,-1.0750285387039185,-0.11211520433425903,-0.357056200504303
1772024954447746000,6.43674609375,-1.0118303298950195,0.26216626167297363,-0.5075926184654236
1772024954457742000,6.4467421875,-0.8377293348312378,0.8623085618019104,-0.33666563034057617
1772024954467739000,6.45673876953125,-0.6387984156608582,1.2219921350479126,0.005298221483826637
1772024954477736000,6.46673583984375,-0.539283037185669,0.756859302520752,0.09762442111968994
1772024954487733000,6.47673291015625,-0.6885747909545898,0.03970249742269516,-0.06071843206882477
1772024954497730000,6.48672998046875,-0.9300638437271118,-0.4533042907714844,-0.15115804970264435
1772024954507726800,6.496726806640625,-1.0135053396224976,-0.3303571343421936,-0.16067816317081451
1772024954517724200,6.50672412109375,-1.0134835243225098,0.5498120188713074,-0.054843612015247345
1772024954527721000,6.516720947265625,-0.937506914138794,1.0701185464859009,-0.10911671072244644
1772024954537717800,6.5267177734375,-0.889609694480896,1.3175337314605713,-0.3580564856529236
1772024954547715000,6.536715087890625,-0.7487584352493286,1.3119276762008667,-0.6241224408149719
1772024954557713200,6.546713134765625,-0.38186514377593994,0.8631138801574707,-0.9236093163490295
1772024954567710000,6.5567099609375,0.02506532147526741,0.18725837767124176,-1.224299669265747
1772024954577706800,6.566706787109375,0.3118837773799896,-0.4053753912448883,-1.2420940399169922
1772024954587704000,6.5767041015625,0.502602756023407,-0.9687603712081909,-0.892733097076416
1772024954597700900,6.586700927734375,0.49610254168510437,-1.4095600843429565,-0.2928065359592438
1772024954607698000,6.596697998046875,0.324141263961792,-1.6529830694198608,0.35548126697540283
1772024954617695000,6.606695068359375,0.1775933802127838,-1.6045948266983032,0.7172719240188599
1772024954627692000,6.616692138671875,0.15155911445617676,-1.1470351219177246,0.6675889492034912
1772024954637688800,6.626688720703125,0.24698176980018616,-0.3407207131385803,0.20914840698242188
1772024954647686000,6.636685791015625,0.3946268856525421,0.6939272284507751,-0.5156524181365967
1772024954657683000,6.646682861328125,0.5356532335281372,1.733933687210083,-1.2212460041046143
1772024954667680000,6.656679931640625,0.6391720771789551,2.4542853832244873,-1.664765477180481
1772024954677677800,6.666677734375,0.6609063744544983,2.6569344997406006,-1.721669316291809
1772024954687675000,6.6766748046875,0.5970098376274109,2.450763463973999,-1.4325460195541382
1772024954697672000,6.686671875,0.45835739374160767,1.967796802520752,-0.8933605551719666
1772024954707669000,6.6966689453125,0.2971051037311554,1.2501486539840698,-0.26961204409599304
1772024954717665800,6.706665771484375,0.15135857462882996,0.40956342220306396,0.2818974554538727
1772024954727663000,6.7166630859375,0.04449842870235443,-0.3878868520259857,0.6733584403991699
1772024954737660000,6.726659912109375,-0.034429676830768585,-1.0416433811187744,0.8756201863288879
1772024954747656700,6.73665673828125,-0.07352981716394424,-1.4246314764022827,0.9314025640487671
1772024954757654000,6.746654052734375,-0.10678551346063614,-1.491856575012207,0.9139476418495178
1772024954767650800,6.75665087890625,-0.13749507069587708,-1.2871185541152954,0.8593977689743042
1772024954777647900,6.76664794921875,-0.14717939496040344,-0.9235915541648865,0.781326949596405
1772024954787645700,6.776645751953125,-0.1479148119688034,-0.4854715168476105,0.7113169431686401
1772024954797643000,6.78664306640625,-0.13880521059036255,-0.06627903878688812,0.6535188555717468
1772024954807639800,6.796639892578125,-0.138130784034729,0.24578338861465454,0.5830144286155701
1772024954817636900,6.806636962890625,-0.17005383968353271,0.4458291232585907,0.483120322227478
1772024954827634000,6.816634033203125,-0.19948001205921173,0.5045343637466431,0.3695370852947235
1772024954837631000,6.826630859375,-0.21748964488506317,0.43017783761024475,0.26449456810951233
1772024954847627800,6.836627685546875,-0.20890401303768158,0.3132566213607788,0.2172023504972458
1772024954857625000,6.846625,-0.13094262778759003,0.21769973635673523,0.24373622238636017
1772024954867622000,6.856621826171875,-0.08904325217008591,0.09235984832048416,0.318468302488327
1772024954877619000,6.866618896484375,-0.20601540803909302,-0.04166826233267784,0.5483832955360413
1772024954887616000,6.876615966796875,-0.3290703594684601,-0.2210167497396469,0.9710224866867065
1772024954897612800,6.88661279296875,-0.21609215438365936,-0.32923242449760437,1.3494107723236084
1772024954907611000,6.89661083984375,0.10895813256502151,-0.12086817622184753,1.4397046566009521
1772024954917608000,6.90660791015625,0.45107898116111755,0.3464832901954651,1.2213590145111084
1772024954927605000,6.91660498046875,0.7228773236274719,0.5964433550834656,0.7543502449989319
1772024954937602000,6.92660205078125,0.6942896246910095,0.23324039578437805,0.050521012395620346
1772024954947598800,6.936598876953125,0.25920727849006653,-0.0973530188202858,-0.5642146468162537
1772024954957596000,6.946595947265625,-0.26540642976760864,-0.6488977074623108,-0.8690965175628662
1772024954967593000,6.956593017578125,-0.579551637172699,-0.6763578057289124,-0.8454275131225586
1772024954977589800,6.96658984375,-0.6421800851821899,-0.11582020670175552,-0.5068609118461609
1772024954987587000,6.976587158203125,-0.4795204699039459,0.2273777425289154,-0.3155071437358856
1772024954997584000,6.986583984375,-0.3383106291294098,0.40962105989456177,-0.38110294938087463
1772024955007581000,6.996580810546875,-0.18712827563285828,0.22552485764026642,-0.5608832240104675
1772024955017578800,7.006578857421875,-0.024972664192318916,-0.6009767651557922,-0.9567139148712158
1772024955027576000,7.016576171875,0.04336105287075043,-1.4797840118408203,-1.3967969417572021
1772024955037572900,7.02657275390625,0.1495886892080307,-2.0774893760681152,-1.6548491716384888
1772024955047570000,7.03656982421875,0.13736724853515625,-2.354843854904175,-1.7123351097106934
1772024955057567000,7.04656689453125,-0.12492188811302185,-2.163893938064575,-1.5898469686508179
1772024955067564000,7.05656396484375,-0.4681011140346527,-1.6263689994812012,-1.3937355279922485
1772024955077560800,7.066560791015625,-0.6631275415420532,-0.9914716482162476,-1.2183674573898315
1772024955087558100,7.07655810546875,-0.6457910537719727,-0.4024686813354492,-1.0621815919876099
1772024955097555000,7.086554931640625,-0.4342300295829773,0.014950667507946491,-0.8498858213424683
1772024955107551700,7.0965517578125,-0.12904779613018036,0.2514422535896301,-0.5829324126243591
1772024955117549000,7.106549072265625,0.19400882720947266,0.3923572897911072,-0.2821645736694336
1772024955127545900,7.1165458984375,0.4491848349571228,0.4294150769710541,-0.0033370270393788815
1772024955137544000,7.1265439453125,0.6047336459159851,0.3635857403278351,0.19259172677993774
1772024955147540700,7.136540771484375,0.6536551713943481,0.2591210901737213,0.2815178632736206
1772024955157538000,7.1465380859375,0.6302291750907898,0.14610321819782257,0.2666390538215637
1772024955167534800,7.156534912109375,0.5616500973701477,0.058561649173498154,0.18005970120429993
1772024955177532000,7.166531982421875,0.4902089536190033,0.03196306154131889,0.061926133930683136
1772024955187529000,7.176529052734375,0.46145346760749817,0.07624119520187378,-0.0473773218691349
1772024955197526000,7.186526123046875,0.4831821918487549,0.1765853762626648,-0.10089167952537537
1772024955207522800,7.196522705078125,0.5396923422813416,0.33078205585479736,-0.10508974641561508
1772024955217519900,7.206519775390625,0.599497377872467,0.5045490860939026,-0.09191775321960449
1772024955227517000,7.216516845703125,0.6398147940635681,0.6197121739387512,-0.11223974823951721
1772024955237515000,7.226514892578125,0.6549420952796936,0.653269350528717,-0.192653089761734
1772024955247511800,7.23651171875,0.6539819240570068,0.6014431715011597,-0.29634255170822144
1772024955257509000,7.246509033203125,0.6413851380348206,0.43812403082847595,-0.3814297318458557
1772024955267506000,7.256505859375,0.6499062776565552,0.3568078577518463,-0.44063717126846313
1772024955277503000,7.2665029296875,0.6854836940765381,0.3357797861099243,-0.4488823115825653
1772024955287500000,7.2765,0.7477788925170898,0.35118308663368225,-0.4004557132720947
1772024955297497000,7.2864970703125,0.8835830688476562,0.3809977173805237,-0.25967222452163696
1772024955307494000,7.296493896484375,1.1042603254318237,0.46373122930526733,-0.12798768281936646
1772024955317491000,7.306490966796875,1.2285399436950684,0.7344602346420288,0.07030356675386429
1772024955327488000,7.316488037109375,1.3813854455947876,1.063127040863037,0.35450688004493713
1772024955337484800,7.32648486328125,1.3211146593093872,1.3696781396865845,0.5070686936378479
1772024955347481900,7.33648193359375,1.2221333980560303,1.4299489259719849,0.42638564109802246
1772024955357480000,7.34647998046875,1.1568527221679688,1.567779541015625,0.5077353715896606
1772024955367477000,7.35647705078125,1.127650499343872,1.6787811517715454,0.9706466197967529
1772024955377473800,7.366473876953125,1.3266903162002563,1.5355406999588013,1.4546916484832764
1772024955387470800,7.376470947265625,1.743549108505249,0.6066057682037354,1.5287708044052124
1772024955397468000,7.386468017578125,2.04618763923645,-0.4835973083972931,1.1945390701293945
1772024955407465000,7.39646484375,1.9739782810211182,-0.6044922471046448,0.6986188292503357
1772024955417461800,7.406461669921875,1.3708157539367676,-0.2758592367172241,0.21757231652736664
1772024955427459000,7.416458984375,0.5828329920768738,0.3583080768585205,0.24069873988628387
1772024955437456000,7.426455810546875,0.21469253301620483,1.1753113269805908,0.6051065325737
1772024955447453000,7.436452880859375,0.3371489346027374,1.631210446357727,0.8432523012161255
1772024955457451000,7.446450927734375,0.600386917591095,1.6099357604980469,0.8480731248855591
1772024955467448000,7.456447998046875,0.7902581095695496,1.1288985013961792,0.5951045155525208
1772024955477445000,7.466445068359375,0.9251565933227539,0.23539672791957855,0.2161364108324051
1772024955487442000,7.47644189453125,1.1174547672271729,-0.7395634651184082,-0.1026012971997261
1772024955497439000,7.48643896484375,1.2286244630813599,-1.4254225492477417,-0.3050406873226166
1772024955507436000,7.49643603515625,0.9277467727661133,-1.854621410369873,-0.35954925417900085
1772024955517432800,7.506432861328125,0.3792010545730591,-1.7180620431900024,-0.336299866437912
1772024955527430100,7.51643017578125,-0.36088138818740845,-0.769984245300293,-0.5107768177986145
1772024955537427000,7.526427001953125,-1.0226247310638428,0.10131710022687912,-0.9224269390106201
1772024955547424000,7.536424072265625,-1.3309595584869385,0.66383296251297,-1.1645219326019287
1772024955557421000,7.546421142578125,-1.2766457796096802,0.8256838917732239,-1.0180898904800415
1772024955567419100,7.556419189453125,-0.9377418160438538,0.5444037318229675,-0.5821593999862671
1772024955577416000,7.566416015625,-0.45925962924957275,0.11038090288639069,-0.04262823984026909
1772024955587413000,7.5764130859375,-0.04066876694560051,-0.10951444506645203,0.38621553778648376
1772024955597410000,7.58641015625,0.24167264997959137,-0.055866390466690063,0.48140648007392883
1772024955607407000,7.596406982421875,0.5588067770004272,0.017495714128017426,0.3351590633392334
1772024955617404000,7.60640380859375,1.2620251178741455,-0.4226723313331604,0.36168044805526733
1772024955627401200,7.616401123046875,1.7810814380645752,-1.149879813194275,0.6220707297325134
1772024955637398000,7.62639794921875,1.2882189750671387,-1.177294373512268,0.6199287176132202
1772024955647394800,7.636394775390625,0.513383150100708,-1.1580356359481812,0.32173287868499756
1772024955657392000,7.64639208984375,0.3482479453086853,-0.868781566619873,0.20896078646183014
1772024955667389000,7.656388916015625,0.47167736291885376,-0.5314486026763916,0.44779300689697266
1772024955677387000,7.666386962890625,0.5032627582550049,-0.17234636843204498,0.7039728760719299
1772024955687383800,7.6763837890625,0.477754682302475,0.29928579926490784,0.7345483303070068
1772024955697381000,7.686381103515625,0.46304869651794434,0.7748366594314575,0.5697095990180969
1772024955707378000,7.6963779296875,0.43449246883392334,1.0611501932144165,0.35121625661849976
1772024955717375000,7.706375,0.3928970992565155,1.0909581184387207,0.16133153438568115
1772024955727372000,7.7163720703125,0.3382095694541931,0.9208492636680603,-0.03241700679063797
1772024955737369000,7.726369140625,0.31160351634025574,0.5884113907814026,-0.247518390417099
1772024955747366000,7.736365966796875,0.36056360602378845,0.1937553584575653,-0.36076104640960693
1772024955757363200,7.74636328125,0.4829627573490143,-0.20156747102737427,-0.30132222175598145
1772024955767360000,7.756360107421875,0.6879640221595764,-0.5597188472747803,-0.04595033451914787
1772024955777357000,7.766357177734375,0.8976938128471375,-0.7942714095115662,0.27390995621681213
1772024955787355000,7.77635498046875,1.131271481513977,-0.6105200052261353,0.5643457174301147
1772024955797352200,7.786352294921875,1.3394402265548706,0.6975898146629333,1.0949233770370483
1772024955807349000,7.796348876953125,1.1856523752212524,1.5494142770767212,1.4550769329071045
1772024955817346000,7.806345947265625,0.8386560082435608,1.657758355140686,1.198462963104248
1772024955827343000,7.816343017578125,0.2770189344882965,1.7051706314086914,0.3138795495033264
1772024955837340200,7.826340087890625,-0.4917113184928894,2.720153570175171,-0.7786309123039246
1772024955847337000,7.8363369140625,-1.0793256759643555,4.732691287994385,-1.5724624395370483
1772024955857334000,7.846333984375,-1.4276117086410522,5.981589317321777,-1.5329320430755615
1772024955867331000,7.8563310546875,-1.4992607831954956,6.047693729400635,-1.6198476552963257
1772024955877328000,7.866327880859375,-1.1579960584640503,4.11424446105957,-1.4550107717514038
1772024955887326000,7.876325927734375,-0.5450401902198792,2.7901480197906494,-0.7490636110305786
1772024955897323000,7.886322998046875,-0.12269824743270874,2.372199535369873,0.3747695982456207
1772024955907320000,7.896320068359375,-0.03338417038321495,1.72311270236969,1.0260508060455322
1772024955917316900,7.90631689453125,-0.13815824687480927,0.762827455997467,0.7134661078453064
1772024955927314000,7.91631396484375,-0.3512450158596039,-0.38518625497817993,-0.2986890375614166
1772024955937311000,7.92631103515625,-0.545984148979187,-1.295446515083313,-1.4276472330093384
1772024955947308000,7.93630810546875,-0.6816310286521912,-1.8120660781860352,-2.222672700881958
1772024955957304800,7.946304931640625,-0.8161435723304749,-1.9959125518798828,-2.5064921379089355
1772024955967302100,7.95630224609375,-0.8521633744239807,-2.0317513942718506,-2.2878639698028564
1772024955977299000,7.966298828125,-0.6473463177680969,-2.052356243133545,-1.762935996055603
1772024955987297000,7.976297119140625,-0.32393887639045715,-1.8044209480285645,-1.1362781524658203
1772024955997293800,7.9862939453125,-0.07555092871189117,-1.3168082237243652,-0.503065288066864
1772024956007291100,7.996291015625,0.06711453199386597,-0.7997666001319885,0.07205766439437866
1772024956017288000,8.006287841796874,0.10688512027263641,-0.41858863830566406,0.6267363429069519
1772024956027285000,8.016284912109375,0.09459449350833893,-0.3429812788963318,1.1176414489746094
1772024956037282000,8.026281982421875,0.08145232498645782,-0.6132321953773499,1.384568691253662
1772024956047279000,8.036279052734375,0.11283983290195465,-1.04533851146698,1.3236685991287231
1772024956057276000,8.04627587890625,0.16472141444683075,-1.540705919265747,1.0487840175628662
1772024956067273000,8.05627294921875,0.21970996260643005,-1.8975602388381958,0.7142336964607239
1772024956077270000,8.06627001953125,0.20662717521190643,-1.9607714414596558,0.4897606074810028
1772024956087268000,8.07626806640625,0.11388113349676132,-1.6179038286209106,0.3873247504234314
1772024956097265000,8.086264892578125,0.016434207558631897,-0.9302732944488525,0.3313959538936615
1772024956107262000,8.096261962890624,-0.12943032383918762,-0.02637687511742115,0.2616060674190521
1772024956117259000,8.106259033203125,-0.29589226841926575,0.4952809810638428,0.19054095447063446
1772024956127255800,8.116255859375,-0.2837277352809906,0.5840113759040833,0.10639917850494385
1772024956137253000,8.126253173828125,-0.2251262068748474,0.37125325202941895,0.03959299251437187
1772024956147250000,8.13625,-0.18950241804122925,-0.11936389654874802,0.016714034602046013
1772024956157247000,8.1462470703125,-0.11664073169231415,-0.5701366662979126,0.022341560572385788
1772024956167244000,8.156244140625,0.027918437495827675,-0.7045081853866577,0.046296898275613785
1772024956177241000,8.166240966796876,0.1751244068145752,-0.5853139162063599,0.11891490966081619
1772024956187238000,8.17623779296875,0.28761351108551025,-0.40514639019966125,0.29671815037727356
1772024956197236000,8.186236083984374,0.35169103741645813,-0.36541470885276794,0.460205614566803
1772024956207233000,8.19623291015625,0.3879070281982422,-0.458628386259079,0.46800777316093445
1772024956217230000,8.20622998046875,0.4090237617492676,-0.6625192165374756,0.3761194050312042
1772024956227227000,8.216226806640625,0.37865781784057617,-0.8182471990585327,0.2473566234111786
1772024956237224200,8.22622412109375,0.3465331792831421,-0.8438018560409546,0.047526344656944275
1772024956247221000,8.236220947265625,0.287159264087677,-0.7890129089355469,-0.19984930753707886
1772024956257218000,8.246218017578125,0.22502560913562775,-0.7186657786369324,-0.4088086485862732
1772024956267215000,8.256215087890626,0.2058611512184143,-0.6259998679161072,-0.5287527441978455
1772024956277212000,8.2662119140625,0.15196968615055084,-0.6650471091270447,-0.7247677445411682
1772024956287209000,8.276208984375,-0.018237188458442688,-0.6725870370864868,-1.0234321355819702
1772024956297207000,8.28620703125,-0.2151646465063095,-0.5184251666069031,-1.2161378860473633
1772024956307204000,8.2962041015625,-0.3974050283432007,-0.09746269881725311,-1.3134328126907349
1772024956317201000,8.306200927734375,-0.6107178330421448,0.2436421513557434,-1.624631404876709
1772024956327198000,8.316197998046874,-0.9397662878036499,0.14182257652282715,-2.048494577407837
1772024956337195000,8.326195068359375,-0.9319416880607605,-0.24815021455287933,-1.9937375783920288
1772024956347192000,8.336192138671874,-0.7588108777999878,-0.4772835075855255,-1.1305280923843384
1772024956357188900,8.34618896484375,-0.8237999677658081,-0.48960381746292114,-0.0593104287981987
1772024956367186200,8.356186279296875,-0.9698794484138489,-0.2916792929172516,0.6922829151153564
1772024956377183000,8.366182861328125,-0.9169427156448364,0.03174910694360733,0.9735710620880127
1772024956387180000,8.376179931640625,-0.6330222487449646,0.44753509759902954,0.4652097523212433
1772024956397177900,8.386177734375,-0.24522335827350616,0.6221226453781128,-0.5872832536697388
1772024956407175200,8.396175048828125,0.00989935826510191,0.5325250029563904,-1.4513819217681885
1772024956417172000,8.406171875,0.09767208993434906,0.3260575532913208,-1.7350338697433472
1772024956427169000,8.4161689453125,0.11158060282468796,0.2507210969924927,-1.6121561527252197
1772024956437166000,8.426166015625,0.07984238117933273,0.46537721157073975,-1.4483821392059326
1772024956447163100,8.4361630859375,0.023200109601020813,0.7943443059921265,-1.2921233177185059
1772024956457160400,8.446160400390625,-0.06952449679374695,1.1256059408187866,-1.1025004386901855
1772024956467157500,8.456157470703126,-0.13694491982460022,1.2908494472503662,-0.7548266649246216
1772024956477154600,8.466154541015625,-0.2150551676750183,1.259726643562317,-0.21749421954154968
1772024956487152600,8.476152587890626,-0.2912072241306305,1.048113226890564,0.370848685503006
1772024956497149400,8.4861494140625,-0.31989187002182007,0.7286620140075684,0.8580460548400879
1772024956507146500,8.496146484375,-0.3205961287021637,0.3000588119029999,1.204473614692688
1772024956517143600,8.5061435546875,-0.279671311378479,-0.10499732941389084,1.3388787508010864
1772024956527140600,8.516140625,-0.2426796704530716,-0.43907630443573,1.1782785654067993
1772024956537137400,8.526137451171875,-0.23869983851909637,-0.7362725734710693,0.8022097945213318
1772024956547134700,8.536134765625,-0.24201345443725586,-0.886654794216156,0.38621026277542114
1772024956557131500,8.546131591796875,-0.17802435159683228,-0.7895367741584778,-0.00648055924102664
1772024956567128600,8.556128662109375,-0.08025902509689331,-0.5825576782226562,-0.30534735321998596
1772024956577125600,8.566125732421876,0.04124690592288971,-0.43221980333328247,-0.4036827087402344
1772024956587123700,8.576123779296875,0.14654883742332458,-0.3150576949119568,-0.33426275849342346
1772024956597120500,8.58612060546875,0.25101372599601746,-0.22737497091293335,-0.14212235808372498
1772024956607117600,8.59611767578125,0.37188875675201416,-0.15236806869506836,0.11342845857143402
1772024956617114600,8.606114501953124,0.4954221546649933,-0.056021030992269516,0.3459402620792389
1772024956627111400,8.616111328125,0.6112086772918701,0.03666317090392113,0.5373042225837708
1772024956637108500,8.6261083984375,0.6923817992210388,0.07129544764757156,0.7195813655853271
1772024956647105500,8.63610546875,0.7404199242591858,0.043536920100450516,0.8825476765632629
1772024956657102600,8.6461025390625,0.702532172203064,0.0696481466293335,0.9736394882202148
1772024956667099400,8.656099365234375,0.5827164649963379,0.20030172169208527,1.0255447626113892
1772024956677096700,8.6660966796875,0.4261023998260498,0.34837639331817627,1.0607630014419556
1772024956687094500,8.676094482421876,0.29565003514289856,0.40110495686531067,1.0178773403167725
1772024956697091600,8.686091552734375,0.17005987465381622,0.25446730852127075,0.8877290487289429
1772024956707088400,8.69608837890625,0.07819675654172897,0.03985690325498581,0.6565783619880676
1772024956717085700,8.706085693359375,0.043603360652923584,-0.12818244099617004,0.32145416736602783
1772024956727082500,8.71608251953125,0.04886077716946602,-0.17309999465942383,-0.07124665379524231
1772024956737079600,8.72607958984375,0.056602854281663895,0.0027360189706087112,-0.33787888288497925
1772024956747076600,8.73607666015625,-0.03081703744828701,0.22423163056373596,-0.28260961174964905
1772024956757073700,8.74607373046875,-0.21490085124969482,0.2863674461841583,0.0009081091266125441
1772024956767070500,8.756070556640625,-0.29431816935539246,0.433225154876709,0.16430968046188354
1772024956777068500,8.766068603515626,-0.23783732950687408,0.8803672194480896,-0.12185762822628021
1772024956787065600,8.776065673828125,-0.3592008948326111,0.6785328984260559,-0.9494901299476624
1772024956797062700,8.786062744140626,-0.2567344307899475,-0.24037376046180725,-1.8594595193862915
1772024956807059500,8.7960595703125,-0.03679542988538742,-1.059948205947876,-1.975530982017517
1772024956817056800,8.806056884765624,-0.30469104647636414,-1.5458898544311523,-1.2873083353042603
1772024956827053600,8.816053466796875,-0.6179424524307251,-1.5087553262710571,-0.13797447085380554
1772024956837050400,8.82605029296875,-0.7143843173980713,-1.1482093334197998,1.001110315322876
1772024956847047700,8.836047607421875,-0.695823609828949,-0.44735264778137207,1.4034303426742554
1772024956857044500,8.84604443359375,-0.5558502674102783,0.288053959608078,0.7525144219398499
1772024956867041500,8.85604150390625,-0.3621833622455597,0.5098258852958679,-0.182899609208107
1772024956877039400,8.866039306640625,-0.193837508559227,0.5573334693908691,-0.8231126070022583
1772024956887036700,8.87603662109375,-0.02827310934662819,0.6496465802192688,-1.0388176441192627
1772024956897033500,8.886033447265625,0.0369061604142189,0.729120135307312,-0.9911268949508667
1772024956907030500,8.896030517578126,-0.018193064257502556,0.7614020705223083,-0.8501589298248291
1772024956917027600,8.906027587890625,-0.14737741649150848,0.7202886939048767,-0.673018217086792
1772024956927024600,8.916024658203124,-0.31907743215560913,0.5824004411697388,-0.459964781999588
1772024956937021400,8.926021484375,-0.4442281723022461,0.38135093450546265,-0.18849651515483856
1772024956947018500,8.9360185546875,-0.4507836401462555,0.22148902714252472,0.08102157711982727
1772024956957015600,8.946015625,-0.38488611578941345,0.12268920987844467,0.2910134196281433
1772024956967012600,8.9560126953125,-0.3010646104812622,0.012093731202185154,0.44747287034988403
1772024956977010400,8.966010498046876,-0.1994064450263977,-0.10186000168323517,0.5361771583557129
1772024956987007700,8.9760078125,-0.04874591529369354,-0.12155938148498535,0.5403642654418945
1772024956997004500,8.986004638671876,0.09900253266096115,-0.07284270972013474,0.4578840136528015
1772024957007001600,8.996001708984375,0.1902470588684082,0.018363526090979576,0.25256839394569397
1772024957016998700,9.00599853515625,0.2281598150730133,0.09070803225040436,-0.028843069449067116
1772024957026995700,9.01599560546875,0.24483053386211395,0.11067941784858704,-0.2777046263217926
1772024957036992500,9.025992431640624,0.23356802761554718,0.0909496545791626,-0.4192042350769043
1772024957046989600,9.035989501953125,0.2061026245355606,0.022263672202825546,-0.4677230417728424
1772024957056986600,9.045986572265624,0.178836390376091,-0.11454024910926819,-0.44108688831329346
1772024957066984700,9.055984619140625,0.15704728662967682,-0.28832417726516724,-0.341694176197052
1772024957076981500,9.0659814453125,0.17859439551830292,-0.4197152256965637,-0.17721416056156158
1772024957086978600,9.075978515625,0.24021968245506287,-0.47263363003730774,0.037173766642808914
1772024957096975600,9.0859755859375,0.3191507160663605,-0.46234503388404846,0.22432661056518555
1772024957106972400,9.095972412109376,0.4064725935459137,-0.36167773604393005,0.34077852964401245
1772024957116969500,9.105969482421875,0.49623578786849976,-0.2475767433643341,0.39333999156951904
1772024957126966500,9.115966552734376,0.5513020753860474,-0.1521403193473816,0.3472583293914795
1772024957136963600,9.125963623046875,0.5564925670623779,-0.017821386456489563,0.24953575432300568
1772024957146960400,9.13596044921875,0.49675628542900085,0.0498138964176178,0.1803087443113327
1772024957156958500,9.14595849609375,0.35620954632759094,-0.019112976267933846,0.18419243395328522
1772024957166955500,9.15595556640625,0.22769826650619507,-0.1101488247513771,0.28420567512512207
1772024957176952600,9.16595263671875,0.1116209328174591,-0.19861024618148804,0.43131574988365173
1772024957186949400,9.175949462890625,-0.002957406919449568,-0.3338637351989746,0.5105193853378296
1772024957196946700,9.18594677734375,-0.0392238013446331,-0.36541473865509033,0.41691356897354126
1772024957206943500,9.195943603515625,0.021671023219823837,-0.2823297083377838,0.14284458756446838
1772024957216940500,9.2059404296875,0.09787977486848831,0.00879906676709652,-0.2535954415798187
1772024957226937600,9.2159375,0.1990257203578949,0.5113492608070374,-0.6338747143745422
1772024957236934700,9.2259345703125,0.35992515087127686,1.1784260272979736,-0.9322220087051392
1772024957246932500,9.235932373046875,0.3620588183403015,1.343608021736145,-1.0962367057800293
1772024957256929500,9.245929443359374,0.14877688884735107,0.6953922510147095,-1.0016577243804932
1772024957266926600,9.255926513671875,0.17607584595680237,0.06644263863563538,-0.2404719591140747
1772024957276923600,9.265923583984375,-0.0579848513007164,-0.39169564843177795,0.9294451475143433
1772024957286920400,9.27592041015625,-0.35607805848121643,-0.5433205962181091,1.8640925884246826
1772024957296917500,9.28591748046875,-0.4896259903907776,-0.45661047101020813,2.217254638671875
1772024957306914600,9.29591455078125,-0.4442908465862274,-0.2586900293827057,1.9199576377868652
1772024957316911400,9.305911376953125,-0.2774864435195923,0.06448056548833847,0.8276572823524475
1772024957326908700,9.31590869140625,0.003737274557352066,0.347340852022171,-0.5504708886146545
1772024957336906500,9.325906494140625,0.15010300278663635,0.3798447251319885,-1.4428623914718628
1772024957346903600,9.335903564453124,0.11455169320106506,0.37929844856262207,-1.6980104446411133
1772024957356900400,9.345900390625,0.021142112091183662,0.4088731110095978,-1.381389856338501
1772024957366897700,9.355897705078124,-0.10608057677745819,0.44695040583610535,-0.7233578562736511
1772024957376894500,9.36589453125,-0.23859600722789764,0.4972545802593231,-0.08031738549470901
1772024957386891500,9.3758916015625,-0.3666061758995056,0.47823402285575867,0.31213346123695374
1772024957396888600,9.385888671875,-0.4736466109752655,0.35495123267173767,0.4377422630786896
1772024957406885600,9.3958857421875,-0.5361199975013733,0.21100716292858124,0.38883498311042786
1772024957416882400,9.40588232421875,-0.5496094226837158,0.03253995254635811,0.283839613199234
1772024957426880500,9.415880615234375,-0.5547400116920471,-0.21436916291713715,0.2778402864933014
1772024957436877600,9.425877685546874,-0.5384475588798523,-0.4234510362148285,0.36847245693206787
1772024957446874600,9.43587451171875,-0.4659593999385834,-0.49644678831100464,0.5053720474243164
1772024957456872200,9.4458720703125,-0.3336232006549835,-0.4192878305912018,0.624657154083252
1772024957466869000,9.455868896484375,-0.22511126101016998,-0.215780109167099,0.658207356929779
1772024957476866300,9.4658662109375,-0.14035722613334656,0.03897654637694359,0.604714572429657
1772024957486863000,9.475863037109375,-0.04962467774748802,0.24152027070522308,0.5104097723960876
1772024957496860000,9.48585986328125,0.036646030843257904,0.35020652413368225,0.42683497071266174
1772024957506857200,9.495857177734376,0.10722076892852783,0.35249200463294983,0.3772721290588379
1772024957516854000,9.50585400390625,0.14008896052837372,0.20772230625152588,0.3674994111061096
1772024957526852000,9.51585205078125,0.14407145977020264,-0.0546342171728611,0.37413308024406433
1772024957536849000,9.525848876953125,0.15404659509658813,-0.30838608741760254,0.40898773074150085
1772024957546846200,9.53584619140625,0.18715812265872955,-0.469735324382782,0.46484798192977905
1772024957556843000,9.545843017578125,0.23931878805160522,-0.5125581622123718,0.4991803765296936
1772024957566840000,9.555840087890624,0.3305259048938751,-0.4627194106578827,0.5123137831687927
1772024957576837000,9.565837158203125,0.41038477420806885,-0.3968762159347534,0.4597344696521759
1772024957586834200,9.575834228515625,0.48933303356170654,-0.324213445186615,0.3591531813144684
1772024957596831000,9.5858310546875,0.5494893193244934,-0.21540363132953644,0.22238123416900635
1772024957606829000,9.5958291015625,0.5649933815002441,-0.09635011106729507,0.11813806742429733
1772024957616826000,9.605826171875,0.5087655186653137,-0.03360044211149216,0.07968921214342117
1772024957626823200,9.6158232421875,0.3906635046005249,-0.05193822458386421,0.11621731519699097
1772024957636820000,9.625820068359374,0.26030445098876953,-0.08019356429576874,0.16735853254795074
1772024957646817300,9.6358173828125,0.19066332280635834,-0.015361989848315716,0.16527020931243896
1772024957656814000,9.64581396484375,0.2413182556629181,0.11094268411397934,0.18495896458625793
1772024957666811100,9.65581103515625,0.3966701626777649,0.17981290817260742,0.21179290115833282
1772024957676808200,9.66580810546875,0.48068755865097046,0.10964846611022949,0.19360670447349548
1772024957686805200,9.67580517578125,0.36804914474487305,0.02502603270113468,0.07637489587068558
1772024957696803000,9.685802978515625,0.04471582919359207,-0.037958256900310516,-0.24170586466789246
1772024957706800000,9.695800048828126,-0.3576712906360626,-0.18631859123706818,-0.6297229528427124
1772024957716797200,9.705797119140625,-0.7200468182563782,-0.8080364465713501,-1.0910933017730713
1772024957726794200,9.715794189453124,-0.7512268424034119,-1.4515501260757446,-1.3073064088821411
1772024957736791000,9.725791015625,-0.6974168419837952,-1.4327058792114258,-0.7570800185203552
1772024957746788000,9.7357880859375,-0.8662635087966919,-0.9344227910041809,0.2857155501842499
1772024957756785200,9.74578515625,-1.0263797044754028,-0.08245542645454407,1.3019466400146484
1772024957766782000,9.755781982421874,-0.9318587779998779,0.6826992034912109,1.7469544410705566
1772024957776779300,9.765779296875,-0.7810152173042297,1.3054264783859253,1.2886838912963867
1772024957786777000,9.775777099609375,-0.6617622971534729,1.7056152820587158,0.1452960968017578
1772024957796774100,9.785774169921876,-0.5452191829681396,1.7412160634994507,-0.9014846682548523
1772024957806771000,9.79577099609375,-0.4139290452003479,1.5494192838668823,-1.3868346214294434
1772024957816768300,9.805768310546876,-0.22632160782814026,1.2313944101333618,-1.3014802932739258
1772024957826765000,9.81576513671875,-0.06806275993585587,0.95207279920578,-0.8021989464759827
1772024957836762000,9.82576220703125,-0.03241874277591705,0.6620635986328125,-0.19361019134521484
1772024957846759200,9.83575927734375,-0.09482071548700333,0.3462629020214081,0.18993647396564484
1772024957856756200,9.845756103515624,-0.22044841945171356,0.024093110114336014,0.2550313174724579
1772024957866753000,9.8557529296875,-0.3502107858657837,-0.3125486671924591,0.10568156838417053
1772024957876751000,9.865751220703125,-0.401741623878479,-0.5996044278144836,-0.08229631930589676
1772024957886748200,9.875748046875,-0.4117022454738617,-0.6978585124015808,-0.1439477652311325
1772024957896745200,9.8857451171875,-0.3845723569393158,-0.6388838887214661,0.009368815459311008
1772024957906742000,9.895741943359376,-0.3276752531528473,-0.49191296100616455,0.3421049416065216
1772024957916739300,9.9057392578125,-0.20756244659423828,-0.2641831338405609,0.7377734780311584
1772024957926736100,9.915736083984376,-0.03953615576028824,0.03255237638950348,1.019767165184021
1772024957936733200,9.925733154296875,0.10645167529582977,0.2666732668876648,1.109666347503662
1772024957946732000,9.93573193359375,0.21853625774383545,0.37861573696136475,0.975158154964447
1772024957956729000,9.94572900390625,0.3115306496620178,0.39390093088150024,0.6906720995903015
1772024957966726100,9.95572607421875,0.382966011762619,0.3389938473701477,0.3679811954498291
1772024957976723200,9.96572314453125,0.40674006938934326,0.23220083117485046,0.10526753216981888
1772024957986720000,9.975719970703125,0.3934464454650879,0.11541564017534256,-0.009487029165029526
1772024957996717300,9.98571728515625,0.35162389278411865,0.008586125448346138,0.014256916008889675
1772024958006714000,9.995714111328125,0.3259863555431366,-0.03929421305656433,0.1262972354888916
1772024958016711200,10.005711181640624,0.3371812403202057,-0.06566110253334045,0.26142972707748413
1772024958026709000,10.015708984375,0.38484618067741394,-0.09978079050779343,0.35429537296295166
1772024958036706300,10.025706298828124,0.44887256622314453,-0.07191827148199081,0.4200986325740814
1772024958046703000,10.035703125,0.5015682578086853,-0.013172046281397343,0.4661058187484741
1772024958056700200,10.0457001953125,0.5201834440231323,0.010658184997737408,0.44210511445999146
1772024958066697200,10.055697265625,0.5188965201377869,0.010870825499296188,0.31329861283302307
1772024958076694300,10.0656943359375,0.5177052617073059,0.01127456035465002,0.16323189437389374
1772024958086691000,10.075691162109376,0.5050169229507446,-0.03450428694486618,0.07009421288967133
1772024958096688000,10.085688232421875,0.46361732482910156,-0.13485565781593323,0.040951505303382874
1772024958106686200,10.095686279296874,0.42738914489746094,-0.21801818907260895,0.08247490972280502
1772024958116683300,10.105683349609375,0.4694870710372925,-0.2183191180229187,0.08993362635374069
1772024958126680000,10.11568017578125,0.5051456689834595,-0.1332094371318817,0.06230466812849045
1772024958136677000,10.125677001953125,0.4949234127998352,-0.028397535905241966,0.054639291018247604
1772024958146674200,10.135674072265624,0.3636520206928253,0.18828730285167694,0.025819839909672737
1772024958156671000,10.1456708984375,0.14531436562538147,0.7590096592903137,-0.12446846067905426
1772024958166668300,10.155668212890625,-0.03849644958972931,1.4127726554870605,-0.44523343443870544
1772024958176665000,10.1656650390625,-0.146973118185997,1.260176181793213,-0.8128841519355774
1772024958186662100,10.175662109375,-0.17376235127449036,0.21441508829593658,-1.091439962387085
1772024958196660000,10.185659912109376,0.009006133303046227,-0.6157673001289368,-0.7338521480560303
1772024958206657300,10.1956572265625,-0.1377280056476593,-1.0348632335662842,0.12283936887979507
1772024958216654000,10.205654052734374,-0.5131841897964478,-1.0520597696304321,1.1317323446273804
1772024958226651100,10.215651123046875,-0.6639533042907715,-0.8789729475975037,1.8311736583709717
1772024958236648200,10.225648193359374,-0.7481560707092285,-0.4657672345638275,1.4331413507461548
1772024958246645200,10.235645263671875,-0.6239477396011353,0.0834323912858963,0.11490648984909058
1772024958256642000,10.24564208984375,-0.4381909668445587,0.39716076850891113,-1.1499807834625244
1772024958266639400,10.255639404296875,-0.4179110825061798,0.411924809217453,-1.744014859199524
1772024958276636200,10.26563623046875,-0.39491868019104004,0.2292194664478302,-1.7707247734069824
1772024958286634200,10.27563427734375,-0.3965754508972168,0.03354838117957115,-1.3945287466049194
1772024958296631000,10.285631103515625,-0.4186173677444458,-0.03666878864169121,-0.8063940405845642
1772024958306628400,10.29562841796875,-0.37852272391319275,-0.0409693568944931,-0.29885783791542053
1772024958316625200,10.305625244140625,-0.3167743980884552,0.025255734100937843,-0.01653055101633072
1772024958326622200,10.315622314453124,-0.25019505620002747,0.045321907848119736,0.021535059437155724
1772024958336619300,10.325619384765625,-0.19270406663417816,-0.02119293622672558,-0.04227188229560852
1772024958346616000,10.335615966796874,-0.16840335726737976,-0.1585814356803894,-0.017693549394607544
1772024958356613000,10.345613037109375,-0.16994984447956085,-0.3159729242324829,0.2054756134748459
1772024958366611200,10.355611083984375,-0.1778324842453003,-0.3775362968444824,0.6071822643280029
1772024958376608300,10.365608154296876,-0.18335187435150146,-0.28282150626182556,1.0535224676132202
1772024958386605000,10.37560498046875,-0.16656559705734253,-0.08156339824199677,1.3675447702407837
1772024958396602000,10.38560205078125,-0.12466447800397873,0.16596463322639465,1.4127846956253052
1772024958406599200,10.39559912109375,-0.06347618252038956,0.41372308135032654,1.160072684288025
1772024958416596200,10.40559619140625,0.029028449207544327,0.5805269479751587,0.7654561400413513
1772024958426593000,10.415593017578125,0.15466371178627014,0.6104562282562256,0.3922628164291382
1772024958436590000,10.425590087890624,0.2828003466129303,0.4460987448692322,0.12387581914663315
1772024958446587100,10.435587158203125,0.35599756240844727,0.18455088138580322,-0.011336143128573895
1772024958456585700,10.445585693359375,0.38020169734954834,-0.07596564292907715,-0.0029631652869284153
1772024958466582500,10.45558251953125,0.40152937173843384,-0.31768813729286194,0.1299450397491455
1772024958476579600,10.46557958984375,0.4238554537296295,-0.48045602440834045,0.33287525177001953
1772024958486576600,10.47557666015625,0.46267345547676086,-0.5058856010437012,0.5183305740356445
1772024958496573400,10.485573486328125,0.5005750060081482,-0.37681257724761963,0.6466222405433655
1772024958506570500,10.495570556640626,0.5283529758453369,-0.14991968870162964,0.6888123750686646
1772024958516567600,10.505567626953125,0.5423822402954102,0.036211565136909485,0.6642926335334778
1772024958526564600,10.515564697265624,0.533235490322113,0.1424049586057663,0.6332280039787292
1772024958536562400,10.5255625,0.503135621547699,0.15953201055526733,0.6055532097816467
1772024958546559500,10.5355595703125,0.476565957069397,0.0763915404677391,0.5911522507667542
1772024958556556500,10.545556640625,0.4210813641548157,-0.03054875135421753,0.5908987522125244
1772024958566553600,10.5555537109375,0.355234295129776,-0.0628826692700386,0.657405436038971
1772024958576550400,10.56555029296875,0.30777809023857117,-0.0680028647184372,0.7525966167449951
1772024958586547700,10.575547607421875,0.26752227544784546,-0.07099881023168564,0.8100565671920776
1772024958596544500,10.58554443359375,0.17044074833393097,-0.01739257387816906,0.7810587882995605
1772024958606541600,10.59554150390625,0.04193743318319321,0.10832305997610092,0.6757986545562744
1772024958616538600,10.60553857421875,-0.04964761063456535,0.26645517349243164,0.49714207649230957
1772024958626536700,10.61553662109375,-0.08848381787538528,0.5903441905975342,0.1252167820930481
1772024958636533500,10.625533447265624,-0.07308036088943481,0.7877174615859985,-0.38974159955978394
1772024958646530600,10.635530517578125,-0.10045808553695679,0.35366085171699524,-0.8026233911514282
1772024958656527600,10.645527587890625,-0.019426878541707993,-0.2753130793571472,-0.934069812297821
1772024958666524700,10.655524658203126,0.06899532675743103,-0.512339174747467,-0.5593047142028809
1772024958676521500,10.665521484375,-0.018281782045960426,-0.3320232033729553,0.1083359345793724
1772024958686518800,10.675518798828126,-0.11819551885128021,0.13989606499671936,0.5777590274810791
1772024958696515600,10.685515625,-0.18028712272644043,0.7419382333755493,0.7355065941810608
1772024958706513700,10.695513671875,-0.18301671743392944,1.2906064987182617,0.5715383291244507
1772024958716510500,10.705510498046875,-0.15191154181957245,1.5970535278320312,0.08799325674772263
1772024958726507800,10.7155078125,-0.1454734355211258,1.624293327331543,-0.5617477893829346
1772024958736504600,10.725504638671875,-0.2594527304172516,1.4496350288391113,-1.205949068069458
1772024958746501400,10.73550146484375,-0.40234363079071045,1.0688468217849731,-1.674482822418213
1772024958756498700,10.745498779296875,-0.5379595160484314,0.5784440040588379,-1.7975916862487793
1772024958766495500,10.75549560546875,-0.6180914640426636,-0.04596566781401634,-1.6581881046295166
1772024958776492500,10.765492431640626,-0.6861155033111572,-0.4629130959510803,-1.245266079902649
1772024958786489600,10.775489501953125,-0.6711013913154602,-0.7135693430900574,-0.787868082523346
1772024958796487700,10.78548779296875,-0.6064885854721069,-0.8201019167900085,-0.4563503563404083
1772024958806484500,10.795484375,-0.49973064661026,-0.733772873878479,-0.22781804203987122
1772024958816481500,10.8054814453125,-0.44115975499153137,-0.674513578414917,-0.1259862184524536
