time,seconds_elapsed,z,y,x
1772459204070396000,0.08539599609375,-0.23071686923503876,-0.01603996753692627,0.02880650758743286
1772459204080393000,0.09539306640625,-0.253129780292511,0.04784820228815079,0.03285318240523338
1772459204090390000,0.10539013671875,-0.2451399862766266,0.13043741881847382,0.05750581622123718
1772459204100386800,0.11538671875,-0.2179989218711853,0.2101873755455017,0.11930686235427856
1772459204110383900,0.1253837890625,-0.18249663710594177,0.25024333596229553,0.21757939457893372
1772459204120381000,0.135380859375,-0.12175685912370682,0.22333292663097382,0.3317432403564453
1772459204130377700,0.145377685546875,-0.037777941673994064,0.12299145013093948,0.46063166856765747
1772459204140374800,0.155374755859375,0.07593744248151779,0.010752793401479721,0.5886613130569458
1772459204150371800,0.165371826171875,0.19788938760757446,-0.05438188090920448,0.7299107313156128
1772459204160369000,0.175368896484375,0.2860432267189026,-0.10270068049430847,0.879410445690155
1772459204170365700,0.18536572265625,0.34585627913475037,-0.20219460129737854,1.0232433080673218
1772459204180363000,0.195363037109375,0.37225887179374695,-0.3551327586174011,1.140214443206787
1772459204190359800,0.20535986328125,0.34780144691467285,-0.5378634929656982,1.234028697013855
1772459204200356900,0.21535693359375,0.2580305337905884,-0.6849802136421204,1.3000985383987427
1772459204210354000,0.22535400390625,0.10349971801042557,-0.7980595827102661,1.3404966592788696
1772459204220351000,0.23535107421875,-0.11552770435810089,-0.8922649025917053,1.3474746942520142
1772459204230347800,0.24534765625,-0.37791377305984497,-0.9417414665222168,1.3213629722595215
1772459204240344800,0.2553447265625,-0.6320427060127258,-0.9594190120697021,1.2467381954193115
1772459204250342000,0.265341796875,-0.8232938647270203,-0.9660356044769287,1.1259841918945312
1772459204260338700,0.275338623046875,-0.9454320073127747,-1.0224547386169434,0.9382249712944031
1772459204270336000,0.2853359375,-1.0009304285049438,-1.0479575395584106,0.7128071188926697
1772459204280332800,0.295332763671875,-0.9960206151008606,-0.9313377737998962,0.4973784387111664
1772459204290329900,0.305329833984375,-0.9581571817398071,-0.8422949910163879,0.3001008927822113
1772459204300327000,0.315326904296875,-0.9178124070167542,-0.837881326675415,0.1389937698841095
1772459204310324000,0.325323974609375,-0.9081971645355225,-0.8181203603744507,0.031116966158151627
1772459204320320800,0.33532080078125,-0.9459629058837891,-0.9004833698272705,-0.08356408029794693
1772459204330318000,0.345318115234375,-1.0037124156951904,-1.1080399751663208,-0.24572479724884033
1772459204340315000,0.35531494140625,-1.0249838829040527,-1.3837921619415283,-0.42397868633270264
1772459204350311700,0.365311767578125,-1.020911455154419,-1.706351399421692,-0.5684505105018616
1772459204360309000,0.37530908203125,-0.9826958775520325,-2.024585723876953,-0.6523730754852295
1772459204370305800,0.385305908203125,-0.8998157978057861,-2.1970784664154053,-0.633414089679718
1772459204380302800,0.395302734375,-0.8434467911720276,-2.278132915496826,-0.48757222294807434
1772459204390300000,0.4052998046875,-0.8157788515090942,-2.3446481227874756,-0.24341188371181488
1772459204400297000,0.415296875,-0.7987404465675354,-2.3634228706359863,0.06055653095245361
1772459204410293800,0.425293701171875,-0.7531440258026123,-2.283240556716919,0.3863239586353302
1772459204420291000,0.435291015625,-0.6579773426055908,-2.09559965133667,0.6633848547935486
1772459204430288000,0.445287841796875,-0.45943135023117065,-2.182157039642334,0.871734619140625
1772459204440285000,0.455284912109375,-0.3842942714691162,-1.8284192085266113,0.6002192497253418
1772459204450282800,0.46528271484375,-0.4639669954776764,-1.568878173828125,-0.26705458760261536
1772459204460280000,0.475280029296875,-0.6298604011535645,-1.5625672340393066,-1.4445973634719849
1772459204470276900,0.48527685546875,-0.8218676447868347,-1.2807866334915161,-2.499237060546875
1772459204480274000,0.49527392578125,-0.9368221759796143,-0.3259581923484802,-3.195634603500366
1772459204490271000,0.50527099609375,-0.8152045011520386,1.0579713582992554,-3.3606796264648438
1772459204500272400,0.5152724609375,-0.5332324504852295,2.386831760406494,-2.917908191680908
1772459204510269200,0.525269287109375,-0.30392158031463623,3.2100791931152344,-2.1765997409820557
1772459204520266200,0.535266357421875,-0.1747785210609436,3.3427610397338867,-1.4209860563278198
1772459204530263300,0.54526318359375,-0.08131034672260284,3.0165371894836426,-0.8145374059677124
1772459204540260400,0.55526025390625,-0.0709724873304367,2.459397554397583,-0.40643492341041565
1772459204550257200,0.565257080078125,-0.13634328544139862,1.8618088960647583,-0.08894801884889603
1772459204560254200,0.575254150390625,-0.2477627545595169,1.3925259113311768,0.24705636501312256
1772459204570251300,0.585251220703125,-0.37225309014320374,1.1392290592193604,0.5476938486099243
1772459204580248300,0.595248291015625,-0.4736012816429138,1.0929278135299683,0.737270176410675
1772459204590245000,0.6052451171875,-0.5000756978988647,1.188280463218689,0.7902531623840332
1772459204600242200,0.6152421875,-0.45849496126174927,1.3549370765686035,0.7946246862411499
1772459204610239200,0.6252392578125,-0.35035279393196106,1.5140844583511353,0.8080097436904907
1772459204620236000,0.635236083984375,-0.19516102969646454,1.5768687725067139,0.8268733620643616
1772459204630233300,0.6452333984375,-0.03282570093870163,1.545412540435791,0.8339404463768005
1772459204640230100,0.655230224609375,0.10090839117765427,1.4197942018508911,0.8362525701522827
1772459204650227200,0.665227294921875,0.19805878400802612,1.194853663444519,0.8146224617958069
1772459204660224300,0.675224365234375,0.25608745217323303,0.9589768648147583,0.7967292070388794
1772459204670221300,0.68522119140625,0.2615196406841278,0.8127959966659546,0.8132349848747253
1772459204680218000,0.695218017578125,0.2255193144083023,0.7935019731521606,0.862781286239624
1772459204690215400,0.70521533203125,0.19188685715198517,0.8357614278793335,0.945167064666748
1772459204700212200,0.715212158203125,0.1903235763311386,0.8774630427360535,1.083268642425537
1772459204710209000,0.725208984375,0.2250409871339798,0.8613554239273071,1.2548884153366089
1772459204720206300,0.735206298828125,0.2588237226009369,0.7236308455467224,1.4274884462356567
1772459204730203100,0.745203125,0.2529201805591583,0.45839884877204895,1.5695011615753174
1772459204740200200,0.7552001953125,0.1743270754814148,0.09876132756471634,1.6740713119506836
1772459204750197200,0.765197265625,0.047845661640167236,-0.35717159509658813,1.7306987047195435
1772459204760194300,0.7751943359375,-0.1232491210103035,-0.7807681560516357,1.7401806116104126
1772459204770191000,0.785191162109375,-0.3174195885658264,-1.1273480653762817,1.6763259172439575
1772459204780188400,0.7951884765625,-0.4782486855983734,-1.3518400192260742,1.5151399374008179
1772459204790185200,0.805185302734375,-0.5785279273986816,-1.4109567403793335,1.2762097120285034
1772459204800182300,0.815182373046875,-0.6266883015632629,-1.3244493007659912,0.9737568497657776
1772459204810179300,0.825179443359375,-0.6434932351112366,-1.1257539987564087,0.6461572647094727
1772459204820176400,0.83517626953125,-0.6629923582077026,-0.9141861796379089,0.33434638381004333
1772459204830173200,0.845173095703125,-0.7610260248184204,-0.7258776426315308,0.07572668790817261
1772459204840170200,0.855170166015625,-0.9477450251579285,-0.5896124839782715,-0.17125087976455688
1772459204850167300,0.865167236328125,-1.1081688404083252,-0.5324030518531799,-0.39502769708633423
1772459204860164000,0.8751640625,-1.1326230764389038,-0.5007857084274292,-0.5963653922080994
1772459204870161400,0.885161376953125,-0.9240040183067322,-0.4838813245296478,-0.6977200508117676
1772459204880158200,0.895158203125,-0.5962205529212952,-0.5116982460021973,-0.7651240825653076
1772459204890155300,0.9051552734375,-0.3353579640388489,-0.46204835176467896,-0.7549774050712585
1772459204900152300,0.91515234375,-0.14884507656097412,-0.5058030486106873,-0.6965281963348389
1772459204910149400,0.9251494140625,-0.002714640460908413,-0.8370553851127625,-0.5062815546989441
1772459204920147200,0.935147216796875,0.12061554938554764,-1.4362274408340454,-0.16744330525398254
1772459204930144300,0.945144287109375,0.3577060401439667,-2.2552247047424316,0.24402429163455963
1772459204940141300,0.955141357421875,0.7012479901313782,-3.156494617462158,0.5794427990913391
1772459204950138400,0.965138427734375,1.0958020687103271,-3.973588705062866,0.5507675409317017
1772459204960135200,0.97513525390625,1.4586316347122192,-4.181190013885498,0.033847957849502563
1772459204970132200,0.98513232421875,1.7334301471710205,-3.542407989501953,-0.8749625086784363
1772459204980129300,0.99512939453125,1.876914620399475,-1.883940577507019,-1.4603333473205566
1772459204990126000,1.0051259765625,1.8543583154678345,-0.22745230793952942,-1.4868431091308594
1772459205000123100,1.015123046875,1.7248541116714478,0.9424615502357483,-1.085566520690918
1772459205010120200,1.0251201171875,1.576629638671875,1.3582056760787964,-0.5048274397850037
1772459205020117200,1.0351171875,1.4190016984939575,1.151625633239746,0.013707855716347694
1772459205030114000,1.045114013671875,1.2511932849884033,0.6690300703048706,0.4226107895374298
1772459205040111400,1.055111328125,1.0902960300445557,0.11737697571516037,0.7262940406799316
1772459205050108200,1.065108154296875,0.9665566086769104,-0.35258665680885315,0.9540335536003113
1772459205060105200,1.075105224609375,0.8534063100814819,-0.7616894841194153,1.1574779748916626
1772459205070102300,1.085102294921875,0.69114750623703,-1.1261329650878906,1.3638204336166382
1772459205080099300,1.095099365234375,0.44270437955856323,-1.4498018026351929,1.5635032653808594
1772459205090096000,1.10509619140625,0.13607089221477509,-1.6603838205337524,1.6620062589645386
1772459205100093200,1.11509326171875,-0.1514013707637787,-1.6940847635269165,1.6008765697479248
1772459205110090200,1.12509033203125,-0.3437784016132355,-1.4650307893753052,1.3815659284591675
1772459205120087000,1.135087158203125,-0.41689255833625793,-0.9595369696617126,1.049559473991394
1772459205130084400,1.14508447265625,-0.4100813865661621,-0.2751019597053528,0.6712430715560913
1772459205140081200,1.1550810546875,-0.39054790139198303,0.4425235390663147,0.30659934878349304
1772459205150078200,1.165078125,-0.37483879923820496,1.0915045738220215,-0.02239381894469261
1772459205160075300,1.1750751953125,-0.3825465142726898,1.591562032699585,-0.2884763777256012
1772459205170072300,1.185072265625,-0.38975363969802856,1.8472676277160645,-0.47166934609413147
1772459205180069000,1.195069091796875,-0.39068496227264404,1.8164503574371338,-0.5656786561012268
1772459205190066400,1.20506640625,-0.3776838481426239,1.5410826206207275,-0.5997127890586853
1772459205200063200,1.215063232421875,-0.3508024513721466,1.130024790763855,-0.5988025069236755
1772459205210060300,1.225060302734375,-0.3073822855949402,0.6992517113685608,-0.5638598799705505
1772459205220057300,1.235057373046875,-0.25533241033554077,0.34605419635772705,-0.476631760597229
1772459205230054100,1.24505419921875,-0.2114683985710144,0.013003723695874214,-0.3759196698665619
1772459205240051200,1.25505126953125,-0.20048819482326508,-0.3004194498062134,-0.2691743075847626
1772459205250048300,1.26504833984375,-0.21788740158081055,-0.5219004154205322,-0.17827798426151276
1772459205260045300,1.27504541015625,-0.2679159641265869,-0.6742087602615356,-0.11978058516979218
1772459205270042000,1.2850419921875,-0.35993754863739014,-0.7647695541381836,-0.11693466454744339
1772459205280039400,1.295039306640625,-0.47233811020851135,-0.8253300786018372,-0.17061839997768402
1772459205290036200,1.3050361328125,-0.5946515798568726,-0.844428539276123,-0.26663467288017273
1772459205300033300,1.315033203125,-0.7032368779182434,-0.7966095805168152,-0.4063912332057953
1772459205310030300,1.3250302734375,-0.7864912748336792,-0.6386688351631165,-0.5607694387435913
1772459205320027400,1.33502734375,-0.8399651646614075,-0.3949379324913025,-0.7417887449264526
1772459205330024200,1.345024169921875,-0.8432391285896301,-0.15761685371398926,-0.9514520764350891
1772459205340021200,1.355021240234375,-0.7902536392211914,0.02464936301112175,-1.1813441514968872
1772459205350018300,1.365018310546875,-0.661011278629303,0.13215507566928864,-1.3517584800720215
1772459205360015000,1.37501513671875,-0.47224724292755127,0.14607222378253937,-1.3862608671188354
1772459205370012200,1.38501220703125,-0.3712415397167206,0.1789330691099167,-1.264184594154358
1772459205380009200,1.39500927734375,-0.38895049691200256,0.18193498253822327,-1.0064033269882202
1772459205390007300,1.40500732421875,-0.45254698395729065,0.10905517637729645,-0.7409980297088623
1772459205400004000,1.415004150390625,-0.3002208471298218,-0.21375776827335358,-0.6501043438911438
1772459205410001200,1.425001220703125,0.0830673798918724,-1.0157564878463745,-1.0298218727111816
1772459205419998200,1.434998291015625,0.5253976583480835,-2.0507540702819824,-1.9843251705169678
1772459205429995300,1.444995361328125,0.9291354417800903,-2.6772499084472656,-3.231309175491333
1772459205439992000,1.454991943359375,1.00548255443573,-2.438901901245117,-4.360503673553467
1772459205449989400,1.4649892578125,0.884055495262146,-0.8672642707824707,-4.721611976623535
1772459205459986200,1.474986083984375,0.7309074997901917,1.0149214267730713,-4.206460952758789
1772459205469983200,1.484983154296875,0.5485223531723022,2.490753650665283,-3.1435141563415527
1772459205479980300,1.494980224609375,0.4238449037075043,3.184269905090332,-2.0352623462677
1772459205489977300,1.504977294921875,0.3316725790500641,2.875746965408325,-1.1614867448806763
1772459205499974100,1.51497412109375,0.21092429757118225,1.6599929332733154,-0.4925438463687897
1772459205509967400,1.52496728515625,0.14309433102607727,0.13379117846488953,0.08135385811328888
1772459205519964400,1.53496435546875,0.2053699493408203,-1.1198489665985107,0.551146924495697
1772459205529961500,1.54496142578125,0.32082414627075195,-1.8048101663589478,0.9397578239440918
1772459205539958500,1.55495849609375,0.40071603655815125,-2.008565902709961,1.2640341520309448
1772459205549955300,1.564955322265625,0.4322141408920288,-1.9313232898712158,1.4714683294296265
1772459205559952400,1.574952392578125,0.433917760848999,-1.6574187278747559,1.4375804662704468
1772459205569949400,1.584949462890625,0.4387408494949341,-1.16667902469635,1.113085150718689
1772459205579946200,1.5949462890625,0.4210833013057709,-0.42105674743652344,0.5583767294883728
1772459205589943300,1.604943359375,0.3878973722457886,0.47095030546188354,-0.10012302547693253
1772459205599940400,1.6149404296875,0.38162270188331604,1.3314323425292969,-0.7317822575569153
1772459205609937400,1.6249375,0.4131040573120117,2.054215908050537,-1.1814225912094116
1772459205619934200,1.634934326171875,0.4844086170196533,2.53157901763916,-1.3603323698043823
1772459205629931500,1.644931640625,0.5744293332099915,2.7149505615234375,-1.243479609489441
1772459205639928300,1.65492822265625,0.6364359855651855,2.5730106830596924,-0.9004722833633423
1772459205649925400,1.66492529296875,0.6137988567352295,2.1839115619659424,-0.4222538471221924
1772459205659922400,1.67492236328125,0.5145217776298523,1.6728280782699585,0.08554600179195404
1772459205669919200,1.684919189453125,0.33834290504455566,1.1034175157546997,0.5547991991043091
1772459205679916300,1.694916259765625,0.09499577432870865,0.500517725944519,0.9298987984657288
1772459205689913300,1.704913330078125,-0.20241740345954895,-0.08467954397201538,1.1878044605255127
1772459205699910400,1.714910400390625,-0.5154733657836914,-0.5904585719108582,1.315240502357483
1772459205709907200,1.7249072265625,-0.8116134405136108,-0.95429527759552,1.326784610748291
1772459205719904500,1.734904541015625,-1.0472118854522705,-1.179921269416809,1.2489372491836548
1772459205729901300,1.7449013671875,-1.2227329015731812,-1.2839571237564087,1.0838009119033813
1772459205739898400,1.7548984375,-1.3305877447128296,-1.2887464761734009,0.8387534022331238
1772459205749895400,1.7648955078125,-1.3617056608200073,-1.1865150928497314,0.5494695901870728
1772459205759892500,1.774892578125,-1.3279621601104736,-1.0121229887008667,0.24421225488185883
1772459205769889300,1.78488916015625,-1.251428484916687,-0.8025794625282288,-0.04386604577302933
1772459205779886600,1.794886474609375,-1.144976258277893,-0.5795509219169617,-0.26199012994766235
1772459205789883400,1.80488330078125,-0.9878878593444824,-0.3473438620567322,-0.416620135307312
1772459205799880200,1.814880126953125,-0.7990620136260986,-0.10356557369232178,-0.5218139290809631
1772459205809877500,1.82487744140625,-0.6011847853660583,0.10344968736171722,-0.5891490578651428
1772459205819874300,1.834874267578125,-0.40437933802604675,0.2805669605731964,-0.5910854339599609
1772459205829871400,1.844871337890625,-0.2080964744091034,0.4353213608264923,-0.5047105550765991
1772459205839869200,1.854869140625,-0.09842270612716675,0.5170548558235168,-0.3888718783855438
1772459205849866500,1.864866455078125,-0.09157761186361313,0.4321141242980957,-0.3385595381259918
1772459205859863300,1.87486328125,-0.1008259728550911,0.13166959583759308,-0.3768720328807831
1772459205869860400,1.8848603515625,0.035826727747917175,-0.2985437214374542,-0.4150487184524536
1772459205879857400,1.894857421875,0.45407748222351074,-0.6154831051826477,-0.5230710506439209
1772459205889854500,1.9048544921875,1.2100012302398682,-0.7741682529449463,-1.0590736865997314
1772459205899851300,1.914851318359375,2.016947031021118,-1.057523488998413,-2.2063562870025635
1772459205909848600,1.9248486328125,2.4124460220336914,-0.6960111856460571,-3.447516679763794
1772459205919845400,1.934845458984375,2.3308842182159424,0.5088889002799988,-4.015289306640625
1772459205929842400,1.944842529296875,2.0958895683288574,2.0284619331359863,-3.418036937713623
1772459205939839500,1.954839599609375,1.830212950706482,2.8213651180267334,-1.9011609554290771
1772459205949836300,1.964836181640625,1.5961073637008667,2.422757863998413,-0.2558375298976898
1772459205959833300,1.974833251953125,1.3812576532363892,1.4996469020843506,0.9709116816520691
1772459205969830400,1.984830322265625,1.0165035724639893,0.6519255638122559,1.6017086505889893
1772459205979827500,1.994827392578125,0.4353879690170288,0.3598271310329437,1.8287479877471924
1772459205989824300,2.00482421875,-0.09868796169757843,0.7005311250686646,1.8831398487091064
1772459205999821300,2.0148212890625,-0.4446496069431305,1.244955062866211,1.8108733892440796
1772459206009818400,2.024818359375,-0.6375361084938049,1.6637970209121704,1.6672539710998535
1772459206019815400,2.0348154296875,-0.6659166216850281,1.8928022384643555,1.567708969116211
1772459206029812200,2.044812255859375,-0.5376904606819153,1.9185864925384521,1.5405709743499756
1772459206039809500,2.0548095703125,-0.34488534927368164,1.7481788396835327,1.5288640260696411
1772459206049806300,2.064806396484375,-0.1443268209695816,1.5096591711044312,1.4835057258605957
1772459206059803400,2.074803466796875,0.05754690244793892,1.3559889793395996,1.415926218032837
1772459206069800400,2.084800537109375,0.2030005156993866,1.3594387769699097,1.3248647451400757
1772459206079797200,2.09479736328125,0.2598768174648285,1.552173137664795,1.2525697946548462
1772459206089794300,2.104794189453125,0.26034727692604065,1.8208222389221191,1.2623755931854248
1772459206099791400,2.114791259765625,0.25799065828323364,2.0321669578552246,1.3898531198501587
1772459206109788400,2.124788330078125,0.25946372747421265,2.056034564971924,1.6113181114196777
1772459206119785200,2.13478515625,0.24842198193073273,1.793583869934082,1.8990439176559448
1772459206129782500,2.144782470703125,0.20384779572486877,1.2764543294906616,2.2095625400543213
1772459206139779300,2.154779296875,0.14019078016281128,0.6155126094818115,2.4774577617645264
1772459206149776400,2.1647763671875,0.06076536700129509,-0.05665333569049835,2.646576404571533
1772459206159773400,2.1747734375,-0.021718060597777367,-0.6661704778671265,2.6826281547546387
1772459206169770500,2.1847705078125,-0.1062692254781723,-1.157754898071289,2.602456569671631
1772459206179767300,2.194767333984375,-0.20098428428173065,-1.4779469966888428,2.4226765632629395
1772459206189764400,2.204764404296875,-0.302396684885025,-1.596787691116333,2.1279661655426025
1772459206199761400,2.214761474609375,-0.40914496779441833,-1.4922800064086914,1.710955262184143
1772459206209758200,2.22475830078125,-0.5042845606803894,-1.2324187755584717,1.2028813362121582
1772459206219755500,2.234755615234375,-0.5785225629806519,-0.8918619751930237,0.6569439172744751
1772459206229752300,2.24475244140625,-0.6156107187271118,-0.5500756502151489,0.1580202281475067
1772459206239749400,2.254749267578125,-0.6107978820800781,-0.2648828327655792,-0.25435081124305725
1772459206249746400,2.264746337890625,-0.5599437355995178,-0.05285422131419182,-0.5543236136436462
1772459206259744500,2.27474462890625,-0.4547072947025299,0.09041213244199753,-0.7172228097915649
1772459206269741300,2.2847412109375,-0.31603991985321045,0.16283133625984192,-0.7663129568099976
1772459206279738400,2.29473828125,-0.16156858205795288,0.1752709597349167,-0.7499731183052063
1772459206289735400,2.3047353515625,-0.029595786705613136,0.12583915889263153,-0.7193765044212341
1772459206299732500,2.314732421875,0.05451243370771408,-0.006759357172995806,-0.646381676197052
1772459206309729300,2.324729248046875,0.12480077892541885,-0.16798415780067444,-0.4900885820388794
1772459206319726600,2.3347265625,0.1335412710905075,-0.31232720613479614,-0.3273364007472992
1772459206329723400,2.344723388671875,0.011443777941167355,-0.508644163608551,-0.29025545716285706
1772459206339720400,2.354720458984375,-0.1174422949552536,-0.7162908315658569,-0.42164915800094604
1772459206349717500,2.364717529296875,-0.13410529494285583,-0.8134869337081909,-0.7049100995063782
1772459206359714300,2.37471435546875,0.10878511518239975,-0.8635112643241882,-1.0161842107772827
1772459206369711400,2.38471142578125,0.5549137592315674,-0.9831016063690186,-1.4954653978347778
1772459206379708400,2.39470849609375,0.887744128704071,-0.8984687328338623,-2.3167803287506104
1772459206389705500,2.40470556640625,0.9021614193916321,-0.1232108399271965,-3.2747108936309814
1772459206399702300,2.414702392578125,0.7148163318634033,0.8981428742408752,-3.8399391174316406
1772459206409699300,2.42469921875,0.7194270491600037,1.9393953084945679,-3.407938003540039
1772459206419696400,2.4346962890625,0.9087088108062744,2.4639949798583984,-2.137136459350586
1772459206429693400,2.444693359375,1.0641664266586304,2.152992010116577,-0.7603116631507874
1772459206439690200,2.454690185546875,1.106318712234497,1.4337621927261353,0.24626493453979492
1772459206449687600,2.4646875,0.9932564496994019,0.5731317400932312,0.8342748284339905
1772459206459684400,2.474684326171875,0.7481955289840698,-0.1447044312953949,1.1148226261138916
1772459206469681200,2.48468115234375,0.43220990896224976,-0.6720483899116516,1.2487396001815796
1772459206479678500,2.494678466796875,0.0699678286910057,-0.9985050559043884,1.374455213546753
1772459206489675300,2.50467529296875,-0.26774853467941284,-1.1699726581573486,1.4595366716384888
1772459206499672300,2.51467236328125,-0.5055429339408875,-1.1102088689804077,1.4367552995681763
1772459206509670000,2.524669921875,-0.5801247358322144,-0.8066584467887878,1.2649946212768555
1772459206519666700,2.534666748046875,-0.45190125703811646,-0.3757304847240448,0.9083238244056702
1772459206529663700,2.544663818359375,-0.17132402956485748,0.0671248659491539,0.3824842572212219
1772459206539660800,2.554660888671875,0.17231349647045135,0.41070300340652466,-0.22335320711135864
1772459206549657900,2.564657958984375,0.5486934781074524,0.6066761612892151,-0.7604721784591675
1772459206559654700,2.574654541015625,0.839967668056488,0.7125157713890076,-1.1217526197433472
1772459206569652000,2.58465185546875,0.9629964828491211,0.7682186365127563,-1.2304810285568237
1772459206579648800,2.594648681640625,0.920484185218811,0.7786534428596497,-1.051946997642517
1772459206589645800,2.604645751953125,0.7796749472618103,0.7177943587303162,-0.6325588226318359
1772459206599643000,2.614642822265625,0.5807631611824036,0.5523686408996582,-0.11306532472372055
1772459206609639700,2.6246396484375,0.355807363986969,0.26598700881004333,0.3752579391002655
1772459206619636700,2.63463671875,0.13518871366977692,-0.0759253278374672,0.7627332806587219
1772459206629633800,2.6446337890625,-0.056824691593647,-0.43663808703422546,0.9914293885231018
1772459206639630800,2.654630859375,-0.1986055225133896,-0.7572054862976074,1.0652220249176025
1772459206649627600,2.664627685546875,-0.278365820646286,-0.9792755842208862,1.0554965734481812
1772459206659625700,2.674625732421875,-0.3014455735683441,-1.0595264434814453,1.0224970579147339
1772459206669622800,2.684622802734375,-0.3035469353199005,-1.002062439918518,0.9733985066413879
1772459206679619800,2.694619873046875,-0.30764687061309814,-0.8371696472167969,0.9220245480537415
1772459206689616600,2.70461669921875,-0.29904282093048096,-0.599678635597229,0.9077946543693542
1772459206699613700,2.71461376953125,-0.27593111991882324,-0.35316795110702515,0.9106053113937378
1772459206709610800,2.72461083984375,-0.2531436085700989,-0.1678607016801834,0.900946319103241
1772459206719607800,2.73460791015625,-0.21362122893333435,-0.04016212373971939,0.8902015686035156
1772459206729604600,2.7446044921875,-0.16423383355140686,0.03427925333380699,0.8951833844184875
1772459206739602000,2.754601806640625,-0.11752412468194962,0.05135757103562355,0.8947184085845947
1772459206749598700,2.7645986328125,-0.061650536954402924,0.02812223881483078,0.8809797763824463
1772459206759595500,2.774595458984375,0.006304012145847082,-0.04041953757405281,0.8512237071990967
1772459206769592800,2.7845927734375,0.06936288625001907,-0.13929541409015656,0.807900071144104
1772459206779589600,2.794589599609375,0.08323528617620468,-0.19305771589279175,0.7657228112220764
1772459206789586700,2.804586669921875,0.07195285707712173,-0.1800391674041748,0.821028470993042
1772459206799583700,2.814583740234375,0.08689691871404648,-0.14417597651481628,0.9810671210289001
1772459206809580800,2.824580810546875,0.14726673066616058,-0.026299724355340004,1.158307433128357
1772459206819577600,2.83457763671875,0.20399019122123718,0.23812633752822876,1.1894900798797607
1772459206829575000,2.844574951171875,0.15814965963363647,0.3881916105747223,0.8228417038917542
1772459206839571700,2.85457177734375,0.043769557029008865,0.10389411449432373,-0.07160866260528564
1772459206849568800,2.86456884765625,0.08842170983552933,-0.5413883924484253,-1.216091275215149
1772459206859565800,2.87456591796875,0.28171050548553467,-0.9964568614959717,-2.1260480880737305
1772459206869562600,2.884562744140625,0.3884503245353699,-0.4614906907081604,-2.4492616653442383
1772459206879559700,2.8945595703125,0.33531999588012695,0.6746684312820435,-2.2289488315582275
1772459206889556700,2.904556640625,0.35613176226615906,1.7980501651763916,-1.4572126865386963
1772459206899553800,2.9145537109375,0.49255430698394775,2.2971885204315186,-0.443620502948761
1772459206909550600,2.924550537109375,0.6213570237159729,1.98739755153656,0.3490321934223175
1772459206919548000,2.9345478515625,0.6465939283370972,1.3297916650772095,0.8336787819862366
1772459206929544700,2.944544677734375,0.5042181611061096,0.5975243449211121,1.0260188579559326
1772459206939541800,2.954541748046875,0.21189658343791962,-0.06181282922625542,0.9935146570205688
1772459206949538800,2.964538818359375,-0.06164443492889404,-0.47342607378959656,0.8846495747566223
1772459206959535900,2.974535888671875,-0.22348687052726746,-0.5378143787384033,0.7782616019248962
1772459206969532700,2.98453271484375,-0.2688494920730591,-0.4012666642665863,0.6185009479522705
1772459206979530000,2.994530029296875,-0.23182331025600433,-0.17907513678073883,0.4254923462867737
1772459206989526800,3.00452685546875,-0.13925442099571228,0.08372198045253754,0.3112027049064636
1772459206999523600,3.014523681640625,-0.005709945224225521,0.25719258189201355,0.2776945233345032
1772459207009521000,3.02452099609375,0.14457513391971588,0.31477829813957214,0.2822912335395813
1772459207019517700,3.034517578125,0.27234771847724915,0.29534095525741577,0.30104148387908936
1772459207029515800,3.044515869140625,0.34909093379974365,0.2750096917152405,0.30476152896881104
1772459207039512600,3.0545126953125,0.34679877758026123,0.3245024085044861,0.3054156005382538
1772459207049510000,3.064510009765625,0.2574685513973236,0.4613488018512726,0.3524380028247833
1772459207059506700,3.074506591796875,0.1086961105465889,0.638282835483551,0.5060566067695618
1772459207069503700,3.084503662109375,-0.015278501436114311,0.7136642336845398,0.7240570783615112
1772459207079500800,3.094500732421875,-0.12110532820224762,0.6259018778800964,0.9297122359275818
1772459207089497900,3.104497802734375,-0.2509252727031708,0.3980984687805176,1.0514042377471924
1772459207099494700,3.11449462890625,-0.39440813660621643,0.048064034432172775,1.0690804719924927
1772459207109491700,3.12449169921875,-0.5060186386108398,-0.3862166404724121,0.9585083723068237
1772459207119488800,3.13448876953125,-0.5730381608009338,-0.793001651763916,0.7386553883552551
1772459207129485800,3.14448583984375,-0.5933794975280762,-1.0895421504974365,0.46689262986183167
1772459207139482600,3.154482666015625,-0.5727812647819519,-1.170675277709961,0.18552564084529877
1772459207149479700,3.164479736328125,-0.5437136888504028,-0.9856754541397095,-0.04969314858317375
1772459207159476700,3.174476806640625,-0.5061167478561401,-0.638422966003418,-0.21990403532981873
1772459207169473500,3.1844736328125,-0.449640691280365,-0.2435576468706131,-0.3392525315284729
1772459207179470800,3.194470947265625,-0.3790237307548523,0.059372007846832275,-0.40354108810424805
1772459207189467600,3.204467529296875,-0.3012502193450928,0.21346592903137207,-0.4206034243106842
1772459207199464700,3.214464599609375,-0.22347687184810638,0.22092464566230774,-0.39651378989219666
1772459207209461800,3.224461669921875,-0.15376578271389008,0.12177099287509918,-0.3362593352794647
1772459207219458800,3.234458740234375,-0.0989810973405838,-0.03812120109796524,-0.25101926922798157
1772459207229455600,3.24445556640625,-0.06863395124673843,-0.2041545808315277,-0.1554344892501831
1772459207239453000,3.254452880859375,-0.06122983619570732,-0.3305750787258148,-0.06015138328075409
1772459207249449700,3.26444970703125,-0.04476716369390488,-0.39340901374816895,0.025517012923955917
1772459207259446800,3.27444677734375,-0.028383128345012665,-0.41033127903938293,0.09774406999349594
1772459207269443800,3.28444384765625,-0.07209117710590363,-0.5602968335151672,0.0903562381863594
1772459207279440600,3.294440673828125,-0.2764853239059448,-0.8576368689537048,-0.01661095954477787
1772459207289437700,3.304437744140625,-0.5343143939971924,-1.077226161956787,-0.2503732144832611
1772459207299434800,3.314434814453125,-0.5670827031135559,-0.969322919845581,-0.5798310041427612
1772459207309431800,3.324431884765625,-0.18001647293567657,-0.4699465036392212,-0.8960478901863098
1772459207319428600,3.3344287109375,0.5646308064460754,-0.16824311017990112,-1.292446494102478
1772459207329426000,3.344426025390625,1.337748646736145,-0.3949868083000183,-1.899320363998413
1772459207339422700,3.354422607421875,1.7285555601119995,-0.6250290870666504,-2.710721254348755
1772459207349419800,3.364419677734375,1.5941637754440308,-0.3563421666622162,-3.560051679611206
1772459207359417600,3.37441748046875,1.084058403968811,0.2119034230709076,-4.098919868469238
1772459207369415000,3.384414794921875,0.5593696236610413,0.945236325263977,-3.811270236968994
1772459207379411700,3.39441162109375,0.15114536881446838,1.3458011150360107,-2.8427493572235107
1772459207389408800,3.40440869140625,-0.19886015355587006,1.2020304203033447,-1.7008323669433594
1772459207399405800,3.41440576171875,-0.470826655626297,0.6406140327453613,-0.81466144323349
1772459207409403000,3.42440283203125,-0.6238735914230347,-0.16653457283973694,-0.21567325294017792
1772459207419399700,3.434399658203125,-0.6111135482788086,-0.9160578846931458,0.2490725964307785
1772459207429396700,3.444396728515625,-0.5495352149009705,-1.4271550178527832,0.6160743236541748
1772459207439393800,3.454393798828125,-0.5243965983390808,-1.6980706453323364,0.8826977610588074
1772459207449390600,3.464390625,-0.5211772918701172,-1.7686960697174072,1.0469073057174683
1772459207459388000,3.474387939453125,-0.5058081746101379,-1.7134922742843628,1.1106902360916138
1772459207469384700,3.484384765625,-0.50137859582901,-1.61509370803833,1.023984432220459
1772459207479381800,3.4943818359375,-0.6164984703063965,-1.4434103965759277,0.6826762557029724
1772459207489378800,3.50437890625,-0.7635932564735413,-1.023266315460205,0.241727814078331
1772459207499375900,3.5143759765625,-0.7316622138023376,-0.39176714420318604,-0.03889825567603111
1772459207509375700,3.524375732421875,-0.510964572429657,0.3304344713687897,-0.038516074419021606
1772459207519373000,3.534373046875,-0.17630162835121155,1.0647777318954468,0.21073663234710693
1772459207529369900,3.544369873046875,0.20881035923957825,1.661861538887024,0.6081802845001221
1772459207539367000,3.554366943359375,0.5751729011535645,1.9093456268310547,1.0611538887023926
1772459207549364000,3.564364013671875,0.8327768445014954,1.7589755058288574,1.5158168077468872
1772459207559361000,3.574361083984375,0.8971129655838013,1.3167834281921387,1.8685015439987183
1772459207569357800,3.58435791015625,0.7622851729393005,0.6493661999702454,2.0896401405334473
1772459207579355000,3.59435498046875,0.45116403698921204,-0.06958956271409988,2.2111921310424805
1772459207589352000,3.60435205078125,0.10894230008125305,-0.6026775240898132,2.224546194076538
1772459207599349000,3.614348876953125,-0.12338973581790924,-0.7377964854240417,2.1190145015716553
1772459207609345800,3.624345703125,-0.21435493230819702,-0.5045604705810547,1.9437450170516968
1772459207619342800,3.6343427734375,-0.21294532716274261,-0.0903201550245285,1.76980459690094
1772459207629340000,3.64433984375,-0.17532747983932495,0.3306749165058136,1.6007887125015259
1772459207639338000,3.654337890625,-0.12642385065555573,0.6299085021018982,1.4088249206542969
1772459207649334800,3.664334716796875,-0.08952894061803818,0.7469303011894226,1.18544602394104
1772459207659331800,3.674331787109375,-0.0899108424782753,0.713941216468811,0.9352772235870361
1772459207669329000,3.684328857421875,-0.13242295384407043,0.6253100037574768,0.669701337814331
1772459207679325700,3.69432568359375,-0.1978275328874588,0.5254068374633789,0.42342260479927063
1772459207689323000,3.704322998046875,-0.26196640729904175,0.4387252628803253,0.21874716877937317
1772459207699319800,3.71431982421875,-0.29888367652893066,0.38279569149017334,0.044748734682798386
1772459207709316900,3.72431689453125,-0.31627020239830017,0.34336912631988525,-0.08832431584596634
1772459207719314000,3.73431396484375,-0.324053019285202,0.27733495831489563,-0.16734109818935394
1772459207729311000,3.74431103515625,-0.3178273141384125,0.2342497557401657,-0.1558191329240799
1772459207739307800,3.754307861328125,-0.3080274164676666,0.27714449167251587,-0.07353917509317398
1772459207749305000,3.76430517578125,-0.3728959262371063,0.36236560344696045,0.022914711385965347
1772459207759302000,3.774302001953125,-0.48242801427841187,0.4808299243450165,0.10675421357154846
1772459207769299000,3.784298828125,-0.5420212745666504,0.7262696027755737,0.16018517315387726
1772459207779296000,3.7942958984375,-0.44160622358322144,0.9417776465415955,0.03157658874988556
1772459207789292800,3.804292724609375,-0.19930517673492432,0.6037468314170837,-0.4788440763950348
1772459207799289900,3.814289794921875,0.10842122882604599,-0.046057797968387604,-1.2700079679489136
1772459207809287000,3.824286865234375,0.32874780893325806,-0.20613783597946167,-1.9259651899337769
1772459207819284000,3.834283935546875,0.3966786563396454,-0.24540774524211884,-2.280179023742676
1772459207829280800,3.84428076171875,0.47448891401290894,-0.13475531339645386,-2.1783342361450195
1772459207839278000,3.854278076171875,0.5743662714958191,0.10296083241701126,-1.6855533123016357
1772459207849275000,3.86427490234375,0.5522716045379639,0.29931408166885376,-1.0395668745040894
1772459207859272000,3.87427197265625,0.46187537908554077,0.5350831747055054,-0.35377731919288635
1772459207869269000,3.88426904296875,0.4567265808582306,0.52095627784729,0.21678459644317627
1772459207879266000,3.89426611328125,0.5422683954238892,0.2727464735507965,0.6759644150733948
1772459207889262800,3.904262939453125,0.7016909122467041,-0.11815991997718811,1.1848738193511963
1772459207899260000,3.914260009765625,0.907684862613678,-0.5985528826713562,1.7401906251907349
1772459207909258000,3.924258056640625,1.0129989385604858,-1.0825591087341309,2.235013008117676
1772459207919255000,3.934255126953125,0.8641130924224854,-1.2241086959838867,2.590085029602051
1772459207929251800,3.944251953125,0.5880377888679504,-1.1450231075286865,2.654909372329712
1772459207939249000,3.954248779296875,0.40309450030326843,-1.0514832735061646,2.3776843547821045
1772459207949246000,3.964245849609375,0.3000754415988922,-0.92635178565979,1.8826687335968018
1772459207959242800,3.97424267578125,0.24447771906852722,-0.6934354305267334,1.30905020236969
1772459207969240000,3.984239990234375,0.2775081694126129,-0.3157239556312561,0.7723197340965271
1772459207979236900,3.99423681640625,0.3745628297328949,0.1538238376379013,0.27093809843063354
1772459207989234000,4.00423388671875,0.4737718403339386,0.6422522068023682,-0.19343657791614532
1772459207999231000,4.01423095703125,0.557159423828125,1.1005542278289795,-0.5421711206436157
1772459208009228000,4.02422802734375,0.619834840297699,1.4731063842773438,-0.7330375909805298
1772459208019224800,4.034224853515625,0.6481966972351074,1.7003616094589233,-0.7553365230560303
1772459208029222000,4.044221923828125,0.6112520098686218,1.7405227422714233,-0.6402146220207214
1772459208039219000,4.054218994140625,0.504391074180603,1.5969352722167969,-0.4621751308441162
1772459208049215700,4.0642158203125,0.34983161091804504,1.3041270971298218,-0.25603556632995605
1772459208059212800,4.074212890625,0.19553789496421814,0.912569522857666,-0.05975153297185898
1772459208069209900,4.0842099609375,0.07079446315765381,0.44127795100212097,0.07842378318309784
1772459208079207000,4.09420703125,-0.021895259618759155,-0.05127900093793869,0.13631583750247955
1772459208089203700,4.10420361328125,-0.07934772223234177,-0.4751148223876953,0.12188190966844559
1772459208099201000,4.114200927734375,-0.10695671290159225,-0.736583948135376,0.07215031236410141
1772459208109197800,4.12419775390625,-0.11721542477607727,-0.832092821598053,0.026584569364786148
1772459208119195000,4.13419482421875,-0.11087097972631454,-0.7949765920639038,-0.00778964813798666
1772459208129192000,4.14419189453125,-0.0994512289762497,-0.6848338842391968,-0.04642444849014282
1772459208139189000,4.15418896484375,-0.0872558131814003,-0.5337218642234802,-0.09083052724599838
1772459208149186800,4.164186767578125,-0.08681178092956543,-0.3948117196559906,-0.15139417350292206
1772459208159184000,4.174183837890625,-0.11214723438024521,-0.3146079480648041,-0.22370298206806183
1772459208169181000,4.184180908203125,-0.16371220350265503,-0.30281931161880493,-0.31214216351509094
1772459208179178000,4.194177978515625,-0.2411057949066162,-0.35685884952545166,-0.40908947587013245
1772459208189174800,4.2041748046875,-0.3331407606601715,-0.418449729681015,-0.48940137028694153
1772459208199172000,4.214172119140625,-0.3881608545780182,-0.40355467796325684,-0.5391071438789368
1772459208209169000,4.2241689453125,-0.37989556789398193,-0.26056885719299316,-0.5588046312332153
1772459208219165700,4.234165771484375,-0.3025568127632141,-0.09360382705926895,-0.6017819046974182
1772459208229163000,4.2441630859375,-0.1412592977285385,-0.010767804458737373,-0.7129997611045837
1772459208239159800,4.254159912109375,0.02816649340093136,-0.031138591468334198,-0.8810462951660156
1772459208249156900,4.264156982421875,0.19433820247650146,-0.07010608911514282,-1.0300860404968262
1772459208259154000,4.27415380859375,0.3890022337436676,-0.2372436821460724,-1.1944397687911987
1772459208269151000,4.28415087890625,0.5066045522689819,-0.6300908327102661,-1.514040470123291
1772459208279147800,4.294147705078125,0.40970760583877563,-0.8266648650169373,-1.9260945320129395
1772459208289145000,4.30414501953125,0.12270881980657578,-0.7436937689781189,-2.3354384899139404
1772459208299142000,4.314141845703125,-0.13259458541870117,-0.37787050008773804,-2.715057611465454
1772459208309139000,4.324138916015625,-0.12781690061092377,0.3360134959220886,-2.764509916305542
1772459208319136000,4.334135986328125,0.20178230106830597,0.8619012236595154,-2.3830158710479736
1772459208329132800,4.3441328125,0.528785765171051,1.0867204666137695,-1.6948399543762207
1772459208339129900,4.3541298828125,0.631452739238739,0.9379832148551941,-1.028104305267334
1772459208349127000,4.364126953125,0.5360050797462463,0.33268311619758606,-0.6399148106575012
1772459208359124000,4.3741240234375,0.3159424662590027,-0.46610116958618164,-0.43094292283058167
1772459208369122000,4.3841220703125,0.06541819125413895,-1.1071219444274902,-0.2164478600025177
1772459208379118800,4.394118896484375,-0.15179215371608734,-1.5522698163986206,0.014842352829873562
1772459208389116000,4.404115966796875,-0.33945444226264954,-1.6680660247802734,0.2223530262708664
1772459208399113000,4.414113037109375,-0.4486355185508728,-1.5009050369262695,0.3903558850288391
1772459208409109800,4.42410986328125,-0.44879600405693054,-1.18772554397583,0.4654724895954132
1772459208419107000,4.434107177734375,-0.3103877902030945,-0.7684319019317627,0.41487669944763184
1772459208429103900,4.444103759765625,-0.03791995346546173,-0.3218821585178375,0.2729203999042511
1772459208439101000,4.454100830078125,0.2735719084739685,0.10501750558614731,0.0905361995100975
1772459208449098000,4.464097900390625,0.5196273326873779,0.5000070333480835,-0.05807572230696678
1772459208459095000,4.474094970703125,0.6259843707084656,0.8742669224739075,-0.11226225644350052
1772459208469091800,4.484091796875,0.5987613797187805,1.2162158489227295,-0.05258089303970337
1772459208479089000,4.4940888671875,0.4710961580276489,1.4853790998458862,0.13042327761650085
1772459208489086000,4.5040859375,0.31434741616249084,1.6430659294128418,0.4234798848628998
1772459208499082800,4.514082763671875,0.14232848584651947,1.6419907808303833,0.7772360444068909
1772459208509076700,4.52407666015625,-0.04622460901737213,1.470192790031433,1.1355640888214111
1772459208519073800,4.53407373046875,-0.2568891644477844,1.1754168272018433,1.436174750328064
1772459208529070800,4.54407080078125,-0.48513269424438477,0.7907435894012451,1.6302971839904785
1772459208539067600,4.554067626953125,-0.7228429913520813,0.3691290020942688,1.684072494506836
1772459208549065000,4.56406494140625,-0.9314939975738525,0.014945420436561108,1.6144851446151733
1772459208559061800,4.574061767578125,-1.0856115818023682,-0.23806367814540863,1.427146315574646
1772459208569058800,4.584058837890625,-1.1706575155258179,-0.39199042320251465,1.1542690992355347
1772459208579055900,4.594055908203125,-1.2086498737335205,-0.4213930368423462,0.8225923776626587
1772459208589054000,4.604053955078125,-1.2204747200012207,-0.30704689025878906,0.4733983278274536
1772459208599050800,4.61405078125,-1.2130746841430664,-0.08791535347700119,0.13899022340774536
1772459208609047800,4.6240478515625,-1.1871628761291504,0.17060519754886627,-0.147663414478302
1772459208619044900,4.634044921875,-1.1385892629623413,0.4184189736843109,-0.396020770072937
1772459208629041700,4.644041748046875,-1.0786000490188599,0.5908994078636169,-0.6071875691413879
1772459208639038700,4.654038818359375,-0.9930971264839172,0.6722898483276367,-0.7827253341674805
1772459208649035800,4.664035888671875,-0.8626296520233154,0.6997866630554199,-0.9036331176757812
1772459208659032800,4.67403271484375,-0.6662433743476868,0.6778363585472107,-0.9663646817207336
1772459208669029600,4.684029541015625,-0.40541550517082214,0.6251088976860046,-0.998369038105011
1772459208679027000,4.69402685546875,-0.11281078308820724,0.5666703581809998,-0.990146279335022
1772459208689023700,4.704023681640625,0.14922158420085907,0.5605195164680481,-0.9759337902069092
1772459208699020800,4.714020751953125,0.30303511023521423,0.5213199257850647,-0.9584112763404846
1772459208709017900,4.724017822265625,0.3336254060268402,0.18673770129680634,-0.9050426483154297
1772459208719015000,4.734014892578125,0.3475255072116852,-0.4979109764099121,-0.72293621301651
1772459208729011700,4.74401171875,0.27674606442451477,-1.2336513996124268,-0.4889528751373291
1772459208739009000,4.754009033203125,0.0028697773814201355,-1.5867844820022583,-0.5170036554336548
1772459208749005800,4.764005859375,-0.3503488302230835,-1.1594016551971436,-0.6114493012428284
1772459208759002600,4.774002685546875,-0.6296153664588928,-0.44066348671913147,-0.6519197821617126
1772459208769000000,4.784,-0.6284794807434082,0.5246270298957825,-0.27417755126953125
1772459208778996700,4.793996826171875,-0.45579370856285095,1.3823622465133667,0.35946622490882874
1772459208788993800,4.803993896484375,-0.2409185767173767,1.7630500793457031,0.777019739151001
1772459208798991600,4.81399169921875,-0.03698302060365677,1.598243236541748,0.8537893295288086
1772459208808989000,4.823989013671875,0.08785153925418854,1.0908160209655762,0.741537868976593
1772459208818985700,4.83398583984375,0.11406423896551132,0.4605911374092102,0.6989872455596924
1772459208828982800,4.843982666015625,0.026437917724251747,-0.14801272749900818,0.8452660441398621
1772459208838979800,4.853979736328125,-0.1420498937368393,-0.7273330688476562,1.0738604068756104
1772459208848977000,4.863976806640625,-0.2946788966655731,-1.1872296333312988,1.2670921087265015
1772459208858973700,4.8739736328125,-0.38892868161201477,-1.3652797937393188,1.383379340171814
1772459208868970800,4.883970703125,-0.42137598991394043,-1.2030158042907715,1.4366533756256104
1772459208878967800,4.8939677734375,-0.3891754448413849,-0.8041267991065979,1.4149235486984253
1772459208888964900,4.90396484375,-0.2951512932777405,-0.3252730071544647,1.3268506526947021
1772459208898961700,4.913961669921875,-0.178309366106987,0.09814111143350601,1.220564365386963
1772459208908958700,4.923958740234375,-0.09414023160934448,0.44453850388526917,1.1089056730270386
1772459208918955800,4.933955810546875,-0.04431888088583946,0.7011945247650146,1.0052140951156616
1772459208928952600,4.94395263671875,-0.042566291987895966,0.9030833840370178,0.9197229146957397
1772459208938950000,4.953949951171875,-0.06957288086414337,1.0559438467025757,0.8610348701477051
1772459208948946700,4.96394677734375,-0.11008598655462265,1.153808355331421,0.8434337973594666
1772459208958943700,4.97394384765625,-0.13619749248027802,1.1729154586791992,0.8329063653945923
1772459208968940800,4.98394091796875,-0.16520589590072632,1.0933942794799805,0.8040695190429688
1772459208978937900,4.993937744140625,-0.21943797171115875,0.882799506187439,0.7458600401878357
1772459208988934700,5.0039345703125,-0.2760525941848755,0.537635326385498,0.6289421319961548
1772459208998932700,5.0139326171875,-0.3382169008255005,0.14607873558998108,0.4725450575351715
1772459209008929800,5.0239296875,-0.4067385792732239,-0.19378447532653809,0.28271448612213135
1772459209018926800,5.0339267578125,-0.4758308231830597,-0.4574555456638336,0.055797722190618515
1772459209028923600,5.043923583984375,-0.5305023789405823,-0.6114839911460876,-0.18413493037223816
1772459209038921000,5.0539208984375,-0.5607026219367981,-0.6381837725639343,-0.3941230773925781
1772459209048917800,5.063917724609375,-0.5663447380065918,-0.5456340312957764,-0.567310094833374
1772459209058914800,5.073914794921875,-0.5346379280090332,-0.3776141405105591,-0.6829621195793152
1772459209068911900,5.083911865234375,-0.46586596965789795,-0.19266974925994873,-0.7393270134925842
1772459209078908700,5.09390869140625,-0.37525323033332825,-0.04277665540575981,-0.7292269468307495
1772459209088905700,5.10390576171875,-0.2596381902694702,0.04709191620349884,-0.6745047569274902
1772459209098902800,5.11390283203125,-0.13579188287258148,0.05085895583033562,-0.611677348613739
1772459209108899800,5.12389990234375,-0.008951535448431969,-0.028998496010899544,-0.5464240908622742
1772459209118896600,5.133896728515625,0.12104108184576035,-0.15330606698989868,-0.4833047688007355
1772459209128894000,5.14389404296875,0.23091639578342438,-0.2960909903049469,-0.3924967348575592
1772459209138890800,5.153890869140625,0.2947193682193756,-0.42483940720558167,-0.2507379949092865
1772459209148887800,5.1638876953125,0.2605152726173401,-0.5487309098243713,-0.06347738206386566
1772459209158884900,5.173884765625,0.1440240889787674,-0.6289346814155579,0.1803043782711029
1772459209168882000,5.1838818359375,0.013766220770776272,-0.6154646873474121,0.45938557386398315
1772459209178879700,5.193879638671875,-0.09545054286718369,-0.6292425394058228,0.5869587063789368
1772459209188876800,5.203876708984375,-0.09755931794643402,-0.7133331298828125,0.38136419653892517
1772459209198873900,5.213873779296875,0.04173785820603371,-0.9450199007987976,-0.16943426430225372
1772459209208871000,5.223870849609375,0.1938280612230301,-1.1009505987167358,-0.9405426979064941
1772459209218867700,5.23386767578125,0.2240179181098938,-0.7150506377220154,-1.72711980342865
1772459209228864800,5.24386474609375,0.09206894040107727,-0.027011806145310402,-2.3980376720428467
1772459209238861800,5.25386181640625,-0.02406352572143078,1.0947957038879395,-2.6485812664031982
1772459209248858600,5.263858642578125,0.041818197816610336,2.200043201446533,-2.43918776512146
1772459209258856000,5.27385595703125,0.2332209199666977,2.697085380554199,-1.975142240524292
1772459209268852700,5.283852783203125,0.4357043206691742,2.5758674144744873,-1.3517380952835083
1772459209278849800,5.293849853515625,0.43839144706726074,1.9973876476287842,-0.6838058233261108
1772459209288846800,5.303846923828125,0.25833186507225037,1.1474578380584717,-0.05580419301986694
1772459209298844000,5.313843994140625,0.0820780098438263,0.28584107756614685,0.5772425532341003
1772459209308840700,5.3238408203125,-0.04260651022195816,-0.42006224393844604,1.2655792236328125
1772459209318837800,5.333837646484375,-0.17164571583271027,-0.9396926760673523,1.944329023361206
1772459209328834800,5.343834716796875,-0.2926115095615387,-1.3279671669006348,2.557846784591675
1772459209338832000,5.353831787109375,-0.4053812026977539,-1.6166479587554932,3.0393805503845215
1772459209348828700,5.36382861328125,-0.46154409646987915,-1.7259567975997925,3.324740409851074
1772459209358825700,5.37382568359375,-0.3943623900413513,-1.6471573114395142,3.3430633544921875
1772459209368823800,5.38382373046875,-0.20673319697380066,-1.4456217288970947,3.111703395843506
1772459209378820900,5.39382080078125,0.010219879448413849,-1.1848822832107544,2.7158217430114746
1772459209388817700,5.403817626953125,0.18669290840625763,-0.8335919380187988,2.2519092559814453
1772459209398814700,5.413814697265625,0.31171396374702454,-0.34898343682289124,1.8006465435028076
1772459209408811800,5.423811767578125,0.4045172929763794,0.21125569939613342,1.4244062900543213
1772459209418808600,5.43380859375,0.4882292151451111,0.7273443937301636,1.1196712255477905
1772459209428806000,5.443805908203125,0.5337384343147278,1.026635766029358,0.8669964075088501
1772459209438802700,5.453802734375,0.5180180668830872,1.0165163278579712,0.645759105682373
1772459209448799700,5.4637998046875,0.4398871958255768,0.7781339883804321,0.44718626141548157
1772459209458796800,5.473796875,0.31462782621383667,0.38417255878448486,0.266377329826355
1772459209468793900,5.4837939453125,0.17158947885036469,-0.08779390156269073,0.09833119064569473
1772459209478790700,5.493790771484375,0.04915570840239525,-0.5357263684272766,-0.06567585468292236
1772459209488788000,5.5037880859375,-0.028575491160154343,-0.8659153580665588,-0.23222479224205017
1772459209498784800,5.51378466796875,-0.04618724435567856,-1.023180603981018,-0.3618224561214447
1772459209508781000,5.523781005859375,-0.03132813423871994,-1.0153130292892456,-0.46687257289886475
1772459209518778000,5.533778076171875,-0.008445989340543747,-0.87898850440979,-0.5527544617652893
1772459209528775000,5.54377490234375,0.03018864430487156,-0.648784339427948,-0.5892700552940369
1772459209538773000,5.55377294921875,0.09226692467927933,-0.38243362307548523,-0.6029568314552307
1772459209548770000,5.56377001953125,0.15122368931770325,-0.15201982855796814,-0.5952968001365662
1772459209558767000,5.57376708984375,0.1778518259525299,-0.02774287760257721,-0.5903507471084595
1772459209568764000,5.583763916015625,0.17569226026535034,-0.015341401100158691,-0.6169706583023071
1772459209578761200,5.59376123046875,0.1670556366443634,-0.08729255944490433,-0.6794106364250183
1772459209588758000,5.603758056640625,0.13647642731666565,-0.19222643971443176,-0.7596727013587952
1772459209598755000,5.613755126953125,0.10374618321657181,-0.2653333842754364,-0.8560215830802917
1772459209608752000,5.623752197265625,0.08047793060541153,-0.2689990699291229,-0.9445717334747314
1772459209618749200,5.633749267578125,0.1088365986943245,-0.19265741109848022,-0.9772971868515015
1772459209628746000,5.64374609375,0.20302601158618927,-0.07087627053260803,-0.878479540348053
1772459209638743000,5.653742919921875,0.3494492769241333,0.17166180908679962,-0.6153209209442139
1772459209648740000,5.663739990234375,0.4666405916213989,0.401981383562088,-0.30053019523620605
1772459209658737000,5.67373681640625,0.4524981379508972,0.33289310336112976,-0.1938101202249527
1772459209668734000,5.68373388671875,0.2879467010498047,-0.09410759061574936,-0.3522716760635376
1772459209678731000,5.69373095703125,0.06348058581352234,-0.8562166690826416,-0.6749610304832458
1772459209688728000,5.70372802734375,-0.20730434358119965,-1.0994689464569092,-0.9526700973510742
1772459209698724900,5.713724853515625,-0.4877796471118927,-0.711020827293396,-1.0955350399017334
1772459209708723000,5.723722900390625,-0.6164078712463379,0.1040186733007431,-1.1411464214324951
1772459209718720000,5.733719970703125,-0.43123960494995117,1.0537110567092896,-1.0273841619491577
1772459209728717000,5.743717041015625,-0.2215908020734787,1.4511725902557373,-0.9915934801101685
1772459209738713900,5.7537138671875,-0.030912991613149643,1.5498019456863403,-0.7628833651542664
1772459209748711200,5.763711181640625,0.10227831453084946,1.273699164390564,-0.3713091313838959
1772459209758708000,5.7737080078125,0.11633580923080444,0.5559155344963074,0.011990301311016083
1772459209768705000,5.783705078125,0.029490020126104355,-0.35605835914611816,0.37761229276657104
1772459209778702000,5.7937021484375,-0.1040312871336937,-1.1086403131484985,0.7554384469985962
1772459209788699100,5.80369921875,-0.2596396505832672,-1.647223949432373,1.033843994140625
1772459209798696000,5.813696044921875,-0.3956770896911621,-1.9459350109100342,1.0880837440490723
1772459209808693000,5.82369287109375,-0.441558301448822,-1.9410831928253174,0.8818851709365845
1772459209818690000,5.83368994140625,-0.34966567158699036,-1.6298617124557495,0.5030581951141357
1772459209828686800,5.843686767578125,-0.1570371389389038,-1.1217623949050903,0.06978917121887207
1772459209838684200,5.85368408203125,0.02997402846813202,-0.5111429691314697,-0.3324725031852722
1772459209848681000,5.863680908203125,0.14475831389427185,0.09045366197824478,-0.6431357264518738
1772459209858679000,5.873678955078125,0.17342936992645264,0.5822442173957825,-0.8315386772155762
1772459209868675800,5.88367578125,0.13030491769313812,0.9357566237449646,-0.8510749936103821
1772459209878673200,5.893673095703125,0.03407133370637894,1.1405670642852783,-0.6852641701698303
1772459209888670000,5.903669921875,-0.08680664002895355,1.1811885833740234,-0.3674815893173218
1772459209898667000,5.9136669921875,-0.18721793591976166,1.0583046674728394,0.014036208391189575
1772459209908664000,5.9236640625,-0.2608107626438141,0.7443687915802002,0.3963319659233093
1772459209918661000,5.9336611328125,-0.3320316672325134,0.32608315348625183,0.7066506743431091
1772459209928658000,5.943657958984375,-0.369851678609848,-0.12196870893239975,0.9094541668891907
1772459209938655200,5.9536552734375,-0.37245357036590576,-0.5092453360557556,1.018830418586731
1772459209948652000,5.963652099609375,-0.3640594780445099,-0.7980600595474243,1.0352352857589722
1772459209958648800,5.97364892578125,-0.36506375670433044,-0.9698065519332886,0.9758445620536804
1772459209968646100,5.983646240234375,-0.3654251992702484,-0.9883142113685608,0.8587262630462646
1772459209978643000,5.993642822265625,-0.3639385998249054,-0.8667771220207214,0.6892935037612915
1772459209988640000,6.003639892578125,-0.3805089294910431,-0.68359375,0.4856838583946228
1772459209998637000,6.013636962890625,-0.39034906029701233,-0.4575190544128418,0.25975939631462097
1772459210008634000,6.023634033203125,-0.3842991590499878,-0.22641229629516602,0.039851024746894836
1772459210018632000,6.0336318359375,-0.3640410304069519,-0.04594318941235542,-0.1619715839624405
1772459210028629000,6.04362890625,-0.33507853746414185,0.04943949356675148,-0.31712591648101807
1772459210038626000,6.0536259765625,-0.29185304045677185,0.03877992555499077,-0.4180610477924347
1772459210048623000,6.063623046875,-0.2540578544139862,-0.032267894595861435,-0.4499399662017822
1772459210058620000,6.073619873046875,-0.19532236456871033,-0.11984781175851822,-0.433037668466568
1772459210068617200,6.0836171875,-0.11700743436813354,-0.20597180724143982,-0.38914018869400024
1772459210078614000,6.093614013671875,-0.04750931262969971,-0.28625598549842834,-0.2765100598335266
1772459210088611000,6.103611083984375,0.0064943707548081875,-0.36950069665908813,-0.057190172374248505
1772459210098610000,6.11360986328125,0.0378006286919117,-0.44056394696235657,0.29680490493774414
1772459210108607000,6.12360693359375,0.062153272330760956,-0.355398952960968,0.7540668249130249
1772459210118604000,6.13360400390625,0.025215227156877518,-0.17003493010997772,1.0439714193344116
1772459210128601000,6.14360107421875,-0.10258059948682785,-0.1129925325512886,0.9265411496162415
1772459210138598000,6.153597900390625,-0.21316570043563843,-0.4213402569293976,0.4448855519294739
1772459210148595200,6.16359521484375,-0.21095043420791626,-1.0562653541564941,-0.22889193892478943
1772459210158592000,6.173592041015625,-0.17829662561416626,-1.1655950546264648,-0.8904610872268677
1772459210168589000,6.183589111328125,-0.253924697637558,-0.4143827557563782,-1.4420607089996338
1772459210178587000,6.1935869140625,-0.3761579394340515,0.634416401386261,-1.8867827653884888
1772459210188584200,6.203584228515625,-0.2538028955459595,1.734377145767212,-1.9790928363800049
1772459210198581000,6.2135810546875,-0.055761732161045074,2.290006160736084,-1.8342316150665283
1772459210208578000,6.223578125,0.07499301433563232,2.3407320976257324,-1.5308034420013428
1772459210218575000,6.2335751953125,0.051348935812711716,1.9002468585968018,-1.2068064212799072
1772459210228572200,6.243572265625,-0.10397183895111084,1.1355617046356201,-0.9770770072937012
1772459210238569000,6.25356884765625,-0.23980531096458435,0.3670330047607422,-0.7733156085014343
1772459210248566300,6.263566162109375,-0.33638742566108704,-0.11506431549787521,-0.4693125784397125
1772459210258563000,6.27356298828125,-0.42711013555526733,-0.2876776158809662,-0.13814769685268402
1772459210268560000,6.283559814453125,-0.5234764814376831,-0.21966195106506348,0.10491203516721725
1772459210278557200,6.29355712890625,-0.5921801924705505,-0.014593489468097687,0.2055366337299347
1772459210288554000,6.303553955078125,-0.5968772768974304,0.22597306966781616,0.15771600604057312
1772459210298551000,6.313551025390625,-0.5199928879737854,0.47779011726379395,-0.00014792208094149828
1772459210308548000,6.323548095703125,-0.3702651858329773,0.7432916164398193,-0.22207655012607574
1772459210318545200,6.333545166015625,-0.159528449177742,0.992129385471344,-0.4597514271736145
1772459210328543000,6.34354296875,0.08182915300130844,1.1269471645355225,-0.6888355612754822
1772459210338540000,6.3535400390625,0.2904476225376129,1.15665602684021,-0.8051651120185852
1772459210348537000,6.363537109375,0.41370123624801636,1.1488983631134033,-0.692355215549469
1772459210358534100,6.3735341796875,0.46415507793426514,1.050153374671936,-0.3641784191131592
1772459210368531000,6.383531005859375,0.43760645389556885,0.7795190811157227,0.09040135145187378
1772459210378528000,6.393528076171875,0.33942341804504395,0.35102182626724243,0.5831268429756165
1772459210388525000,6.403525146484375,0.1628735214471817,-0.2044924646615982,1.0487416982650757
1772459210398522000,6.413522216796875,-0.061577700078487396,-0.8259006142616272,1.4299638271331787
1772459210408519000,6.423518798828125,-0.293349951505661,-1.4123499393463135,1.677776575088501
1772459210418516000,6.433515869140625,-0.4909287989139557,-1.8431695699691772,1.7642395496368408
1772459210428513000,6.443512939453125,-0.6156144738197327,-2.052478313446045,1.7213830947875977
1772459210438509800,6.453509765625,-0.6642621755599976,-1.9954837560653687,1.5593429803848267
1772459210448507100,6.463507080078125,-0.6586707234382629,-1.7144991159439087,1.3312022686004639
1772459210458504000,6.47350390625,-0.6199078559875488,-1.2893949747085571,1.0933500528335571
1772459210468502000,6.483501953125,-0.5649345517158508,-0.8384110927581787,0.881736159324646
1772459210478498800,6.493498779296875,-0.4932219982147217,-0.4669716954231262,0.7378897666931152
1772459210488496000,6.50349609375,-0.42681726813316345,-0.22792214155197144,0.6655656695365906
1772459210498493000,6.513492919921875,-0.3906638026237488,-0.12664319574832916,0.6487722992897034
1772459210508491000,6.523490966796875,-0.398790180683136,-0.08889323472976685,0.6647181510925293
1772459210518487800,6.53348779296875,-0.4238753020763397,-0.06972406804561615,0.674834668636322
1772459210528485000,6.543485107421875,-0.4434632360935211,-0.00937566440552473,0.6648864150047302
1772459210538482000,6.55348193359375,-0.4492601454257965,0.0963803306221962,0.6329836249351501
1772459210548479000,6.56347900390625,-0.4323973059654236,0.1419396847486496,0.5619010925292969
1772459210558476000,6.57347607421875,-0.41479751467704773,0.08590465039014816,0.4771166741847992
1772459210568473000,6.58347314453125,-0.4356653094291687,-0.08396058529615402,0.38750001788139343
1772459210578470000,6.593469970703125,-0.586662769317627,-0.3465362787246704,0.3133719861507416
1772459210588467000,6.603467041015625,-0.8987888097763062,-0.5586880445480347,0.3467639982700348
1772459210598464000,6.613464111328125,-1.2338505983352661,-0.546927809715271,0.5166504979133606
1772459210608462000,6.623462158203125,-1.3307632207870483,-0.4235551655292511,0.7664570808410645
1772459210618459000,6.633458984375,-1.089050531387329,-0.5212301015853882,0.8718895316123962
1772459210628456000,6.6434560546875,-0.7637088298797607,-0.8141223192214966,0.45917436480522156
1772459210638453000,6.653452880859375,-0.5766047239303589,-0.709257185459137,-0.274291068315506
1772459210648449800,6.66344970703125,-0.5575886368751526,-0.3199397623538971,-1.065865159034729
1772459210658447000,6.673447021484375,-0.5406290888786316,0.3594217002391815,-1.6538496017456055
1772459210668444000,6.68344384765625,-0.35388806462287903,1.0657466650009155,-1.8317264318466187
1772459210678441000,6.69344091796875,-0.10860692709684372,1.3170678615570068,-1.6387479305267334
1772459210688438000,6.70343798828125,-0.059443842619657516,1.0772424936294556,-1.2000361680984497
1772459210698435000,6.71343505859375,-0.2278464287519455,0.5303367376327515,-0.7379012703895569
1772459210708432000,6.723431884765625,-0.4120349586009979,-0.13178373873233795,-0.3822212815284729
1772459210718429200,6.73342919921875,-0.49182114005088806,-0.7758052945137024,-0.053761616349220276
1772459210728426000,6.743426025390625,-0.5295050740242004,-1.3157280683517456,0.1798458844423294
1772459210738423000,6.753423095703125,-0.5421896576881409,-1.6860747337341309,0.26352614164352417
1772459210748420900,6.7634208984375,-0.4948412775993347,-1.771082878112793,0.2233002632856369
1772459210758418200,6.773418212890625,-0.3596043586730957,-1.4935892820358276,0.13984690606594086
1772459210768415000,6.7834150390625,-0.15605199337005615,-0.9086490273475647,0.018536189571022987
1772459210778412000,6.793412109375,0.06041664630174637,-0.12829649448394775,-0.16091026365756989
1772459210788409000,6.8034091796875,0.25749245285987854,0.7435694336891174,-0.34104493260383606
1772459210798406000,6.813406005859375,0.451979398727417,1.5832935571670532,-0.44550156593322754
1772459210808403000,6.82340283203125,0.6358197331428528,2.2659683227539062,-0.4375978112220764
1772459210818400000,6.83339990234375,0.7425882816314697,2.6785366535186768,-0.35586488246917725
1772459210828397000,6.84339697265625,0.7615601420402527,2.8494632244110107,-0.1801367998123169
1772459210838393900,6.853393798828125,0.802855908870697,2.6907172203063965,0.18412716686725616
1772459210848391200,6.86339111328125,0.7973061203956604,2.42044997215271,0.5895746350288391
1772459210858388000,6.873387939453125,0.7466455698013306,2.163379430770874,0.922685444355011
1772459210868385000,6.883385009765625,0.7260118126869202,1.8030272722244263,1.1676498651504517
1772459210878382800,6.8933828125,0.774151086807251,1.2407399415969849,1.3864021301269531
1772459210888380200,6.903380126953125,0.85460364818573,0.6643086075782776,1.542272686958313
1772459210898377000,6.913376953125,0.837936520576477,0.17202331125736237,1.5538691282272339
1772459210908374000,6.9233740234375,0.6266993284225464,-0.2714061737060547,1.445152997970581
1772459210918371000,6.93337109375,0.285578191280365,-0.6272739768028259,1.24354887008667
1772459210928368000,6.9433681640625,-0.04053622856736183,-0.8015046119689941,0.9745676517486572
1772459210938365000,6.953364990234375,-0.25256434082984924,-0.8308342695236206,0.7028115391731262
1772459210948362200,6.9633623046875,-0.38475245237350464,-0.7966428399085999,0.5444755554199219
1772459210958359000,6.973359130859375,-0.47526371479034424,-0.6463435888290405,0.4363842308521271
1772459210968355800,6.98335595703125,-0.49548327922821045,-0.4641093313694,0.327971875667572
1772459210978353000,6.993352783203125,-0.4458827078342438,-0.29446542263031006,0.18432734906673431
1772459210988350000,7.003349853515625,-0.3009016513824463,-0.10339079797267914,0.02968754991889
1772459210998347000,7.013346923828125,-0.07858335226774216,0.07272057980298996,-0.1060953140258789
1772459211008344800,7.0233447265625,0.1392854005098343,0.17300766706466675,-0.23500101268291473
1772459211018342100,7.033342041015625,0.3044826090335846,0.15673336386680603,-0.34364280104637146
1772459211028339000,7.0433388671875,0.38523027300834656,0.05971900746226311,-0.4085240960121155
1772459211038336000,7.0533359375,0.38126856088638306,-0.09806875884532928,-0.4068276584148407
1772459211048333000,7.0633330078125,0.3105614483356476,-0.32398468255996704,-0.3026358187198639
1772459211058330000,7.073330078125,0.20272129774093628,-0.6055325269699097,-0.037967659533023834
1772459211068327000,7.083326904296875,0.12300431728363037,-0.8598460555076599,0.446669340133667
1772459211078324000,7.093323974609375,0.13589294254779816,-1.0281211137771606,1.0553028583526611
1772459211088321000,7.103321044921875,0.2210427075624466,-1.2354952096939087,1.474234700202942
1772459211098318000,7.113318115234375,0.37479978799819946,-1.5342315435409546,1.4218593835830688
1772459211108315000,7.12331494140625,0.6569002270698547,-1.9705849885940552,0.7553170919418335
1772459211118312000,7.13331201171875,0.7808123230934143,-2.089647054672241,-0.35261839628219604
1772459211128309000,7.14330908203125,0.6079352498054504,-1.4560939073562622,-1.440925121307373
1772459211138307000,7.15330712890625,0.3319430947303772,-0.31582826375961304,-2.2383334636688232
1772459211148304000,7.163303955078125,0.29817959666252136,1.0239763259887695,-2.6091246604919434
1772459211158301000,7.173301025390625,0.5186640620231628,2.047391414642334,-2.501913547515869
1772459211168298000,7.183298095703125,0.7428919076919556,2.3046624660491943,-1.9445257186889648
1772459211178294800,7.193294677734375,0.7757867574691772,1.9150089025497437,-1.090626835823059
1772459211188292000,7.2032919921875,0.6182239651679993,1.0950971841812134,-0.23950061202049255
1772459211198289000,7.213288818359375,0.32439154386520386,-0.004239797126501799,0.5235595107078552
1772459211208286000,7.223285888671875,0.0025421904865652323,-1.1454075574874878,1.2268251180648804
1772459211218283000,7.233282958984375,-0.18625383079051971,-2.0790627002716064,1.788025140762329
1772459211228280000,7.243280029296875,-0.20269876718521118,-2.4730069637298584,2.0091025829315186
1772459211238276900,7.25327685546875,-0.10061047226190567,-2.145867347717285,1.776745080947876
1772459211248274200,7.263274169921875,0.13579902052879333,-1.3242594003677368,1.2248034477233887
1772459211258271000,7.27327099609375,0.46137550473213196,-0.25477975606918335,0.5298264622688293
1772459211268269000,7.28326904296875,0.8041455149650574,0.7665442824363708,-0.14218966662883759
1772459211278265900,7.293265869140625,1.0695730447769165,1.4810515642166138,-0.6623923778533936
1772459211288263200,7.30326318359375,1.1433371305465698,1.861048936843872,-0.9615834355354309
1772459211298260000,7.313260009765625,1.0084017515182495,1.9657402038574219,-1.0208529233932495
1772459211308257000,7.323257080078125,0.7289508581161499,1.9242780208587646,-0.8654567003250122
1772459211318254000,7.333254150390625,0.40347692370414734,1.8302180767059326,-0.5412336587905884
1772459211328251000,7.3432509765625,0.14206494390964508,1.7155770063400269,-0.09809117019176483
1772459211338248000,7.353248046875,-0.024211369454860687,1.5378522872924805,0.3631763160228729
1772459211348245000,7.363244873046875,-0.1254454404115677,1.275648593902588,0.7407749891281128
1772459211358242000,7.373241943359375,-0.18027380108833313,0.9135603904724121,0.9933289885520935
1772459211368238800,7.38323876953125,-0.19022072851657867,0.4665885269641876,1.135973572731018
1772459211378236200,7.393236083984375,-0.17712970077991486,-0.018654853105545044,1.1653327941894531
1772459211388234000,7.40323388671875,-0.16143342852592468,-0.4931636154651642,1.089191198348999
1772459211398231000,7.41323095703125,-0.16854406893253326,-0.8806860446929932,0.9419788718223572
1772459211408227800,7.423227783203125,-0.20359383523464203,-1.115699052810669,0.7511888742446899
1772459211418225200,7.43322509765625,-0.25485995411872864,-1.1195095777511597,0.575539767742157
1772459211428222000,7.443221923828125,-0.2945098280906677,-0.9035142660140991,0.4142228662967682
1772459211438219000,7.453218994140625,-0.3048524856567383,-0.5916152000427246,0.2225852757692337
1772459211448216000,7.463216064453125,-0.30520105361938477,-0.30382633209228516,0.0034818765707314014
1772459211458213000,7.473213134765625,-0.2770780920982361,-0.08323404937982559,-0.20483139157295227
1772459211468210000,7.4832099609375,-0.21995800733566284,0.05187073349952698,-0.38668093085289
1772459211478207200,7.493207275390625,-0.12722913920879364,0.08241825550794601,-0.4991174638271332
1772459211488204000,7.5032041015625,-0.03669790178537369,0.02766677550971508,-0.5314206480979919
1772459211498200800,7.513200927734375,0.044800419360399246,-0.09003189206123352,-0.5018470287322998
1772459211508198400,7.523198486328125,0.08659398555755615,-0.26009228825569153,-0.4384046792984009
1772459211518195500,7.533195556640625,0.08025059849023819,-0.37553685903549194,-0.37291672825813293
1772459211528192500,7.543192626953125,0.03990324214100838,-0.4409664571285248,-0.35427093505859375
1772459211538189300,7.553189208984375,-0.047004759311676025,-0.48053035140037537,-0.39802905917167664
1772459211548186600,7.5631865234375,-0.16118797659873962,-0.6359992027282715,-0.5169985294342041
1772459211558183400,7.573183349609375,-0.2535208463668823,-0.8590431809425354,-0.708281397819519
1772459211568180500,7.583180419921875,-0.19972556829452515,-0.9758541584014893,-0.8614295721054077
1772459211578177500,7.593177490234375,0.10663487762212753,-0.9423356056213379,-0.8465864658355713
1772459211588174600,7.603174560546875,0.5254457592964172,-1.0556988716125488,-0.8008736371994019
1772459211598171400,7.61317138671875,0.6838175654411316,-1.2675248384475708,-1.1475729942321777
1772459211608168700,7.623168701171875,0.5362964868545532,-0.9077386856079102,-1.81929612159729
1772459211618165500,7.63316552734375,0.22386960685253143,-0.10583798587322235,-2.4899842739105225
1772459211628163600,7.64316357421875,-0.024530652910470963,0.9728090167045593,-2.750040054321289
1772459211638160400,7.653160400390625,-0.027691824361681938,2.032977342605591,-2.4014177322387695
1772459211648157700,7.66315771484375,0.13898812234401703,2.330030918121338,-1.599072813987732
1772459211658154500,7.673154541015625,0.25218579173088074,1.7220717668533325,-0.6900525689125061
1772459211668151300,7.6831513671875,0.2016272097826004,0.6438027620315552,0.046035200357437134
1772459211678148600,7.693148681640625,0.017384128645062447,-0.6362975835800171,0.5237767100334167
1772459211688145400,7.7031455078125,-0.26662182807922363,-1.7389719486236572,0.7109876871109009
1772459211698142500,7.713142578125,-0.5840392112731934,-2.3220431804656982,0.5823271870613098
1772459211708139500,7.723139404296875,-0.794673502445221,-2.2110321521759033,0.1405676156282425
1772459211718136600,7.733136474609375,-0.7957054972648621,-1.3694264888763428,-0.4679953157901764
1772459211728133400,7.74313330078125,-0.6138221621513367,-0.07722370326519012,-1.0997084379196167
1772459211738130700,7.753130615234375,-0.3323734402656555,1.1334940195083618,-1.5917351245880127
1772459211748128500,7.76312841796875,-0.07379420846700668,1.8603774309158325,-1.8271909952163696
1772459211758125600,7.77312548828125,0.08051840215921402,2.0698697566986084,-1.8376092910766602
1772459211768122400,7.783122314453125,0.14609655737876892,1.969677448272705,-1.621031403541565
1772459211778119700,7.79311962890625,0.13146622478961945,1.7846983671188354,-1.193420171737671
1772459211788116500,7.803116455078125,0.0993102565407753,1.6347484588623047,-0.600947916507721
1772459211798113500,7.813113525390625,0.10833517462015152,1.5270965099334717,0.09286437928676605
1772459211808110600,7.823110595703125,0.18788163363933563,1.4018999338150024,0.791437029838562
1772459211818107600,7.833107666015625,0.3131828308105469,1.190178394317627,1.4279605150222778
1772459211828104400,7.8431044921875,0.4295627772808075,0.9285191893577576,1.9572563171386719
1772459211838101500,7.8531015625,0.5031070113182068,0.6335232257843018,2.309143304824829
1772459211848098600,7.8630986328125,0.5167098045349121,0.2605622708797455,2.445350408554077
1772459211858096600,7.8730966796875,0.46009817719459534,-0.20281550288200378,2.3965256214141846
1772459211868093400,7.883093505859375,0.36865371465682983,-0.6976653337478638,2.199340343475342
1772459211878090500,7.893090576171875,0.2808295786380768,-1.086647391319275,1.934646487236023
1772459211888087600,7.903087646484375,0.1910971999168396,-1.258780837059021,1.5880091190338135
1772459211898084400,7.91308447265625,0.07715173810720444,-1.1463578939437866,1.1505681276321411
1772459211908081400,7.923081298828125,-0.0369328036904335,-0.870198667049408,0.6452519297599792
1772459211918078500,7.933078369140625,-0.0893600583076477,-0.5532843470573425,0.15217486023902893
1772459211928075500,7.943075439453125,-0.052006796002388,-0.3082929849624634,-0.2726571261882782
1772459211938072300,7.953072265625,0.06250220537185669,-0.13964004814624786,-0.5528461933135986
1772459211948069600,7.963069580078125,0.20966802537441254,-0.036767300218343735,-0.7204150557518005
1772459211958066400,7.97306640625,0.34932392835617065,-0.012718954123556614,-0.8192865252494812
1772459211968064500,7.983064453125,0.4563591480255127,-0.06096363067626953,-0.8596962690353394
1772459211978061300,7.993061279296875,0.5531455874443054,-0.14337141811847687,-0.8238341808319092
1772459211988058600,8.00305859375,0.6340920329093933,-0.24704156816005707,-0.7367334365844727
1772459211998055400,8.013055419921875,0.678805410861969,-0.35272645950317383,-0.6448085904121399
1772459212008052500,8.023052490234376,0.6716716885566711,-0.4359291195869446,-0.5268015265464783
1772459212018049500,8.033049560546875,0.6418823599815369,-0.5187257528305054,-0.3625353276729584
1772459212028046600,8.043046630859376,0.5766968727111816,-0.6381819844245911,-0.21490363776683807
1772459212038043400,8.05304345703125,0.4455133080482483,-0.8002915382385254,-0.16565966606140137
1772459212048040400,8.06304052734375,0.3150542974472046,-0.9522647261619568,-0.24128206074237823
1772459212058037500,8.07303759765625,0.28549134731292725,-0.9018635749816895,-0.31024861335754395
1772459212068034300,8.083034423828124,0.40254050493240356,-0.8125807046890259,-0.32168546319007874
1772459212078032400,8.093032470703125,0.5951730608940125,-0.969704806804657,-0.47763699293136597
1772459212088029400,8.103029541015625,0.6478450894355774,-1.408773422241211,-1.118189811706543
1772459212098026500,8.113026611328126,0.4577537178993225,-1.3119903802871704,-2.1400668621063232
1772459212108023300,8.123023193359375,0.09586866945028305,-0.8315653800964355,-3.2889997959136963
1772459212118020600,8.1330205078125,-0.15872099995613098,0.1478579193353653,-4.005200386047363
1772459212128017400,8.143017333984375,-0.07347804307937622,1.3976415395736694,-3.8926851749420166
1772459212138014500,8.153014404296876,0.32091933488845825,2.0465283393859863,-3.129580497741699
1772459212148011500,8.163011474609375,0.698185920715332,1.8660892248153687,-2.0731091499328613
1772459212158008600,8.173008544921874,0.8248282670974731,1.1012413501739502,-1.0288208723068237
1772459212168005400,8.18300537109375,0.810840368270874,-0.08593208342790604,-0.2969091832637787
1772459212178002700,8.193002685546874,0.5957030653953552,-1.3147386312484741,0.12982134521007538
1772459212188000500,8.20300048828125,0.08792616426944733,-2.3111040592193604,0.28958234190940857
1772459212197997600,8.21299755859375,-0.5014750361442566,-2.6671831607818604,0.17632262408733368
1772459212207994400,8.222994384765625,-0.8533411026000977,-2.0139718055725098,-0.15339837968349457
1772459212217991700,8.23299169921875,-0.8837906122207642,-0.6111945509910583,-0.559187650680542
1772459212227988500,8.242988525390626,-0.6502981781959534,0.9684832692146301,-0.898269534111023
1772459212237985500,8.252985595703125,-0.3569970428943634,2.100041151046753,-1.0442099571228027
1772459212247982600,8.262982666015626,-0.09659627079963684,2.5307741165161133,-0.9320455193519592
1772459212257979400,8.2729794921875,0.06857910752296448,2.513300657272339,-0.5598291158676147
1772459212267976400,8.2829765625,0.11626788973808289,2.2653369903564453,0.056230492889881134
1772459212277973500,8.292973388671875,0.13287748396396637,1.9476501941680908,0.8114557862281799
1772459212287970600,8.302970458984374,0.11859602481126785,1.5502420663833618,1.5988513231277466
1772459212297968400,8.312968505859375,0.04489662125706673,1.0701159238815308,2.3204195499420166
1772459212307965400,8.32296533203125,-0.08078416436910629,0.5627843737602234,2.8962810039520264
1772459212317962500,8.33296240234375,-0.19014261662960052,0.0973467007279396,3.2654173374176025
1772459212327959600,8.34295947265625,-0.2417135089635849,-0.31709304451942444,3.3888790607452393
1772459212337956400,8.352956298828126,-0.2054351270198822,-0.6452983617782593,3.246213912963867
1772459212347953700,8.36295361328125,-0.07704658061265945,-0.8319910168647766,2.8239989280700684
1772459212357950500,8.372950439453126,0.11269006878137589,-0.845027506351471,2.1952645778656006
1772459212367947500,8.382947509765625,0.277486115694046,-0.7088503241539001,1.4598865509033203
1772459212377944600,8.392944580078124,0.33574357628822327,-0.5015302300453186,0.6962199211120605
1772459212387941600,8.402941650390625,0.29637473821640015,-0.24993279576301575,-0.017578931525349617
1772459212397938400,8.4129384765625,0.22623668611049652,-0.001967998454347253,-0.5998120307922363
1772459212407936500,8.4229365234375,0.1981486678123474,0.17029814422130585,-0.986052393913269
1772459212417933600,8.43293359375,0.24507756531238556,0.21903105080127716,-1.1679327487945557
1772459212427930600,8.4429306640625,0.33554646372795105,0.19709333777427673,-1.166521668434143
1772459212437927400,8.452927490234375,0.4570963382720947,0.10372849553823471,-1.0312072038650513
1772459212447924700,8.4629248046875,0.5773844718933105,-0.07813195139169693,-0.7837318778038025
1772459212457921500,8.472921630859375,0.635036826133728,-0.31953710317611694,-0.46232426166534424
1772459212467918300,8.48291845703125,0.5984609127044678,-0.5536678433418274,-0.13485123217105865
1772459212477915600,8.49291552734375,0.5177266597747803,-0.7090209722518921,0.11598338931798935
1772459212487912400,8.502912353515624,0.4435769319534302,-0.7461605668067932,0.23730546236038208
1772459212497909500,8.512909423828125,0.3556571900844574,-0.7103354334831238,0.23211468756198883
1772459212507907300,8.5229072265625,0.27964165806770325,-0.5980169177055359,0.19281744956970215
1772459212517904400,8.532904296875,0.2419872283935547,-0.4489038586616516,0.1530284881591797
1772459212527901200,8.542901123046875,0.27650365233421326,-0.3133622705936432,0.10412806272506714
1772459212537898200,8.552898193359376,0.3656788170337677,-0.2690989375114441,-0.01388379093259573
1772459212547895300,8.562895263671875,0.5857105851173401,-0.41454046964645386,-0.1860949844121933
1772459212557892400,8.572892333984376,0.8873226642608643,-0.7560615539550781,-0.4832558333873749
1772459212567889200,8.58288916015625,1.103262186050415,-1.2316969633102417,-1.10318124294281
1772459212577886500,8.592886474609376,1.0031670331954956,-0.8817689418792725,-1.9835237264633179
1772459212587883300,8.60288330078125,0.5101683139801025,0.29316768050193787,-2.8102660179138184
1772459212597880300,8.61288037109375,-0.01475888304412365,1.4066567420959473,-3.247756242752075
1772459212607877400,8.62287744140625,-0.2177666574716568,2.3441169261932373,-2.9173014163970947
1772459212617875500,8.63287548828125,-0.07043126970529556,2.5069806575775146,-2.0054123401641846
1772459212627872300,8.642872314453125,0.22714371979236603,1.9415961503982544,-0.962203323841095
1772459212637869300,8.652869384765625,0.332780122756958,0.9826067686080933,-0.0927715077996254
1772459212647866400,8.662866455078126,0.19958479702472687,0.0023495100904256105,0.4435415267944336
1772459212657863400,8.672863525390625,-0.03332142159342766,-0.6301778554916382,0.7101969718933105
1772459212667860200,8.682860107421876,-0.27885302901268005,-0.9617206454277039,0.820846438407898
1772459212677857300,8.692857177734375,-0.44743937253952026,-1.0748480558395386,0.7487996816635132
1772459212687854300,8.702854248046876,-0.45049554109573364,-0.8967964053153992,0.5310034155845642
1772459212697851100,8.71285107421875,-0.2824109196662903,-0.45985740423202515,0.3352125883102417
1772459212707848200,8.72284814453125,0.013011598959565163,0.01108348835259676,0.2714962661266327
1772459212717846300,8.73284619140625,0.34716108441352844,0.36634600162506104,0.33094415068626404
1772459212727843300,8.74284326171875,0.5615770220756531,0.5427968502044678,0.44050759077072144
1772459212737840000,8.752840087890625,0.5618520975112915,0.538959801197052,0.5887622833251953
1772459212747837200,8.762837158203125,0.3392653167247772,0.46316301822662354,0.7895956039428711
1772459212757834200,8.772834228515626,-0.01783928833901882,0.41541174054145813,1.0372626781463623
1772459212767831300,8.782831298828125,-0.3622666597366333,0.46764233708381653,1.3160853385925293
1772459212777828000,8.792828125,-0.5996624231338501,0.5536118745803833,1.605561375617981
1772459212787825400,8.802825439453125,-0.7281452417373657,0.5468333959579468,1.8541823625564575
1772459212797822200,8.812822265625,-0.753165066242218,0.4038655459880829,2.037594795227051
1772459212807819300,8.8228193359375,-0.6884844303131104,0.1201217994093895,2.0946788787841797
1772459212817817000,8.832817138671874,-0.5641488432884216,-0.2694379389286041,1.9619451761245728
1772459212827814400,8.842814453125,-0.42096689343452454,-0.6036433577537537,1.6488745212554932
1772459212837811200,8.852811279296875,-0.28625354170799255,-0.7336554527282715,1.2174885272979736
1772459212847808300,8.862808349609375,-0.18695272505283356,-0.7219209671020508,0.7699045538902283
1772459212857805300,8.872805419921875,-0.1354178935289383,-0.6133936643600464,0.4017699360847473
1772459212867802400,8.88280224609375,-0.10816508531570435,-0.42769521474838257,0.12108219414949417
1772459212877799200,8.892799072265625,-0.09659365564584732,-0.2201516181230545,-0.06969494372606277
1772459212887796500,8.90279638671875,-0.0847669467329979,-0.06197843700647354,-0.1652950644493103
1772459212897793300,8.912793212890625,-0.06013323366641998,0.013629769906401634,-0.20682519674301147
1772459212907790000,8.9227900390625,-0.030233127996325493,0.0031174737960100174,-0.2173774391412735
1772459212917788200,8.9327880859375,0.000712005072273314,-0.056162092834711075,-0.17860101163387299
1772459212927785500,8.942785400390624,0.045443642884492874,-0.11199026554822922,-0.09393823146820068
1772459212937782300,8.9527822265625,0.09901978820562363,-0.10526924580335617,-0.011155473068356514
1772459212947779000,8.962779052734374,0.13395178318023682,-0.0457322858273983,0.036580346524715424
1772459212957776400,8.9727763671875,0.14251118898391724,0.05158627778291702,0.08670423924922943
1772459212967773200,8.982773193359375,0.11742515861988068,0.17644330859184265,0.12584489583969116
1772459212977770200,8.992770263671876,0.0019957723561674356,0.2875687777996063,0.10622058808803558
1772459212987767300,9.002767333984375,-0.17702579498291016,0.33065539598464966,0.022966690361499786
1772459212997764400,9.012764404296876,-0.373024046421051,0.22429059445858002,-0.08142069727182388
1772459213007762200,9.02276220703125,-0.5379074215888977,-0.013852441683411598,-0.09277568757534027
1772459213017759200,9.03275927734375,-0.462525874376297,-0.22828485071659088,0.12775562703609467
1772459213027756300,9.04275634765625,-0.1282099038362503,-0.2661469578742981,0.4476092457771301
1772459213037753300,9.05275341796875,0.38422489166259766,-0.5289070010185242,0.5876491665840149
1772459213047750100,9.062750244140625,0.853303074836731,-1.1615582704544067,0.11443642526865005
1772459213057747500,9.07274755859375,1.020681381225586,-1.3877573013305664,-1.1092864274978638
1772459213067744300,9.082744140625,0.7187741994857788,-0.18767501413822174,-2.4947988986968994
1772459213077741300,9.0927412109375,0.2493710070848465,1.3515450954437256,-3.4719460010528564
1772459213087738400,9.10273828125,0.11849088966846466,2.4851057529449463,-3.4206297397613525
1772459213097736400,9.112736328125,0.35970109701156616,2.5779504776000977,-2.5381336212158203
1772459213107733200,9.122733154296874,0.7624409198760986,1.9044115543365479,-1.374814510345459
1772459213117730300,9.132730224609375,0.9585819244384766,0.8754146099090576,-0.4747054874897003
1772459213127727400,9.142727294921874,0.903330385684967,-0.02712167799472809,-0.0036176813300698996
1772459213137724400,9.152724365234375,0.7154079079627991,-0.4662652313709259,0.22946803271770477
1772459213147721200,9.16272119140625,0.40209776163101196,-0.6033967137336731,0.30821841955184937
1772459213157718300,9.17271826171875,0.016106652095913887,-0.5802834033966064,0.14038732647895813
1772459213167715300,9.18271533203125,-0.23777417838573456,-0.3422953486442566,-0.21455201506614685
1772459213177712000,9.192712158203125,-0.21240118145942688,0.07017931342124939,-0.601323664188385
1772459213187710200,9.202710205078125,0.03355741873383522,0.48078519105911255,-0.9478782415390015
1772459213197707300,9.212707275390626,0.4527493715286255,0.8235380053520203,-1.1684188842773438
1772459213207704300,9.222704345703125,0.8698683977127075,0.9683053493499756,-1.2315114736557007
1772459213217701000,9.232701171875,1.0632014274597168,0.8899998664855957,-1.0861295461654663
1772459213227698400,9.242698486328125,1.0397738218307495,0.7614004611968994,-0.73648601770401
1772459213237695200,9.2526953125,0.8341677188873291,0.6673192381858826,-0.22567977011203766
1772459213247692300,9.2626923828125,0.527203381061554,0.6577239632606506,0.3930712640285492
1772459213257689300,9.272689453125,0.19815489649772644,0.6942713260650635,1.0460429191589355
1772459213267686400,9.282686279296875,-0.07572110742330551,0.6857696771621704,1.647929072380066
1772459213277684200,9.292684326171875,-0.25330039858818054,0.5679671764373779,2.1374664306640625
1772459213287681300,9.302681396484376,-0.3353974521160126,0.34204718470573425,2.4369869232177734
1772459213297678300,9.31267822265625,-0.3351295292377472,0.039279866963624954,2.5100762844085693
1772459213307675400,9.32267529296875,-0.28561753034591675,-0.2763480246067047,2.306922435760498
1772459213317672200,9.332672119140625,-0.21167035400867462,-0.5191899538040161,1.873779058456421
1772459213327669500,9.34266943359375,-0.1346224844455719,-0.6215919852256775,1.3345301151275635
1772459213337666300,9.352666259765625,-0.0560416653752327,-0.6155152320861816,0.8150674104690552
1772459213347663400,9.362663330078124,0.025046583265066147,-0.49974703788757324,0.4076448082923889
1772459213357660400,9.372660400390625,0.1031499058008194,-0.27205154299736023,0.12153715640306473
1772459213367658500,9.382658447265625,0.18832963705062866,0.0024436896201223135,-0.06005532667040825
1772459213377655300,9.3926552734375,0.27875062823295593,0.21570269763469696,-0.17681069672107697
1772459213387652400,9.40265234375,0.33712902665138245,0.3202708959579468,-0.2782532870769501
1772459213397649400,9.4126494140625,0.35785776376724243,0.32189515233039856,-0.34550023078918457
1772459213407646200,9.422646240234375,0.3531213104724884,0.2595061659812927,-0.37614375352859497
1772459213417643300,9.432643310546876,0.29514244198799133,0.17664402723312378,-0.41679638624191284
1772459213427640300,9.442640380859375,0.1717362254858017,0.14462456107139587,-0.4775846600532532
1772459213437637400,9.452637451171874,-0.011602713726460934,0.18974223732948303,-0.5434720516204834
1772459213447634200,9.46263427734375,-0.2275921255350113,0.24193134903907776,-0.5925754904747009
1772459213457630500,9.47263037109375,-0.46561774611473083,0.23848256468772888,-0.6022270321846008
1772459213467627300,9.482627197265625,-0.6933490037918091,0.17526426911354065,-0.530950665473938
1772459213477624000,9.4926240234375,-0.831138014793396,0.025117386132478714,-0.34563541412353516
1772459213487621400,9.502621337890625,-0.7713565826416016,-0.24712437391281128,-0.02310764789581299
1772459213497618200,9.5126181640625,-0.5439428687095642,-0.45232945680618286,0.33460867404937744
1772459213507615200,9.522615234375,-0.3009592592716217,-0.4944930970668793,0.5503247976303101
1772459213517612300,9.5326123046875,-0.0771341398358345,-0.49616608023643494,0.4458519220352173
1772459213527610400,9.5426103515625,0.16767007112503052,-0.6826221346855164,-0.1483236849308014
1772459213537607200,9.552607177734375,0.18328630924224854,-0.6615698337554932,-1.2413274049758911
1772459213547604200,9.562604248046876,-0.14000213146209717,0.0980885699391365,-2.2990036010742188
1772459213557601300,9.572601318359375,-0.38507235050201416,0.9892453551292419,-2.785895586013794
1772459213567598300,9.582598388671874,-0.20090535283088684,1.5440773963928223,-2.2141146659851074
1772459213577595100,9.59259521484375,0.3226846158504486,1.28205406665802,-0.9007869362831116
1772459213587592400,9.602592529296874,0.7374572157859802,0.30683135986328125,0.2861843705177307
1772459213597589200,9.61258935546875,0.7104732394218445,-0.5056332945823669,0.9391217231750488
1772459213607587300,9.62258740234375,0.38934794068336487,-1.028842806816101,1.100833535194397
1772459213617584000,9.632584228515626,0.01915576308965683,-1.411118507385254,0.88100266456604
1772459213627581400,9.64258154296875,-0.16613228619098663,-1.5875697135925293,0.39768803119659424
1772459213637578200,9.652578125,-0.058725129812955856,-1.4882251024246216,-0.23218470811843872
1772459213647575300,9.6625751953125,0.2534424066543579,-1.0606790781021118,-0.868022084236145
1772459213657572400,9.672572265625,0.6296391487121582,-0.39876261353492737,-1.4120713472366333
1772459213667569400,9.6825693359375,0.970585823059082,0.36182838678359985,-1.8142284154891968
1772459213677566200,9.692566162109374,1.2161651849746704,0.9998272657394409,-2.018991470336914
1772459213687564300,9.702564208984375,1.2949649095535278,1.2709627151489258,-1.9971522092819214
1772459213697561300,9.712561279296875,1.1331983804702759,1.1964941024780273,-1.7195347547531128
1772459213707558400,9.722558349609375,0.8135016560554504,0.9395036697387695,-1.1771756410598755
1772459213717555200,9.73255517578125,0.45829832553863525,0.6694961786270142,-0.43976446986198425
1772459213727552300,9.74255224609375,0.13551171123981476,0.48831868171691895,0.4100130796432495
1772459213737549300,9.75254931640625,-0.05012580007314682,0.3545891344547272,1.2617177963256836
1772459213747546000,9.762546142578126,-0.12179959565401077,0.1308414787054062,2.026772975921631
1772459213757543400,9.77254345703125,-0.17122679948806763,-0.2067088633775711,2.6171140670776367
1772459213767541200,9.782541259765624,-0.23829683661460876,-0.5471600294113159,2.924917221069336
1772459213777538300,9.792538330078125,-0.29772183299064636,-0.7850940227508545,2.9098691940307617
1772459213787535000,9.80253515625,-0.3140442371368408,-0.8898775577545166,2.599090814590454
1772459213797532400,9.812532470703125,-0.2700549364089966,-0.8386450409889221,2.0676469802856445
1772459213807529200,9.822529296875,-0.19006316363811493,-0.6370908617973328,1.4063838720321655
1772459213817526300,9.8325263671875,-0.08129886537790298,-0.3199499547481537,0.7492074966430664
1772459213827523300,9.8425234375,0.0677001029253006,0.04719502478837967,0.16905973851680756
1772459213837521400,9.852521484375,0.23030978441238403,0.34729093313217163,-0.2678520977497101
1772459213847518200,9.862518310546875,0.38417714834213257,0.5169138312339783,-0.5113655924797058
1772459213857515300,9.872515380859374,0.4922335743904114,0.5417541861534119,-0.5998097062110901
1772459213867512300,9.88251220703125,0.537443995475769,0.4479536712169647,-0.6050755977630615
1772459213877509400,9.89250927734375,0.5163434743881226,0.2837495505809784,-0.5561993718147278
1772459213887506200,9.902506103515625,0.43280044198036194,0.12498789280653,-0.4826301336288452
1772459213897503500,9.91250341796875,0.3133547604084015,0.01567205600440502,-0.40501338243484497
1772459213907501300,9.922501220703126,0.1936100274324417,-0.031301893293857574,-0.3213134706020355
1772459213917498400,9.932498291015625,0.12872956693172455,-0.017664911225438118,-0.2553083300590515
1772459213927495200,9.9424951171875,0.11877071857452393,0.006961917504668236,-0.23406893014907837
1772459213937492500,9.952492431640625,0.12576444447040558,-0.025716135278344154,-0.23306678235530853
1772459213947489300,9.9624892578125,0.07875718176364899,-0.15369361639022827,-0.2421240657567978
1772459213957486300,9.972486328125,-0.0458822175860405,-0.37607288360595703,-0.20363126695156097
1772459213967483400,9.9824833984375,-0.13233958184719086,-0.5843621492385864,-0.0333733931183815
1772459213977481500,9.9924814453125,-0.12954486906528473,-0.6932297945022583,0.2240767925977707
1772459213987478300,10.002478271484375,0.022138841450214386,-0.8390721678733826,0.26547202467918396
1772459213997475300,10.012475341796875,0.31188225746154785,-1.0498214960098267,-0.19786874949932098
1772459214007472400,10.022472412109375,0.5397624969482422,-1.1367329359054565,-1.213758945465088
1772459214017469200,10.03246923828125,0.48007601499557495,-0.45352160930633545,-2.324019432067871
1772459214027466200,10.04246630859375,0.13169221580028534,0.6552585363388062,-3.0387730598449707
1772459214037463300,10.05246337890625,-0.10488864034414291,1.4796698093414307,-3.039072275161743
1772459214047461400,10.06246142578125,0.06978339701890945,1.6780229806900024,-2.207094430923462
1772459214057458400,10.07245849609375,0.44062352180480957,1.0036746263504028,-0.959040105342865
1772459214067455200,10.082455322265625,0.5836206078529358,-0.05582742765545845,0.004891848657280207
1772459214077452300,10.092452392578124,0.4628816545009613,-0.7847825288772583,0.22954119741916656
1772459214087449300,10.102449462890625,0.301908940076828,-0.9845866560935974,0.001353247556835413
1772459214097446100,10.112446044921874,0.28527936339378357,-0.8587586879730225,-0.2654893696308136
1772459214107443500,10.122443359375,0.4425954222679138,-0.6563930511474609,-0.4374070465564728
1772459214117441300,10.132441162109375,0.7065351605415344,-0.401750385761261,-0.5223411321640015
1772459214127438300,10.142438232421876,0.9601835012435913,-0.0693095251917839,-0.4989609718322754
1772459214137435100,10.15243505859375,1.155663251876831,0.25045037269592285,-0.3554637134075165
1772459214147432400,10.162432373046874,1.255499243736267,0.48653900623321533,-0.16823948919773102
1772459214157429200,10.17242919921875,1.202168345451355,0.6174706816673279,-0.013807043433189392
1772459214167426300,10.18242626953125,1.0054978132247925,0.6158666610717773,0.18504278361797333
1772459214177424100,10.192424072265625,0.7385624051094055,0.5276049375534058,0.4784989058971405
1772459214187421400,10.20242138671875,0.4167233407497406,0.434337317943573,0.8395083546638489
1772459214197418200,10.212418212890626,0.061516765505075455,0.43426382541656494,1.1636172533035278
1772459214207415300,10.222415283203125,-0.2766216993331909,0.5779425501823425,1.3734811544418335
1772459214217412400,10.232412353515626,-0.4896375834941864,0.8263161778450012,1.5295629501342773
1772459214227409400,10.242409423828125,-0.5261473059654236,1.011006474494934,1.7218458652496338
1772459214237406200,10.25240625,-0.4307774007320404,0.9967398643493652,1.915809154510498
1772459214247404300,10.262404296875,-0.2674292325973511,0.7615070343017578,2.042976140975952
1772459214257401300,10.2724013671875,-0.10621373355388641,0.36234310269355774,2.040625810623169
1772459214267398400,10.2823984375,0.007878316566348076,-0.056319914758205414,1.8565187454223633
1772459214277395200,10.292395263671875,0.08028513938188553,-0.35060879588127136,1.5197169780731201
1772459214287392300,10.302392333984375,0.11115320771932602,-0.45114874839782715,1.1303833723068237
1772459214297389300,10.312389404296875,0.13093915581703186,-0.3635872006416321,0.7778168320655823
1772459214307386400,10.322386474609376,0.1416008472442627,-0.11467451602220535,0.5019848346710205
1772459214317384200,10.33238427734375,0.15477204322814941,0.2272292971611023,0.36150097846984863
1772459214327381200,10.34238134765625,0.1877591460943222,0.5391954779624939,0.35067006945610046
1772459214337378300,10.35237841796875,0.26557138562202454,0.8043445944786072,0.4150354862213135
1772459214347375400,10.362375244140624,0.3884323239326477,1.0223625898361206,0.4897565245628357
1772459214357372200,10.3723720703125,0.5013644695281982,1.1111021041870117,0.5670316219329834
1772459214367369200,10.382369140625,0.5575717091560364,1.0206925868988037,0.632092297077179
1772459214377367300,10.3923671875,0.5561871528625488,0.8034921288490295,0.6806457042694092
1772459214387364400,10.4023642578125,0.5214577317237854,0.5308657288551331,0.7131655216217041
1772459214397361200,10.412361083984376,0.4321099817752838,0.26535066962242126,0.7520207762718201
1772459214407358200,10.422358154296875,0.32434266805648804,0.05844017490744591,0.8345060348510742
1772459214417355300,10.432355224609376,0.22806090116500854,-0.06920620054006577,0.9321537613868713
1772459214427352000,10.44235205078125,0.15398532152175903,-0.13234780728816986,0.9664238095283508
1772459214437349400,10.452349365234374,0.14298991858959198,-0.13299469649791718,0.9323028326034546
1772459214447347500,10.462347412109375,0.21779312193393707,-0.10875976830720901,0.8632716536521912
1772459214457344300,10.47234423828125,0.3504832684993744,-0.28155285120010376,0.7136920094490051
1772459214467341300,10.48234130859375,0.445340096950531,-0.8079770803451538,0.35805395245552063
1772459214477338400,10.49233837890625,0.3492175340652466,-1.4579271078109741,-0.2832530736923218
1772459214487335200,10.502335205078126,0.026900433003902435,-1.578696846961975,-0.9977265000343323
1772459214497332200,10.512332275390625,-0.47311630845069885,-1.1828629970550537,-1.5052486658096313
1772459214507330300,10.522330322265624,-0.8920304179191589,-0.7052894234657288,-1.6494799852371216
1772459214517326800,10.532326904296875,-0.9561579823493958,-0.2925276756286621,-1.4291484355926514
1772459214527323600,10.54232373046875,-0.7327361702919006,-0.0242301095277071,-1.0494661331176758
1772459214537321000,10.552321044921875,-0.42653095722198486,-0.07484082132577896,-0.7684267163276672
1772459214547317800,10.56231787109375,-0.18283143639564514,-0.4285566806793213,-0.6937107443809509
1772459214557314800,10.572314697265625,-0.11622658371925354,-0.9247616529464722,-0.8577045202255249
1772459214567312000,10.582311767578124,-0.20575542747974396,-1.2977997064590454,-1.2248342037200928
1772459214577310000,10.59231005859375,-0.3216708302497864,-1.3445568084716797,-1.6258653402328491
1772459214587306800,10.602306640625,-0.37344884872436523,-1.0992966890335083,-1.8676047325134277
1772459214597303800,10.6123037109375,-0.29526591300964355,-0.7334739565849304,-1.8391366004943848
1772459214607300900,10.62230078125,-0.08595626056194305,-0.4009869694709778,-1.5878552198410034
1772459214617298000,10.6322978515625,0.19430308043956757,-0.1991787552833557,-1.222681999206543
1772459214627294700,10.642294677734375,0.4845202565193176,-0.14212587475776672,-0.8287229537963867
1772459214637292800,10.652292724609374,0.7359722256660461,-0.19905227422714233,-0.45049336552619934
1772459214647289900,10.662289794921875,0.9056644439697266,-0.3391324579715729,-0.09835411608219147
1772459214657287000,10.672286865234375,0.9642470479011536,-0.49510952830314636,0.2218579798936844
1772459214667283700,10.68228369140625,0.8876410126686096,-0.7075506448745728,0.5396860241889954
1772459214677281000,10.692281005859375,0.7021870017051697,-0.9633800387382507,0.8810742497444153
1772459214687277800,10.70227783203125,0.45651188492774963,-1.187671184539795,1.2132970094680786
1772459214697274600,10.712274658203125,0.23848262429237366,-1.3519022464752197,1.5092012882232666
1772459214707272700,10.722272705078124,0.03108702041208744,-1.4177134037017822,1.7079344987869263
1772459214717270000,10.73227001953125,-0.16337834298610687,-1.4112584590911865,1.7846189737319946
1772459214727266800,10.742266845703124,-0.3021993637084961,-1.338068962097168,1.7374504804611206
1772459214737263600,10.752263671875,-0.3858322203159332,-1.239133596420288,1.591939926147461
1772459214747261000,10.762260986328124,-0.4167940616607666,-1.1161836385726929,1.3906358480453491
1772459214757257700,10.7722578125,-0.40785807371139526,-0.8673402667045593,1.1478745937347412
1772459214767255800,10.782255859375,-0.38360166549682617,-0.6765996813774109,0.892842173576355
1772459214777252600,10.792252685546876,-0.49077123403549194,-0.8165764808654785,0.6895860433578491
1772459214787250000,10.80225,-0.5124696493148804,-0.7497187256813049,0.6901240944862366
1772459214797246700,10.812246826171876,-0.6039180755615234,-0.697567880153656,0.44794100522994995
1772459214807243800,10.822243896484375,-0.7843658924102783,-0.5993394255638123,0.3180091977119446
1772459214817240800,10.83224072265625,-0.9125747680664062,-0.6209520697593689,0.16864047944545746
1772459214827238000,10.84223779296875,-0.9777595400810242,-0.7145292162895203,-0.016822505742311478
1772459214837235700,10.852235595703124,-0.955947995185852,-0.7363666296005249,-0.162553071975708
1772459214847232800,10.862232666015625,-0.8121753931045532,-0.6618005037307739,-0.21257203817367554
1772459214857229800,10.872229736328125,-0.5989934802055359,-0.6165978312492371,-0.19244466722011566
1772459214867227000,10.882226806640626,-0.35705041885375977,-0.6249885559082031,-0.1563235968351364
1772459214877223700,10.8922236328125,-0.12110952287912369,-0.653168797492981,-0.1688907891511917
1772459214887220700,10.902220703125,0.05619852989912033,-0.545097291469574,-0.24415326118469238
1772459214897217800,10.9122177734375,0.18332692980766296,-0.13450980186462402,-0.42410919070243835
1772459214907216000,10.9222158203125,0.1980799436569214,0.2614183723926544,-0.6751779913902283
1772459214917212700,10.932212646484375,0.0972215086221695,0.33688676357269287,-0.8639575242996216
1772459214927209700,10.942209716796874,-0.010914825834333897,0.2133205235004425,-0.9287363290786743
1772459214937206800,10.952206787109375,-0.09136092662811279,0.04459568113088608,-0.8703569173812866
1772459214947203800,10.962203857421875,-0.1477450281381607,-0.12234903872013092,-0.733481228351593
1772459214957200600,10.97220068359375,-0.14606750011444092,-0.2491149753332138,-0.5683135986328125
1772459214967199000,10.982198974609375,-0.08784602582454681,-0.2821313440799713,-0.39748337864875793
1772459214977195800,10.99219580078125,0.010219287127256393,-0.24332483112812042,-0.24231374263763428
1772459214987192800,11.00219287109375,0.09958357363939285,-0.14869652688503265,-0.13335207104682922
1772459214997190000,11.01218994140625,0.1502925604581833,-0.08667576313018799,-0.06106216832995415
1772459215007187000,11.02218701171875,0.14757221937179565,-0.04283810779452324,-0.021309878677129745
1772459215017183700,11.032183837890624,0.10102974623441696,-0.04428527131676674,-0.003726092167198658
1772459215027180500,11.0421806640625,0.018747560679912567,-0.08451864123344421,0.01449769176542759
1772459215037179000,11.052178955078125,-0.07972201704978943,-0.11889765411615372,0.020021619275212288
1772459215047176000,11.062176025390626,-0.18064667284488678,-0.11695335060358047,0.017731264233589172
1772459215057172700,11.0721728515625,-0.25223857164382935,-0.08614909648895264,0.016041221097111702
1772459215067169800,11.082169677734376,-0.2875598073005676,-0.06144009903073311,0.020191296935081482
1772459215077166800,11.092166748046875,-0.28590598702430725,-0.01686490885913372,0.021849913522601128
1772459215087163600,11.10216357421875,-0.26979365944862366,0.021054696291685104,0.034143976867198944
1772459215097161700,11.11216162109375,-0.2458004504442215,0.02511921152472496,0.054549384862184525
1772459215107158800,11.12215869140625,-0.2131222039461136,-0.0060016801580786705,0.060724321752786636
1772459215117155800,11.13215576171875,-0.18315339088439941,-0.04297487810254097,0.05875784531235695
1772459215127152600,11.142152587890624,-0.16049189865589142,-0.08319371938705444,0.054424189031124115
1772459215137149700,11.152149658203125,-0.143653005361557,-0.13136151432991028,0.05299167335033417
1772459215147146800,11.162146728515625,-0.125991553068161,-0.15878933668136597,0.04879721254110336
1772459215157144800,11.172144775390626,-0.0999266728758812,-0.13765104115009308,0.043149176985025406
1772459215167141600,11.1821416015625,-0.07353302091360092,-0.05548590421676636,-0.004019027575850487
1772459215177138700,11.192138671875,-0.06165718287229538,0.03465650603175163,-0.05862101912498474
1772459215187135700,11.2021357421875,-0.026005100458860397,0.06333961337804794,-0.05410609766840935
1772459215197132800,11.2121328125,-0.005816474556922913,0.08094976842403412,-0.06943365186452866
1772459215207129600,11.222129638671875,0.00850209966301918,0.10160862654447556,-0.07861682027578354
1772459215217127000,11.232126953125,0.01793901063501835,0.09260021895170212,-0.07884451746940613
1772459215227124700,11.242124755859376,0.02705390378832817,0.07279406487941742,-0.06604959815740585
1772459215237121800,11.252121826171875,0.03042440116405487,0.014624502509832382,-0.06288017332553864
1772459215247118600,11.26211865234375,0.019098948687314987,0.015349756926298141,-0.06508708745241165
1772459215257116000,11.272115966796875,0.013318025507032871,0.037817515432834625,-0.06636061519384384
1772459215267112700,11.28211279296875,0.000707909232005477,0.09299968183040619,-0.04981593042612076
1772459215277109800,11.29210986328125,-0.014691287651658058,0.15228138864040375,-0.024984082207083702
1772459215287106800,11.30210693359375,-0.034146688878536224,0.17827032506465912,0.019682176411151886
