time,seconds_elapsed,z,y,x
1772025002213202200,0.0772021484375,-4.611737424373627,-6.39424744836688,-0.10195252719484268
1772025002223200300,0.0872001953125,-3.6426784572064874,-3.393893081474304,0.6273940860770643
1772025002233197300,0.097197265625,-2.713924612420797,-0.7846499097555876,1.0832863079149275
1772025002243194400,0.1071943359375,-2.304953350907564,1.5835159763902424,1.4500409874022007
1772025002253191200,0.117191162109375,-2.0971873833060264,3.2197143261760472,1.5417419505000114
1772025002263188500,0.1271884765625,-1.0409259335041046,3.6573084555834527,1.2843930368229746
1772025002273185300,0.137185302734375,0.3768623050689697,3.531989885044098,0.8626135855324566
1772025002283182300,0.147182373046875,1.5528788460642098,3.6841058616161346,0.48851110056564206
1772025002293179400,0.157179443359375,2.5385984406530855,3.9451206043243405,0.4385857707932591
1772025002303176400,0.167176513671875,3.6612954793930053,3.894211085820198,0.39706513514220715
1772025002313173200,0.17717333984375,5.969519230273366,3.5196196482926605,-0.13743147152885793
1772025002323170300,0.18717041015625,7.6158455908417695,3.1800901717960834,-0.9474613217346369
1772025002333167400,0.19716748046875,8.090159385359287,3.370692823150754,-1.6159110562995076
1772025002343164200,0.2071640625,7.936950937375426,3.7884026869148015,-1.642618738222122
1772025002353161200,0.2171611328125,7.220648587659001,3.8687767848342656,-1.468528684120625
1772025002363159300,0.2271591796875,6.325588922682404,3.5058769541442394,-1.3981803056530653
1772025002373156400,0.23715625,5.78511835616827,3.1636475710391996,-1.3831934566624462
1772025002383153200,0.247153076171875,5.462729984086752,3.288449424228072,-1.0465339826442301
1772025002393150200,0.257150146484375,5.355192569431662,3.663381053495407,-0.3928396264016628
1772025002403147300,0.267147216796875,5.505563748162984,4.155875816869735,0.031206600777059793
1772025002413144300,0.277144287109375,5.697775003758072,4.7948815764158965,0.18839622735157607
1772025002423141000,0.28714111328125,6.172232590660452,5.362958527258038,0.24538082798570393
1772025002433138400,0.297138427734375,6.682917675241828,5.6679953670442105,0.013410685715079307
1772025002443135200,0.30713525390625,6.70439885468781,5.484395872449874,-0.43334677416123446
1772025002453132300,0.31713232421875,5.235505282777548,4.4625113240242005,-1.325344348153472
1772025002463129300,0.32712939453125,5.347182281455397,3.414531380355358,-1.5047757632829248
1772025002473126400,0.33712646484375,5.447854486516118,3.882511295676231,-1.7742305636867879
1772025002483123200,0.347123291015625,5.283987866395711,4.423479290318489,-0.7204163609065115
1772025002493120300,0.357120361328125,4.158798426318168,3.398932536946237,0.4571439754646271
1772025002503118300,0.367118408203125,2.905515105769038,2.588126149410009,0.7744451074097305
1772025002513115100,0.377115234375,1.0549176339775324,3.1069016014665363,0.37815059131383894
1772025002523112200,0.3871123046875,-0.1869265931904316,3.3468583585768936,-1.290052670019865
1772025002533109200,0.397109130859375,0.9966793800204992,1.912065501450002,-2.16381644898951
1772025002543106300,0.407106201171875,1.0596224506676197,-0.5328212208047509,-1.651031031128019
1772025002553103000,0.41710302734375,-0.5845832644850015,-2.319332589393854,-0.17293839984834194
1772025002563100400,0.427100341796875,-3.8051556687951087,-4.136307777568698,1.2353636329770088
1772025002573097200,0.43709716796875,-8.553662447527051,-7.2359344195961945,2.1647927466757593
1772025002583094300,0.44709423828125,-13.98457982776761,-10.4891634773612,2.561992760244012
1772025002593091300,0.45709130859375,-17.378820115244388,-14.021347423672676,1.637184438213706
1772025002603088400,0.46708837890625,-18.552958587408064,-13.112870643240212,-0.4153931112542748
1772025002613085200,0.477085205078125,-18.295101431947945,-8.963959404686094,-1.343735160368681
1772025002623082200,0.487082275390625,-14.97043795404434,-7.966617176842689,-0.6797312262315303
1772025002633080300,0.497080322265625,-11.802754843878745,-7.02739922118783,0.34406806977428495
1772025002643077400,0.507077392578125,-10.313218881434201,-6.212064250311255,1.3122434590399263
1772025002653074200,0.51707421875,-8.912635460162162,-6.6248495171546935,1.7229644868299363
1772025002663071200,0.5270712890625,-7.904850164237618,-6.2434431389153,1.495418736872822
1772025002673068300,0.537068359375,-6.346109732663631,-6.048527300536632,1.525983532615006
1772025002683065000,0.547065185546875,-3.8425662387788293,-5.604483556598424,1.166302079449594
1772025002693062400,0.5570625,-1.9543185430288315,-4.026061103954911,0.3054202130805701
1772025002703059200,0.56705908203125,-1.7892320257246492,-1.8141355808347464,-0.2773825977284461
1772025002713056300,0.57705615234375,-2.017956610202789,0.1262719257414341,-0.597639437673986
1772025002723053300,0.58705322265625,-1.2133610600054263,1.1560218007147312,-0.9218301099371164
1772025002733050400,0.59705029296875,-0.27057576725780963,2.2721225099295377,-1.3739531884998082
1772025002743047200,0.607047119140625,0.4281576080203056,3.0472672169759867,-1.606238388068974
1772025002753044500,0.61704443359375,1.1487696376293897,3.5316268969506024,-1.5354139165222644
1772025002763042300,0.627042236328125,2.71996213901937,3.9486771277621386,-1.1599965495645999
1772025002773039400,0.637039306640625,5.191529947450757,4.345727942118049,-0.606912658258155
1772025002783036200,0.6470361328125,7.577151410788297,4.4532267783284185,-0.11900419976077974
1772025002793033500,0.657033447265625,8.604571966031193,4.085941279900074,-0.10064429414048791
1772025002803030300,0.6670302734375,8.10981159581244,3.381761329653859,-0.3994753380890935
1772025002813027300,0.67702734375,7.681774983823299,2.572617030110955,-0.6792309485591947
1772025002823024400,0.6870244140625,8.110029622477292,2.180320132283866,-0.5754363006290047
1772025002833021200,0.697021240234375,8.82041777971387,2.1701319157466292,-0.18662454150393604
1772025002843018200,0.707018310546875,9.523853049072622,2.0698113006025554,0.22506942297145724
1772025002853015300,0.717015380859375,9.45024771463573,2.096834916606545,0.21204989199843258
1772025002863012400,0.727012451171875,8.79411897085309,1.9099112460255623,-0.33699597596358505
1772025002873009200,0.737009033203125,7.883200642487406,1.5226958892464637,-0.9408538132283836
1772025002883006200,0.747006103515625,6.832596195533871,1.6024018786460161,-1.9160339666895567
1772025002893004300,0.75700439453125,6.3908730034977195,2.496763039964437,-2.413374708790332
1772025002903001300,0.76700146484375,6.043548343080282,3.234903127479553,-1.5911327350042759
1772025002912998100,0.776998046875,5.918251984372735,3.494278286287188,-0.5301089661713689
1772025002922995500,0.786995361328125,6.208304605516791,3.705539694789052,0.026380861121043563
1772025002932992300,0.7969921875,6.378591614073515,3.6632664872050285,-0.6505555467601866
1772025002942989300,0.8069892578125,6.285182678014039,3.4095465776801106,-1.9132509118422865
1772025002952986400,0.816986328125,5.672846314206719,3.41087168880403,-2.6126900973021985
1772025002962983400,0.8269833984375,4.777333644765616,3.443389810571074,-2.9320211276397106
1772025002972980200,0.836980224609375,4.182745119094848,3.174417386856675,-2.9419883949026464
1772025002982977000,0.84697705078125,3.295728475320339,2.739386385935545,-2.7595491762593385
1772025002992974300,0.856974365234375,1.4336036473423241,2.3751304644614457,-3.0802851049587128
1772025003002971100,0.86697119140625,-1.562419996869564,1.6760206570863723,-3.560460484986007
1772025003012968200,0.87696826171875,-3.2302041560083627,0.0534130257576704,-3.4423788799628614
1772025003022965200,0.88696533203125,-4.737776710402965,-1.7623451878428458,-1.826606501481682
1772025003032963300,0.89696337890625,-7.26447720799148,-4.508064868453145,0.283671103413403
1772025003042960100,0.906960205078125,-8.721174730673432,-6.377352427667379,0.9105720722112804
1772025003052957200,0.916957275390625,-10.882397071516513,-7.382845228740573,2.370031826148182
1772025003062954200,0.926954345703125,-12.123698277848959,-7.9758415167838335,4.537519510996342
1772025003072951300,0.936951416015625,-11.441672291743755,-4.739464225098491,4.1876463351398705
1772025003082948000,0.946947998046875,-10.11122097584009,-2.9471564451903105,2.5211107147574423
1772025003092945400,0.9569453125,-9.363017174950242,-4.0054830108284945,2.4480964780814944
1772025003102942200,0.966942138671875,-9.196541833636164,-4.437568605947495,3.412257882465422
1772025003112939300,0.976939208984375,-8.16195679359138,-5.05897791852653,4.597372798934579
1772025003122936300,0.986936279296875,-7.145661443474888,-5.117842779949307,5.690232917815447
1772025003132933400,0.996933349609375,-6.8345584355175495,-4.054924210345745,6.33290713674128
1772025003142930200,1.00693017578125,-5.99073503678143,-3.232188900084793,6.47375177771449
1772025003152927200,1.01692724609375,-4.809716741976142,-2.7634958680585027,5.486505996471643
1772025003162924300,1.02692431640625,-3.9846015508413313,-2.033912011964619,4.3720007397547365
1772025003172922400,1.03692236328125,-3.3989749147832393,-0.5371227173909545,3.215775233161449
1772025003182919200,1.046919189453125,-2.6355168461382386,0.8811720093995332,1.6722981294319033
1772025003192916200,1.056916259765625,-1.4554402160972355,1.8511258795797825,0.03243648963188752
1772025003202913300,1.066913330078125,-0.29096272172629833,2.5754542993634937,-1.4379552666805684
1772025003212910000,1.07691015625,0.7515238852232694,3.103852443028986,-1.6258634182542562
1772025003222907400,1.086907470703125,1.8164917885720728,3.4563401852980253,-0.9413554060749709
1772025003232904200,1.096904296875,2.769071914625168,3.439878295318782,-0.019988000012468546
1772025003242901200,1.1069013671875,3.7070904313623902,3.153808898591995,0.7273917528770864
1772025003252898300,1.116898193359375,4.723738248178362,2.772883289606869,1.2796972802221773
1772025003262895400,1.126895263671875,5.71814559161365,2.2080600798636674,1.5712394092716275
1772025003272892200,1.13689208984375,6.417623647779226,1.8565616408929229,1.8093508307762443
1772025003282889500,1.146889404296875,6.68026628395021,1.8215256910860538,2.0623840732112524
1772025003292886300,1.15688623046875,6.974799849900603,1.8052224987998604,2.099961231933534
1772025003302884400,1.16688427734375,7.3675021136581895,1.854612552651763,1.7317678248800337
1772025003312881200,1.176881103515625,7.644111900383233,2.103547858248651,1.3086219075419008
1772025003322878500,1.18687841796875,7.866118574783205,2.4433941456094384,0.9015716772191226
1772025003332875300,1.196875244140625,8.062316269665956,2.7447280392244457,0.5165284037820994
1772025003342872300,1.206872314453125,8.295946746364235,2.99069543492645,0.37686398556940254
1772025003352869400,1.216869384765625,8.25598766094148,3.2402114630207417,0.5265054252540693
1772025003362866200,1.2268662109375,7.844705199876427,3.5139468633532522,0.6603368629969656
1772025003372863200,1.23686328125,7.704159249588847,3.6940880341872573,0.6236265502370893
1772025003382860300,1.2468603515625,7.769396568652987,3.6932673654541373,0.1838658539129421
1772025003392857300,1.256857421875,7.735502482357621,3.5312367285892363,-0.10902056588493286
1772025003402854100,1.266854248046875,7.614636215052008,3.1952742969244716,-0.26889362285714596
1772025003412851500,1.2768515625,7.156063595023751,3.0208263692960142,-0.5660706525210291
1772025003422848300,1.28684814453125,6.4237745716243975,3.0785934986099597,-0.672342942611128
1772025003432845300,1.29684521484375,5.494700408843159,2.9385525752350685,-0.6844279326803981
1772025003442843100,1.306843017578125,3.884119315394759,2.1973808649390936,-1.3156126432120798
1772025003452840400,1.31684033203125,1.93604405066967,1.7246134230807422,-2.2828555008679627
1772025003462837200,1.326837158203125,-0.0015717793613672256,0.385489263638854,-2.995436199712753
1772025003472834300,1.336834228515625,-2.0579899299055335,-1.7424311115831135,-2.522269237142801
1772025003482831400,1.346831298828125,-5.594371327906846,-4.556809902399778,-1.6982196294128893
1772025003492828400,1.356828369140625,-7.968056269735097,-7.98739050028026,-0.8757611633319408
1772025003502825700,1.36682568359375,-11.486113491016626,-9.97645828512907,-0.028064138032868502
1772025003512822800,1.37682275390625,-15.287661490708588,-10.52156235666275,1.8313170172601938
1772025003522819800,1.38681982421875,-15.69046137011051,-8.988068594548105,2.21229333351925
1772025003532816600,1.396816650390625,-14.601606979739666,-5.756484966880083,0.21884864876046775
1772025003542813700,1.406813720703125,-14.078282193815708,-5.071736277812719,-0.2752452203735709
1772025003552810800,1.416810791015625,-13.406997381955385,-5.290533342516422,0.5264836883462966
1772025003562807800,1.426807861328125,-12.385165440499781,-4.84115554407388,1.240216041444242
1772025003572804600,1.4368046875,-11.18246372167468,-4.232170828782022,1.7556448134213685
1772025003582802700,1.446802734375,-9.841527252113819,-4.0956694777101275,2.705500482946634
1772025003592799700,1.4567998046875,-8.567051505932211,-3.5435704327225683,3.6506513357818124
1772025003602796800,1.466796875,-6.748285927209258,-2.9034713249817488,4.148189061759412
1772025003612793600,1.476793701171875,-4.599592813071609,-2.131231691727042,3.677728727799654
1772025003622791000,1.486791015625,-2.783815894770622,-0.8027537217229604,2.589364751294255
1772025003632787700,1.49678759765625,-1.2374398547291754,0.3555421614035964,1.4251931080020963
1772025003642784800,1.50678466796875,0.24730770439505576,1.019296577759087,0.47310525897797195
1772025003652781800,1.51678173828125,1.3026783428370952,1.434948632210493,-0.1628331306205131
1772025003662779000,1.52677880859375,2.0593425135582684,2.1590295069739223,-0.44179819350112226
1772025003672775700,1.536775634765625,1.9939690008938311,1.749177955494821,-1.4673472192510961
1772025003682773000,1.54677294921875,1.8242302738696337,1.5295450244888662,-2.467565002530813
1772025003692769800,1.556769775390625,2.4880922422528267,2.377339957204461,-2.6795953495785594
1772025003702766600,1.5667666015625,3.681794077542424,2.9839798629358407,-2.2112483545109627
1772025003712764000,1.576763916015625,5.250702267387509,3.1525811103627084,-1.4065434987202285
1772025003722762000,1.586761962890625,6.58501844202578,3.07993614539057,-0.557684297773987
1772025003732758800,1.5967587890625,7.574996863102912,3.0603245592087505,0.29440778414625673
1772025003742755600,1.606755615234375,8.175222517877817,3.1740643356353044,0.9788678289979695
1772025003752753000,1.6167529296875,8.4417644995749,3.255759745286405,1.3396977215461432
1772025003762749700,1.626749755859375,8.540733407849073,3.180491153812408,1.338156775714457
1772025003772746800,1.636746826171875,7.360147074720263,2.9857442422598597,1.146246987283975
1772025003782743800,1.646743896484375,5.141515331959724,2.9148393989533186,1.2276701558649539
1772025003792740900,1.656740966796875,4.395843095374107,3.063527739164233,1.5683774439692497
1772025003802737700,1.666737548828125,6.1417006742745635,3.2065169909507034,1.7551617060795426
1772025003812734700,1.676734619140625,7.643843604835867,3.443851582863927,1.9605298187591134
1772025003822731800,1.686731689453125,7.937299312421679,3.9502433541655537,1.8224805075928567
1772025003832728800,1.696728759765625,7.695589574164152,4.46704370675683,1.0869451226834208
1772025003842725600,1.7067255859375,7.366123226520418,4.96097288684845,0.42227644102722406
1772025003852722700,1.71672265625,7.263347911700606,4.77594482075572,0.18180760620888323
1772025003862720800,1.726720703125,7.437127438548207,4.0463521968334915,-0.015326419675908982
1772025003872717800,1.7367177734375,7.39389035436809,3.6760201703160997,-0.3381169062849134
1772025003882714600,1.746714599609375,6.948108826851844,3.7065620235741137,-0.6365754636593163
1772025003892712000,1.7567119140625,6.304918475097417,3.7116707448899744,-0.8919662290059029
1772025003902708700,1.766708740234375,5.1698289877742525,3.3335411963641643,-1.0186332915447651
1772025003912705500,1.77670556640625,3.17573256110847,2.458644613972306,-1.1589051010660827
1772025003922702800,1.786702880859375,0.7077922955244779,1.3097305994361639,-1.002477106513828
1772025003932699600,1.79669970703125,-1.2610410950690507,-0.3197147689580917,-0.5204570850005373
1772025003942696700,1.80669677734375,-2.9476912827193735,-3.246096721667051,-1.0934336079198868
1772025003952693800,1.81669384765625,-5.36237634345591,-6.210309515598416,-0.2940888178575784
1772025003962690800,1.82669091796875,-9.295994141513109,-9.231151959246397,2.202425142716616
1772025003972687600,1.8366875,-13.719703733456134,-11.563496005904673,3.6524446489393707
1772025003982685000,1.846684814453125,-16.05607981210947,-9.905041400647162,2.426253917977214
1772025003992681700,1.856681640625,-16.31072326622009,-6.463675204858183,-0.38343737261034544
1772025004002678800,1.8666787109375,-14.922555089884996,-5.620286105886102,-1.176365135237202
1772025004012676600,1.876676513671875,-13.604216236579417,-5.647427795311808,-0.5351325664870441
1772025004022674000,1.886673828125,-12.557110737657545,-5.70717879191935,0.53605859529078
1772025004032670700,1.896670654296875,-11.123769540643691,-5.552146635639668,1.4383306758642196
1772025004042667800,1.906667724609375,-9.30654534614384,-5.345735589778423,2.1248764774814246
1772025004052664800,1.916664794921875,-8.508926064699887,-4.850282268859446,3.0003572895020243
1772025004062661600,1.92666162109375,-7.573841263327002,-3.9939547778591513,3.996275037500262
1772025004072658700,1.93665869140625,-5.3712096382528545,-3.0796757408887148,3.8562513575211166
1772025004082655700,1.94665576171875,-3.0820354557573792,-1.9916127931565044,2.8912206229567525
1772025004092652800,1.95665283203125,-1.7065952435702085,-0.5538917736232281,2.0426434538222846
1772025004102649600,1.966649658203125,-0.6089204178839922,0.8641986627668142,1.2973890042573213
1772025004112647000,1.97664697265625,0.6148959851622581,1.699184675052762,0.46803551796562964
1772025004122643700,1.986643798828125,1.6637579723626374,2.1346900154873727,-0.20609281022492795
1772025004132640800,1.996640869140625,2.4410884990155695,2.362578441402316,-0.5964064983455464
1772025004142637800,2.006637939453125,3.132475603184104,2.3877216504871845,-0.9233281664751469
1772025004152636000,2.016635986328125,3.8406355629771944,2.3892475448802113,-1.1177759489506482
1772025004162632700,2.0266328125,4.628147291904687,2.5119407353520393,-1.1177158162612468
1772025004172629800,2.036629638671875,5.413408027034998,2.660846517705917,-1.0147995586007832
1772025004182626800,2.046626708984375,5.94580809981823,2.6142873033657668,-0.8085041019432246
1772025004192623900,2.056623779296875,6.282290463703871,2.471039985165,-0.40446759341843425
1772025004202620700,2.06662060546875,6.755425862091779,2.3172096058905125,0.12799100461900234
1772025004212618000,2.076617919921875,7.286050741896033,2.1928893987387417,0.5693572364436462
1772025004222614800,2.08661474609375,7.675934441101551,2.124787922415137,0.8803801283694803
1772025004232611600,2.096611572265625,7.9091738726556295,2.0478277245923877,1.099838360395655
1772025004242609000,2.10660888671875,8.016829360732435,2.10155405408293,1.1317399576995522
1772025004252605700,2.116605712890625,8.032980869588256,2.4024659228935836,1.0349486857254058
1772025004262602800,2.126602783203125,8.099372619384527,2.742412455758452,0.8603276665523648
1772025004272599800,2.136599853515625,8.037472335788607,3.074102032409608,0.7545425754573196
1772025004282596900,2.146596923828125,7.9080890000283715,3.3247970411553975,0.6628481882307679
1772025004292593700,2.15659375,7.732569936037063,3.4516754083573815,0.32675146266184746
1772025004302591700,2.166591796875,7.286323129096627,3.6061125213533636,0.029235008443146943
1772025004312588800,2.1765888671875,6.716228408691286,3.852899416744709,-0.11090864465385675
1772025004322585900,2.1865859375,6.136685476461053,4.140795152115822,-0.17350695698391644
1772025004332582700,2.196582763671875,5.573627815085649,4.339705028566718,-0.3304674509776756
1772025004342580000,2.206580078125,4.984222245010733,4.183909486699104,-0.6559722380466759
1772025004352576800,2.21657666015625,4.272352324783802,3.592762625914812,-0.9425373824011534
1772025004362573800,2.22657373046875,2.963684970664978,2.641794026711583,-1.225694033486396
1772025004372571000,2.23657080078125,1.1190274103164672,1.3423521815776824,-1.24321317743361
1772025004382568000,2.24656787109375,-0.5115484234124422,-0.07084054589867592,-0.8310960191100836
1772025004392564700,2.256564697265625,-2.1618109543859956,-1.6693325576245783,-0.5053860648578032
1772025004402561800,2.266561767578125,-4.617193936213851,-4.155778786236048,-0.025949812760017812
1772025004412558800,2.276558837890625,-6.836410200864076,-7.584335769334435,1.1149267700646073
1772025004422555600,2.2865556640625,-9.242584038364887,-11.545310360872746,3.2662659417316315
1772025004432552700,2.296552734375,-13.744404459470509,-13.58032215077281,4.89218196695596
1772025004442549800,2.3065498046875,-15.775719732940196,-10.321515585136414,4.379875710913539
1772025004452547800,2.3165478515625,-15.378459952008724,-6.48833735242784,1.5295745428442955
1772025004462544600,2.326544677734375,-14.02068574489355,-6.524746636414528,-0.1761564120467752
1772025004472541700,2.336541748046875,-13.10192956250906,-7.550017320147156,-0.107808998138085
1772025004482538800,2.346538818359375,-13.607068703401088,-7.091164129611849,0.5201170759238303
1772025004492535800,2.356535888671875,-12.49749885725975,-6.044728492775559,0.8136556394875049
1772025004502532400,2.366532470703125,-10.181251374399661,-5.2824289465159175,1.2024950903370977
1772025004512529200,2.376529052734375,-8.333021800783277,-3.610860592663288,1.4779676897257565
1772025004522526000,2.38652587890625,-5.866728133362531,-2.0348101298481223,1.7896081655606626
1772025004532523300,2.396523193359375,-3.180318135333061,-1.077716325762868,1.7405014586947858
1772025004542520000,2.40652001953125,-1.1699287455141543,-0.2568009244054556,1.1962369797904044
1772025004552517000,2.41651708984375,-0.06697568716406822,0.527283752682805,0.5588797911688685
1772025004562514200,2.42651416015625,0.7483195362240076,1.4334148467719554,0.03678871175833046
1772025004572511200,2.43651123046875,1.3133528815865516,2.3460949241131543,-0.6848967192359269
1772025004582508000,2.446508056640625,1.8400456826388836,3.135425685161352,-1.4781145508505402
1772025004592505300,2.45650537109375,2.561542093867063,3.7054824116438625,-1.966207864395529
1772025004602503200,2.466503173828125,3.2956489803433415,4.196293751975894,-2.1816288767948744
1772025004612500200,2.476500244140625,3.8950568889945743,4.356418847480416,-2.122729966972023
1772025004622497000,2.4864970703125,4.543326151448488,4.172625291618704,-1.8397217113815247
1772025004632494300,2.496494384765625,5.365626285162568,4.130187248861789,-1.5392961647830903
1772025004642491100,2.5064912109375,6.056807053104043,4.267752137511969,-1.258392334125936
1772025004652488200,2.51648828125,6.526415446409582,4.277515406635404,-0.9782261700935662
1772025004662485200,2.5264853515625,6.946617126989365,4.066637444493174,-0.6452249263219535
1772025004672482300,2.536482421875,7.288731359282136,3.805755972775817,-0.2708937471657991
1772025004682479000,2.54647900390625,7.497119258174299,3.5872459083199497,0.08704714594259857
1772025004692476200,2.55647607421875,7.532123351538181,3.500806811273098,0.2107378230191767
1772025004702473200,2.56647314453125,7.476357625174522,3.6254631185114383,0.08043386528268456
1772025004712470000,2.576469970703125,7.4292708798289295,3.786117206326127,-0.22014701800793407
1772025004722467000,2.586467041015625,7.412142050373554,4.035900945445895,-0.599947641551122
1772025004732464000,2.596464111328125,7.447617852902412,4.371676622366905,-0.7445581378638744
1772025004742462200,2.606462158203125,7.523402284944057,4.705891625842452,-0.940487610264495
1772025004752459000,2.616458984375,7.425901111134887,4.917023270484805,-1.0559027725573629
1772025004762456000,2.6264560546875,7.1284408440828315,5.174162633064389,-1.1127357628263532
1772025004772453000,2.636453125,6.840038912755251,5.004657130274176,-0.9993117743507027
1772025004782450200,2.6464501953125,6.760519970360398,4.104250259050727,-0.96085111079216
1772025004792447000,2.656447021484375,5.98372311219275,3.9930268493592735,-1.3618395568579436
1772025004802444300,2.6664443359375,4.4351989542067045,4.388665166568756,-1.3426498493500054
1772025004812441000,2.676441162109375,2.508212654739618,4.305058078077435,-1.2157077692620455
1772025004822438100,2.686438232421875,0.4555956500440836,3.207060596308112,-1.0253381960108876
1772025004832435200,2.696435302734375,-1.1391712036788464,-0.09251111043691634,-0.6279087576009332
1772025004842432000,2.706431884765625,0.306741305616498,-3.3641315649390218,-0.511255504880473
1772025004852429000,2.716428955078125,-2.6869185320734976,-5.187714773076772,-0.4971868301806971
1772025004862426000,2.726426025390625,-5.390328764742613,-7.717768088224529,0.9308644802641123
1772025004872423200,2.736423095703125,-9.003795740512013,-9.493005490866302,1.6579463634744285
1772025004882420000,2.746419921875,-12.041715575689077,-10.010823496067523,1.841227732030302
1772025004892417300,2.756417236328125,-12.536318124997615,-8.752828929087519,1.8020798168599605
1772025004902415000,2.7664150390625,-12.202955938959121,-5.586693048363924,0.44895339901801196
1772025004912412200,2.776412109375,-11.229006861662864,-4.7481239168941975,-0.11278550790902227
1772025004922409000,2.786408935546875,-10.998078629660606,-5.805379638430476,0.24686270057391374
1772025004932406300,2.79640625,-10.739929213255643,-6.554192511129379,1.2307362654373049
1772025004942403000,2.806403076171875,-9.76640216076374,-6.7128837744385,2.217368590956926
1772025004952400100,2.816400146484375,-9.30337548393607,-6.230850199323892,2.749667249192297
1772025004962397200,2.826397216796875,-8.33817962193787,-4.997756849366426,2.581276429645717
1772025004972394200,2.836394287109375,-6.103076052325964,-3.8460347916722295,2.231128528501093
1772025004982391000,2.84639111328125,-4.005366690972447,-2.7019822456926104,1.8403315138429401
1772025004992388400,2.856388427734375,-2.216082058277726,-1.300036303895712,1.3566566012620924
1772025005002385200,2.86638525390625,-0.6338052682936192,-0.0733902303814888,0.8485947047911584
1772025005012382000,2.8763818359375,0.5420972909331322,0.5485387221574783,0.27741154982829463
1772025005022379300,2.886379150390625,1.3026941249281168,0.9197188899368047,-0.15438443296067417
1772025005032376000,2.8963759765625,1.6715011338353156,1.5246937850654125,-0.3425049121107906
1772025005042373000,2.906373046875,2.0396657531857487,2.0645681392520663,-0.6957679496012628
1772025005052371000,2.916370849609375,2.4149019183576104,2.256127068418264,-1.0313460581235587
1772025005062368300,2.9263681640625,3.0201749196499583,2.3446757049649953,-1.018064844007045
1772025005072365000,2.936364990234375,3.837018541523814,2.366769463351369,-0.8673408332500606
1772025005082362000,2.946362060546875,4.965178521844744,2.3081100613728163,-0.37033049214743075
1772025005092359200,2.956359130859375,6.243327988103032,2.365263734963536,0.6551840102784335
1772025005102356200,2.966356201171875,6.8227055006384845,2.39105956273824,1.2746696613185107
1772025005112353000,2.97635302734375,6.273545431712269,2.2794538757309315,0.8918127920098602
1772025005122350300,2.986350341796875,5.973682779693603,1.9437468801319597,-0.12714779526051134
1772025005132347100,2.99634716796875,6.068661157026886,1.9636749849170445,-0.8996491847239434
1772025005142344200,3.00634423828125,6.274472483429312,2.4281100672379137,-0.8819096029590815
1772025005152341200,3.01634130859375,6.329779360109567,2.757916898882389,-0.6144368432179093
1772025005162338300,3.02633837890625,6.221694248443842,3.037902884042263,-0.5129649756794795
1772025005172335000,3.036335205078125,6.138550101289153,3.3849083955079315,-0.6441868885111063
1772025005182332200,3.046332275390625,6.280457987579703,3.4944653332918882,-0.7412421451836824
1772025005192329200,3.0563291015625,6.397586821922659,3.598206278273463,-0.8659149651654064
1772025005202327300,3.066327392578125,6.290716931265592,3.825917886316776,-1.0619699636418372
1772025005212324000,3.076323974609375,5.495933165508508,3.840413444659114,-1.313409872470796
1772025005222321200,3.086321044921875,5.237449402582645,3.704140933907032,-1.4267856378905475
1772025005232318200,3.096318115234375,5.483537794315815,3.7652579581707712,-1.628106082614511
1772025005242315000,3.10631494140625,5.345851325112581,3.8330169046670197,-2.139224736307561
1772025005252312000,3.11631201171875,3.964795611131191,3.6018963649630544,-2.588145730893314
1772025005262309000,3.12630908203125,1.1447767686009407,3.026415859866142,-2.3945896365605295
1772025005272306200,3.13630615234375,-0.5921417170405388,1.9844307726979256,-1.7488780957654118
1772025005282303000,3.146302978515625,-0.6389420466601848,0.7380974174171686,-1.3619658135861157
1772025005292300300,3.15630029296875,-0.9043483023256063,-0.6938111164450645,-1.1945373362656682
1772025005302297000,3.166297119140625,-1.5964216351926326,-3.062776044014096,-1.0187040186934173
1772025005312294100,3.176294189453125,-3.158868520069122,-6.53766632374227,-0.23328823913186786
1772025005322291200,3.186291259765625,-6.701621206668019,-9.046745824444294,0.8241386011876165
1772025005332288000,3.1962880859375,-11.673023717594146,-9.116174165457487,1.5535320492759346
1772025005342285000,3.20628515625,-13.701875815820694,-9.629618777880072,3.107256406253576
1772025005352282000,3.2162822265625,-12.866811477601527,-8.137420318228006,3.1876991854950782
1772025005362280200,3.2262802734375,-11.782469596219062,-5.466305504485964,1.464388515575975
1772025005372277000,3.236277099609375,-10.985441266405582,-5.854954108938575,1.1424275020610541
1772025005382274000,3.246274169921875,-11.063515855211019,-6.8868070936709636,1.949474025607109
1772025005392271000,3.25627099609375,-10.190458763206005,-6.687544750520587,2.8930370247289536
1772025005402268200,3.26626806640625,-8.197220414674282,-6.5101686604857445,3.4831145027160644
1772025005412265000,3.276264892578125,-7.133835981124639,-6.135420571091771,3.5743376191690563
1772025005422262300,3.28626220703125,-6.398646560108661,-5.299840100044012,3.228849526529014
1772025005432259000,3.296259033203125,-4.759611525592208,-4.483050254184008,2.752911345680058
1772025005442256100,3.306256103515625,-2.809191159045696,-3.3157518571734426,2.19112545780614
1772025005452253200,3.316253173828125,-1.1572218241542578,-1.841279023826122,1.4562481714792548
1772025005462250200,3.326250244140625,0.017152210330963133,-0.472394809153676,0.4646209968144074
1772025005472247000,3.3362470703125,0.8249953641474247,0.5716314284533262,-0.6757425949867815
1772025005482244400,3.346244384765625,1.371143391776085,1.4710843599528074,-1.3542568466439842
1772025005492241200,3.3562412109375,1.9869757810056208,2.1759885328203437,-1.7657310308888554
1772025005502241500,3.366241455078125,2.673834594094753,2.479952774938941,-1.3943101862214504
1772025005512239600,3.376239501953125,3.637653322520852,2.5850690999269483,-0.529788428980112
1772025005522236700,3.386236572265625,4.7481864607363935,2.7831828575640913,0.27537929508201775
1772025005532233700,3.396233642578125,5.559001323840022,2.8284114078223705,0.7532597691051661
1772025005542230500,3.40623046875,6.171034905308485,2.8566584281414746,0.9387531146220862
1772025005552227800,3.416227783203125,6.634072103530168,3.0097400348752736,1.0193770956493913
1772025005562224600,3.426224609375,7.075033079022169,2.81052620704174,0.9628472530454396
1772025005572221700,3.4362216796875,7.1794491467863315,2.118986542659998,0.5957368919882923
1772025005582218800,3.44621875,6.7406129083633415,2.0561258895993233,0.3175556546954438
1772025005592215600,3.456215576171875,7.436072961059212,2.294299854946136,0.38174017677102234
1772025005602212600,3.466212646484375,7.347655257415771,2.6836943093299865,0.20914878199575468
1772025005612209700,3.476209716796875,7.18504652840197,2.8469197089374063,-0.11710854047359898
1772025005622206700,3.486206787109375,7.3447040063947435,3.015205314543843,-0.08380505874883383
1772025005632203500,3.49620361328125,7.341308518737554,3.166557905527949,0.1248809280407615
1772025005642200800,3.506200927734375,7.189764789095521,3.38366161031723,0.33694925074502824
1772025005652197600,3.51619775390625,7.066169389086961,3.709719026300311,0.49627921381648626
1772025005662194700,3.526194580078125,7.247943421819806,4.0976100903838875,0.5488517336294054
1772025005672192500,3.536192626953125,7.484180866146088,4.395043469429016,0.15524181697499007
1772025005682189800,3.54618994140625,7.32749685100615,4.402960233902931,-0.5882821920681744
1772025005692186600,3.5561865234375,6.606777269369363,4.218164807522297,-0.9059261461015791
1772025005702183700,3.56618359375,5.723918914318085,3.6511405806034802,-0.8380383125286549
1772025005712180700,3.5761806640625,5.094940627789497,3.2027088308393954,-1.0311519968561829
1772025005722177800,3.586177734375,4.375802762386202,3.611259821113944,-1.8070618430562315
1772025005732174600,3.596174560546875,3.5151305201798677,4.034279481723904,-2.6829087119102475
1772025005742171600,3.606171630859375,2.4527824439406394,3.819733644723892,-3.6341608042299747
1772025005752168700,3.616168701171875,0.7808604543447494,2.675110020858049,-3.664066989932954
1772025005762165500,3.62616552734375,-0.9600240123182534,0.12028583706915377,-1.8812655817776918
1772025005772162600,3.63616259765625,-4.467186914619803,-4.52114763738811,0.21134178026169537
1772025005782159600,3.64615966796875,-6.448991430467367,-8.484782972568272,1.6178168899208307
1772025005792156700,3.65615673828125,-9.644868369460106,-9.602271336749196,1.5833450037375092
1772025005802153500,3.666153564453125,-13.718092791128157,-9.990167661529778,2.4209724704429507
1772025005812150800,3.67615087890625,-14.176654889762402,-7.404063373336196,1.4565936239160597
1772025005822147600,3.686147705078125,-12.574774989163874,-2.9157980148524043,-1.7473510323286054
1772025005832145700,3.696145751953125,-10.735272911882399,-2.67895091419518,-2.5234654611900447
1772025005842142500,3.706142578125,-9.954960739070177,-3.919714360389113,-1.2664208884112536
1772025005852139800,3.716139892578125,-9.750984811401366,-3.9882232484698292,0.631367446687445
1772025005862136600,3.726136474609375,-9.053003131273389,-4.407587601442635,2.2721543663725257
1772025005872133600,3.736133544921875,-8.806030942443012,-4.848497431269288,2.749548006726801
1772025005882130700,3.746130615234375,-7.927548902779817,-4.397514535717666,2.7715792212709784
1772025005892127700,3.756127685546875,-5.998918343237042,-3.7465593951806424,2.736855406153202
1772025005902124500,3.76612451171875,-4.029869264066219,-2.8818232645362616,2.1297218716859816
1772025005912121600,3.77612158203125,-2.235662957060337,-1.6345181416139005,1.051958199650049
1772025005922118700,3.78611865234375,-0.7797609686702489,-0.5085469035089015,0.07231167789716274
1772025005932115500,3.796115478515625,0.6220826817959547,0.1719227930650115,-0.7100704695895314
1772025005942112800,3.80611279296875,1.987617001518607,0.5741206149205565,-1.486896553851664
1772025005952109600,3.816109619140625,2.712541049107909,1.0887804483518004,-2.343999413138628
1772025005962106600,3.826106689453125,3.166079182100296,1.588078462000191,-2.824320631377399
1772025005972103700,3.836103759765625,3.8528327812492846,1.7050222951650618,-2.6756965885743496
1772025005982100700,3.846100830078125,4.60535210725069,1.4220543715849518,-1.8901044295325875
1772025005992098600,3.8560986328125,5.002779061442613,1.0571809027343988,-0.7871723409052938
1772025006002095600,3.866095703125,5.079456642931699,0.9142594554871321,0.17453180651962755
1772025006012092700,3.8760927734375,5.050412919276952,0.8789631011784076,0.8008831786107271
1772025006022089700,3.88608984375,5.10789713999629,0.7805696547046304,1.0994399356625975
1772025006032086500,3.89608642578125,5.3003053794682025,0.7536410235077142,1.1232637327119708
1772025006042083800,3.906083740234375,5.597657509970665,0.834528623907268,0.9659154815096408
1772025006052080600,3.91608056640625,5.647806565496325,0.9305123788908124,0.8183404363028705
1772025006062077400,3.926077392578125,5.648089474090933,1.1286901416748762,0.7017055229566991
1772025006072074800,3.93607470703125,5.712677973857522,1.4796680639028548,0.5965943125352263
1772025006082071600,3.946071533203125,5.955512332230806,1.827196722459793,0.5061044422602281
1772025006092068600,3.956068603515625,6.183570561754703,2.121192528271675,0.4318395479360595
1772025006102065700,3.966065673828125,6.608428543707728,2.4988103278830645,0.43771172790508717
1772025006112062700,3.976062744140625,6.742869747379422,2.9627228476345535,0.9013860915191471
1772025006122059500,3.9860595703125,6.737678023955225,3.0423104713514446,1.179386163558811
1772025006132056800,3.996056884765625,6.6776674996286625,2.85917567165941,1.2352236399844287
1772025006142053600,4.0060537109375,6.340223012712597,2.6738787254974246,1.2414017440974712
1772025006152051700,4.0160517578125,5.7925300937294955,2.4232687646865845,1.105961592516303
1772025006162048500,4.026048583984375,5.159117624145746,2.091374897634983,0.9708686469376087
1772025006172045800,4.0360458984375,4.29719684318304,1.947127754741907,0.5564222419489174
1772025006182042600,4.046042724609375,3.4700931085795164,2.066177912536263,0.06204464223636314
1772025006192039700,4.056039794921875,2.9912656360298393,1.144082356595993,-1.865950669876486
1772025006202036700,4.06603662109375,0.7592237920761108,-1.0338093794971703,-3.877082840886712
1772025006212033800,4.07603369140625,-5.1556023095011705,-3.169942871791124,-3.2841230854615566
1772025006222030600,4.086030517578125,-9.045738108706473,-5.019173146882653,-1.7807688794143497
1772025006232027600,4.096027587890625,-7.292850485038757,-6.725050597572326,0.0005910612283274531
1772025006242024700,4.106024658203125,-8.753475994819402,-7.290157592692971,1.2686832803852854
1772025006252021500,4.116021484375,-12.36832653390169,-7.48382138518393,1.4855441163294016
1772025006262018600,4.1260185546875,-12.621113546490669,-6.973382968840003,1.7963412732079624
1772025006272015600,4.136015625,-10.761132160282134,-4.228766281035543,1.004225922942534
1772025006282012700,4.1460126953125,-9.604399580949543,-2.7990836065292357,-0.007785831570625305
1772025006292009500,4.156009521484375,-9.63999345690012,-3.707649234288931,-0.08329758415073156
1772025006302007600,4.166007568359375,-9.82336031178236,-4.6658097908228635,0.8488979255214333
1772025006312004600,4.176004638671875,-9.247337370371818,-4.973275903582572,1.6885628894038498
1772025006322001700,4.186001708984375,-9.168675921589136,-4.604278048278391,2.0900342966809866
1772025006331998500,4.19599853515625,-8.452659403076767,-3.852666192510724,2.4743308434039353
1772025006341995800,4.205995849609375,-6.363855232712626,-3.137253192849457,2.5524744057923554
1772025006351992600,4.21599267578125,-4.406722801306843,-2.0774565546587107,1.963424225026369
1772025006361989600,4.22598974609375,-2.8758956280529495,-0.6115285545557737,1.1447956924971192
1772025006371986700,4.235986572265625,-1.5317477952301501,0.7467030409380793,0.5337006339877843
1772025006381983700,4.245983642578125,-0.4348375241756439,1.5005217591002582,-0.19234080025888978
1772025006391980500,4.25598046875,0.42617724785804745,1.8220187353000044,-0.979169150032103
1772025006401977600,4.2659775390625,1.367595928427577,2.189089714194834,-1.313233054599166
1772025006411974700,4.275974609375,2.277484913745522,2.4610610274642704,-1.2705606185644864
1772025006421971500,4.285971435546875,3.227586666986346,2.3689202116444705,-0.9061528675295412
1772025006431968800,4.29596875,3.9989387037515636,2.1295932768702506,-0.35755174766033887
1772025006441965600,4.305965576171875,4.468417333197594,1.9595380312427877,0.1841466070830822
1772025006451962600,4.315962646484375,4.813386954921484,1.898022363050282,0.4364848529912531
1772025006461960400,4.32596044921875,4.950376674032211,1.8139672385305166,0.5210710156477988
1772025006471957800,4.335957763671875,5.1532057697534555,1.7177274629592894,0.5346249092258513
1772025006481954600,4.34595458984375,5.384005406939983,1.6096894053056836,0.4790931377485394
1772025006491951600,4.35595166015625,5.359986817970872,1.482245220914483,0.33328166814818977
1772025006501945900,4.36594580078125,5.550214206272363,1.4756763639181851,0.14708382762372493
1772025006511942700,4.375942626953125,5.721507761523127,1.7190329925999044,0.036070991943031545
1772025006521939700,4.385939697265625,5.867563415142893,2.148632616122067,-0.202790005819872
1772025006531936800,4.395936767578125,6.061148297178745,2.572625213417411,-0.5895240088228136
1772025006541933800,4.405933837890625,6.044601651525497,2.870576186595857,-0.7775553483847528
1772025006551930600,4.4159306640625,6.215052910733222,2.993974310466647,-1.00210703109242
1772025006561927700,4.425927734375,6.4142848587453365,3.175968707951903,-1.3449895443439484
1772025006571924700,4.4359248046875,6.4644514499276875,3.456890512657165,-1.5250523892447352
1772025006581921500,4.445921630859375,6.285666077616811,3.5536505127102136,-1.499373465847969
1772025006591918600,4.455918701171875,5.867589718627929,3.4283722741812466,-1.7177444140940903
1772025006601915600,4.46591552734375,5.721721112012863,3.5516765822887417,-1.9220166943609713
1772025006611912700,4.47591259765625,5.765593571487069,3.7695308131843803,-1.8738770789615808
1772025006621909500,4.485909423828125,5.4932244910717,3.8037627531319855,-1.659285356993228
1772025006631907600,4.495907470703125,4.793526654675603,3.572743920236826,-1.7736489644065498
1772025006641904600,4.505904541015625,3.5782834341853853,2.867944376787543,-2.1814181566536424
1772025006651901700,4.515901611328125,1.573419529789686,1.513665026050806,-2.381491231665015
1772025006661898500,4.5258984375,-0.26185236257612704,-0.47641047453582286,-2.605187758848071
1772025006671895800,4.535895751953125,-2.133934520944953,-2.792196185103059,-2.028662128612399
1772025006681892600,4.545892578125,-3.1305975343525407,-5.988654723376035,0.19107216856256126
1772025006691889700,4.5558896484375,-5.6587453081399195,-9.303627997392416,1.6705173834949731
1772025006701886700,4.56588671875,-9.648069211328028,-10.146858106410503,1.7034626446329055
1772025006711883800,4.5758837890625,-11.44878709218502,-9.837412218010424,2.611025378960371
1772025006721880600,4.585880615234375,-11.76665827910304,-8.261881979677081,2.656637960100174
1772025006731877600,4.595877685546875,-11.44186752205491,-4.501556801733375,0.8498670628145336
1772025006741874700,4.605874755859375,-10.365623606932163,-4.2383962791681284,0.6485555320493877
1772025006751871500,4.61587158203125,-9.759871882212162,-5.279554267862439,1.4183745140284298
1772025006761868800,4.625868896484375,-8.837883878299593,-4.672841589155793,2.4641630851328373
1772025006771865600,4.635865478515625,-7.866262951689958,-4.391205206440389,3.540495555321872
1772025006781862700,4.645862548828125,-7.708281297954916,-4.103410301095247,4.010495870554447
1772025006791860500,4.655860595703125,-6.827265940421819,-3.199040955981612,3.946754927527904
1772025006801857800,4.66585791015625,-5.143142056378722,-2.2313097302868963,3.2012668153375383
1772025006811854600,4.6758544921875,-3.1170202598989007,-0.9514251107990741,2.161998585912585
1772025006821851600,4.6858515625,-1.0461334390193224,0.5174918419867753,0.9319986719258129
1772025006831848700,4.6958486328125,0.3035638446241617,1.7468077192321418,-0.2027805073391646
1772025006841845800,4.705845703125,1.0923165135234594,2.578229024773836,-0.8900981701117009
1772025006851842600,4.715842529296875,1.5589987902492284,3.039565556557476,-1.1730251040942967
1772025006861840000,4.72583984375,2.006341575732827,3.2860897093594073,-1.3265567926831543
1772025006871836700,4.735836669921875,2.563036716338992,3.3501576923832297,-1.1507873341273516
1772025006881833700,4.745833740234375,3.2275556873261926,3.1045977084383365,-0.6353803355906158
1772025006891830800,4.755830810546875,3.9256466730475426,2.6878192803055048,-0.047938978260755535
1772025006901827600,4.76582763671875,4.700241052734851,2.3063699397072193,0.32594051160514353
1772025006911824600,4.77582470703125,5.2278679197669025,2.0454595341563224,0.15967793625891208
1772025006921821700,4.78582177734375,5.7006344848424195,1.9934633894592522,-0.5016628430835902
1772025006931818800,4.79581884765625,5.673548324996233,2.102972980970144,-0.9725674136795103
1772025006941815600,4.805815673828125,5.391816957473755,1.982490160024166,-0.588613689044863
1772025006951813600,4.815813720703125,5.2311126007765525,1.850744479046762,0.0020040332987904547
1772025006961810700,4.825810791015625,5.065165082728862,2.0833751310527324,0.2971701980642974
1772025006971807700,4.835807861328125,5.2523851059079165,2.353613921441138,0.2876876455783844
1772025006981804500,4.845804443359375,5.572195151934027,2.4920237364828584,0.08158201240450143
1772025006991801900,4.8558017578125,5.924125844842195,2.623949450202286,-0.23333120149075984
1772025007001798700,4.865798583984375,6.2468473944008345,2.7782237738519906,-0.584410465201363
1772025007011795700,4.875795654296875,6.430553856500983,2.965965775078535,-0.7505700185645371
1772025007021792800,4.885792724609375,6.53365650357902,3.0926252388328312,-0.8773109500572085
1772025007031789800,4.895789794921875,6.56070057784915,2.99549757451117,-0.9624501434866338
1772025007041786600,4.90578662109375,6.210163385125995,3.105281306788325,-0.7096648113980889
1772025007051783700,4.91578369140625,5.710243440186977,3.254094734683633,-0.7475747092060744
1772025007061780700,4.92578076171875,5.232364646664261,3.3045395582854744,-1.0755082212593405
1772025007071777500,4.935777587890625,4.8089708920449015,3.077030779337883,-1.4526745507761836
1772025007081774600,4.945774658203125,3.8660388843029736,2.671668355971575,-2.201399160669744
1772025007091771600,4.955771728515625,2.1275854441791773,1.9758985066741703,-2.674286429515481
1772025007101768700,4.965768798828125,1.6245307083457707,-0.3247872499167919,-2.2307807379767297
1772025007111766500,4.9757666015625,1.079232575544715,-1.4708815308570862,-2.23528900918141
1772025007121763600,4.985763671875,-1.0291261901170015,-2.05639243158102,-1.659773286640644
1772025007131760600,4.9957607421875,-1.9678028785020112,-5.068868613421917,0.49040918927192684
1772025007141757700,5.0057578125,-4.640962349814176,-8.276572768330574,1.7993100598856806
1772025007151754500,5.01575439453125,-8.484356271588801,-8.71806098256707,1.8299859147869049
1772025007161751800,5.025751708984375,-11.068784735524654,-8.825603073397279,2.3195319113582373
1772025007171748600,5.03574853515625,-12.0366360804677,-8.286563416469097,2.862664975079894
1772025007181745700,5.04574560546875,-11.395749914002417,-4.761804067200422,1.343762925158441
1772025007191742700,5.05574267578125,-9.717965169852972,-3.8933272887229915,-0.26281200138852
1772025007201739800,5.06573974609375,-7.301424836638569,-5.425493601626157,0.32823329871743917
1772025007211736600,5.075736572265625,-6.9016603794097895,-5.70516628305316,1.844067485500872
1772025007221733600,5.085733642578125,-8.073698664423823,-5.384430938875675,3.0233173093289136
1772025007231730700,5.095730712890625,-8.89013019836545,-5.295004934972524,4.242525634057819
1772025007241727500,5.1057275390625,-8.74422768948078,-4.975043497776985,4.493528393578529
1772025007251724800,5.115724853515625,-6.80729165840745,-4.3979766002714635,3.996692386129498
1772025007261721600,5.1257216796875,-4.191492489174008,-2.97116889667958,2.9241289130851627
1772025007271719700,5.1357197265625,-1.7247528315514324,-1.1954320200830697,1.510246157518029
1772025007281716500,5.145716552734375,-0.2768541168749332,0.03154313925504684,-0.32038021059688176
1772025007291713800,5.1557138671875,0.5889239240378141,0.9035951458707451,-2.27247205401957
1772025007301710600,5.165710693359375,1.2731821992397307,1.577933207821846,-3.124276806898415
1772025007311707600,5.175707763671875,1.880110566523671,1.7943518529564142,-2.9850717498257753
1772025007321704700,5.18570458984375,2.6424457686185834,1.6687191019013523,-2.2812417820610102
1772025007331701800,5.19570166015625,3.4216152011364698,1.8460981145456432,-0.6429568352594971
1772025007341698600,5.205698486328125,3.9791035379469393,2.094135009998083,1.0066869792938231
1772025007351696000,5.21569580078125,4.310555506449938,2.0163225792601702,1.8653136871472
1772025007361692700,5.225692626953125,4.380980457285046,1.9213836571544407,1.9743433861866593
1772025007371689700,5.235689697265625,4.698247248569131,1.9718901478156445,1.714689556568116
1772025007381686800,5.245686767578125,4.824997897738218,2.236780270652473,1.3512168944261966
1772025007391683600,5.25568359375,4.82163689687252,2.486609017957747,0.8448651628740131
1772025007401680600,5.2656806640625,4.952067111337184,2.6438126730576155,0.31310525115784255
1772025007411677700,5.275677734375,5.337694906663894,2.79285581805557,-0.26677999170403927
1772025007421674800,5.2856748046875,5.62767446257174,2.920360208201408,-0.466175934638828
1772025007431672600,5.295672607421875,5.765490695634484,2.898577999982238,-0.1846683659348637
1772025007441669600,5.305669677734375,5.8313733268648384,2.8878336108669638,0.08894801112785936
1772025007451666700,5.315666748046875,5.958970948252081,3.0542373482495546,0.280664249747619
1772025007461663700,5.325663818359375,6.076818159997463,3.3168338071912524,0.39374596412423996
1772025007471658800,5.33565869140625,6.231589619514346,3.5810429620265958,0.28655802049394696
1772025007481655600,5.345655517578125,6.587613134694099,3.8377503629297016,0.04490088920649141
1772025007491652600,5.355652587890625,6.713024644213914,4.06729853875041,-0.33964141243845225
1772025007501653000,5.365653076171875,6.671334789475798,4.329076082524657,-0.812048277356103
1772025007511649800,5.37564990234375,6.4910150472044945,4.507086963331699,-0.9535934678141027
1772025007521647000,5.385647216796875,6.210670165604353,4.415086725026369,-1.392202838678658
1772025007531644000,5.395643798828125,5.761361048483848,4.236750265526771,-1.7305878213152288
1772025007541641000,5.405640869140625,5.522470459300279,3.7708494945675133,-1.7701858183406292
1772025007551637800,5.4156376953125,4.709648348027468,2.910196541583538,-1.736216182591021
1772025007561634800,5.425634765625,2.8658436051160097,1.7389830169558524,-1.2897121860191225
1772025007571633000,5.4356328125,0.5883879174649715,-0.4127040183007717,-0.7227008916471153
1772025007581630000,5.4456298828125,-2.839579867568612,-4.003326125055551,0.026633228446915746
1772025007591627000,5.455626953125,-6.514477755856514,-8.024610516127943,0.6113475719656795
1772025007601623800,5.465623779296875,-8.703494697076081,-9.168927850523591,0.07754230855964124
1772025007611620900,5.475620849609375,-11.092976927495002,-8.42134072022736,-0.22890932992789892
1772025007621618000,5.485617919921875,-12.869413769054413,-8.7916189707309,-0.06633395519442856
1772025007631615000,5.495614990234375,-12.392717463314533,-5.116127208203077,-1.8657352735601365
1772025007641611800,5.50561181640625,-10.592605147135258,-2.5277982296973467,-2.467654434379935
1772025007651608800,5.51560888671875,-9.678750765317679,-4.752236028388142,-0.9129421623434871
1772025007661606000,5.52560595703125,-9.512951715829967,-6.307936946135759,1.6105967294089496
1772025007671603000,5.53560302734375,-8.314497717577218,-6.602926439160108,4.010426896971464
1772025007681599700,5.545599853515625,-7.920991736221313,-7.130474980258941,5.241880663028359
1772025007691597000,5.55559716796875,-8.043613907283545,-6.7805906984865665,5.146864876294136
1772025007701593900,5.56559375,-6.8636091734349725,-5.570315329536795,4.274973613198101
1772025007711591000,5.5755908203125,-5.178510891401768,-3.878481601768732,2.664763106627762
1772025007721588000,5.585587890625,-3.1591742250174284,-1.9591145451337098,0.9287014570113271
1772025007731586000,5.5955859375,-1.4177783017009495,0.21512626723647116,-0.5939199787594378
1772025007741582800,5.605582763671875,-0.18179624456465243,1.9028700953423976,-1.8366998793423175
1772025007751580000,5.615579833984375,0.8790881888628006,2.526458505526185,-2.556451200468838
1772025007761577000,5.625576904296875,1.528589038938284,2.610114693856239,-2.2855095225080846
1772025007771573800,5.63557373046875,2.232339365595579,2.6132646823197603,-1.4278518058173357
1772025007781570800,5.64557080078125,3.07181392147243,2.4933278048187493,-0.6954949048135429
1772025007791568000,5.65556787109375,3.8950352616846557,2.1792367209613324,-0.09663535076007246
1772025007801565000,5.66556494140625,4.683525480255485,1.9063827796384691,0.43742684654910113
1772025007811561700,5.675561767578125,5.1130888634204865,1.8815254017576575,0.7236592883504926
1772025007821559000,5.68555908203125,5.257663923093676,2.0387571139082312,0.8314280275434255
1772025007831555800,5.695555908203125,5.4276084018230435,2.1135411367356776,0.8784435342837125
1772025007841553000,5.705552978515625,5.551923348277807,2.1775991828873753,0.6746091339774429
1772025007851550000,5.715550048828125,5.514857646209001,2.3415923519968986,0.4336709280816838
1772025007861547000,5.725547119140625,5.539228701877594,2.611498841691017,0.169533011851646
1772025007871543800,5.735543701171875,5.69416265847981,2.9614287161707877,-0.21542349661737678
1772025007881540900,5.745540771484375,5.75108047748804,3.3838191389665004,-0.4618329369984567
1772025007891539000,5.7555390625,5.800800493946671,3.7363346460252997,-0.5257624248670414
1772025007901536000,5.765535888671875,6.03724719710946,3.8895080226957797,-0.5015626341121271
1772025007911532800,5.77553271484375,6.248567057800293,3.9286248120754954,-0.33916634227260944
1772025007921529900,5.78552978515625,6.26209289432764,3.912317820397019,-0.15379987453836946
1772025007931527000,5.79552685546875,6.421832789906859,3.9584009416580197,-0.04194686170648783
1772025007941523700,5.805523681640625,6.65758625010848,4.156095012578368,-0.08630973504614084
1772025007951521000,5.81552099609375,6.5357110980212685,4.250996233022213,-0.23507055597137658
1772025007961517800,5.825517822265625,6.092299806767702,4.030367861238122,-0.21858415260538458
1772025007971515000,5.835514892578125,5.334395280596613,3.5317741964668032,-0.23301409836560485
1772025007981512000,5.845511962890625,4.693357138440013,2.9015643223166463,-0.3969316084230318
1772025007991509000,5.855509033203125,3.9131677152246236,2.3367992725014686,-0.5918830661043525
1772025008001505800,5.865505859375,3.0525492490321398,1.8356763815134762,-0.37688634353168304
1772025008011503000,5.875503173828125,1.929139678108692,0.4782464577913284,-0.6287764803461731
1772025008021500000,5.8855,0.5269248562425375,-1.6909844174623487,-1.192218684059754
1772025008031497000,5.8954970703125,-1.0914181033790111,-4.357051300165057,-1.092532932753116
1772025008041494000,5.905493896484375,-3.672008596587181,-7.245703533938527,-0.8341084987990558
1772025008051492000,5.9154921875,-6.242927590608597,-8.686013985443115,-0.8003308054249734
1772025008061489000,5.925489013671875,-8.560950850969553,-9.261337254151702,-0.880554681218788
1772025008071486000,5.93548583984375,-10.657940665876865,-9.809396083837747,0.06097454705312848
1772025008081483000,5.94548291015625,-11.992881109893322,-7.843968702295422,0.30467465541027483
1772025008091479800,5.955479736328125,-11.725102279877662,-5.924110062751174,-0.773615597783029
1772025008101476900,5.965476806640625,-9.363929029098152,-5.762705448830127,-1.5253319368384777
1772025008111474000,5.975473876953125,-7.702299300935864,-6.039651920163631,-1.576366689157486
1772025008121472000,5.985471923828125,-7.297597387304902,-5.8084477938294405,-0.42295287898406386
1772025008131468800,5.99546875,-7.522019306153059,-5.099623817169666,1.6802951195351779
1772025008141465900,6.0054658203125,-8.735357569804787,-3.7082279109597205,3.6152649651020763
1772025008151463000,6.015462890625,-8.875501953554153,-1.761818825881183,5.024890355485677
1772025008161460000,6.0254599609375,-7.319100778582691,-0.5863558271154761,4.484404883663356
1772025008171456800,6.035456787109375,-4.8202381359905,-0.0931008930236101,2.5330887373208997
1772025008181453800,6.045453857421875,-2.2585376366913317,0.8217173653900622,1.2749357649087905
1772025008191451000,6.055450927734375,-0.5122773222088813,1.8991537051677703,0.69547934191823
1772025008201448000,6.065447998046875,0.6897568726181984,2.660907307982445,0.2549184716597199
1772025008211444700,6.07544482421875,1.6982769125580786,2.747410994698107,0.16844905253984033
1772025008221442000,6.085442138671875,1.9975848533034324,2.431238428391516,0.22161657910384236
1772025008231438800,6.09543896484375,2.1403134083271027,2.2400696675866842,0.16732384790219365
1772025008241436000,6.105435791015625,2.7335066802471872,2.0305504265770313,0.19434074190445244
1772025008251433000,6.115432861328125,3.4966017607986926,1.6687427750378847,0.34748357730619606
1772025008261429800,6.1254296875,3.871176247191429,1.3739558188483119,0.5628065361585468
1772025008271426800,6.1354267578125,3.8950808543920514,1.3147343990728257,0.9225159733094275
1772025008281425000,6.1454248046875,4.182291530108452,1.4402002691283822,1.0341901955083013
1772025008291422000,6.155421875,4.580218250516057,1.6635937217116354,0.5285629788383841
1772025008301418800,6.165418701171875,4.706761394414305,2.0325529985710977,-0.09761267135962844
1772025008311415800,6.175415771484375,4.720111289852857,2.7037656219780444,-0.42527394234277305
1772025008321412900,6.185412841796875,4.85254056918025,3.306628054997325,-0.31147637131437655
1772025008331410000,6.195409912109375,4.775096094971895,3.677685180918872,0.043965690715610975
1772025008341406700,6.20540673828125,4.759242107757926,3.8785385926529763,0.11653846723437308
1772025008351404000,6.215404052734375,5.124954073259234,3.9417748010277744,0.01774118920005858
1772025008361400800,6.22540087890625,5.48181287021935,4.032350559487939,-0.18202201614454389
1772025008371398000,6.23539794921875,6.031922787216305,4.261735069179535,-0.327663828266412
1772025008381395000,6.24539501953125,7.2192539184302085,5.0483822902321815,0.31478432681858537
1772025008391392000,6.25539208984375,7.077018115359544,4.677773200339079,-1.8390216002881525
1772025008401388800,6.265388916015625,6.269477159360051,4.304606242656708,-4.316048550908267
1772025008411385900,6.2753857421875,5.0110214046090835,4.280266751170158,-5.8570595567852255
1772025008421383000,6.2853828125,4.262523004686832,4.154498683297634,-5.326836243519186
1772025008431379700,6.295379638671875,4.454285931992531,3.9608401515036817,-3.739327398100495
1772025008441377800,6.305377685546875,4.2827807798177,4.213538316765427,-2.3083796720944343
1772025008451375000,6.315375,3.4467373674333093,4.232051878577471,-1.6115547607861458
1772025008461372000,6.325371826171875,2.5955378869712353,3.218782598283887,-2.2874606565758584
1772025008471368700,6.33536865234375,1.2218255214899778,0.8059259220182895,-3.0701825208783147
1772025008481366000,6.345365966796875,-0.2519236737579107,-3.270034062093496,-2.0345978022716937
1772025008491362800,6.35536279296875,-2.2371382903099057,-8.165403134652971,0.9326485141366719
1772025008501356000,6.36535595703125,-4.2940258119314905,-11.358318301230668,5.3880035366654395
1772025008511353300,6.375353271484375,-7.130223635846376,-10.582968719261885,6.686651016551256
1772025008521350100,6.38535009765625,-8.219775945353508,-8.768216467833518,3.852305834765732
1772025008531347200,6.39534716796875,-6.4048565206646915,-6.410277376669645,0.016355945386737583
1772025008541344300,6.40534423828125,-6.030685354375839,-5.356926261356473,-1.6917602241404353
1772025008551341300,6.41534130859375,-6.110169225457311,-6.64027855695486,0.45473450317010283
1772025008561338000,6.425338134765625,-5.572744602510332,-7.3333221961587665,3.670484163498878
1772025008571335200,6.435335205078125,-5.208399249187112,-7.468468333229422,5.164184259885549
1772025008581332200,6.445332275390625,-5.52707473822534,-7.838051002684235,4.85972083607316
1772025008591329000,6.4553291015625,-5.575479580432177,-7.188575871571898,4.284453096944094
1772025008601326300,6.465326416015625,-5.083296367225051,-6.129108903726935,3.689677524268627
1772025008611324200,6.47532421875,-4.694442011067271,-4.838063715538382,2.6268428335562346
1772025008621321200,6.4853212890625,-4.592714743995666,-3.016656097874045,1.546236485440284
1772025008631318000,6.495318115234375,-4.3116690206497905,-1.332740888145566,0.44834765167720614
1772025008641315300,6.5053154296875,-1.6864713239520788,-0.4838064300060272,-0.9764642749875784
1772025008651312000,6.51531201171875,1.001530327183008,0.5673062587305903,-3.056803983867168
1772025008661309200,6.52530908203125,0.7962047384709119,2.5700351969242092,-4.2100802852660415
1772025008671306200,6.53530615234375,0.9155494952976703,3.8281174421876667,-3.708299807152152
1772025008681303300,6.54530322265625,1.2772241681069134,3.9166032426312563,-1.8438363070935009
1772025008691300000,6.555300048828125,1.4816022468358276,3.554983222618699,0.1080601233549416
1772025008701297400,6.56529736328125,1.9563678767740724,3.0465090920850635,1.3635592202574014
1772025008711294200,6.575294189453125,2.6741169181674715,2.582102359075844,1.7601659441076218
1772025008721291000,6.585291015625,3.238237824860215,2.2844684890225526,1.5509310729973018
1772025008731288300,6.595288330078125,3.571422316244244,2.0497326814308763,1.1544238639988005
1772025008741285000,6.60528515625,3.9405361991435286,1.7712842811018228,0.49014790798723695
1772025008751282200,6.6152822265625,4.359641901180148,1.645188880971074,-0.5172198931775986
1772025008761279200,6.625279296875,4.367068251788616,1.9040972990497946,-1.4799140014879404
1772025008771277300,6.63527734375,4.370609869918227,2.361084111191332,-2.0485965170077978
1772025008781274000,6.645274169921875,4.725768877223134,2.839208696168661,-1.8547050532408058
1772025008791271200,6.655271240234375,5.04116753654778,3.3107278915315863,-1.5764717569671571
1772025008801268200,6.665268310546875,5.262724129092693,3.7044963232159613,-1.4083148923069237
1772025008811265300,6.675265380859375,5.512403823316097,3.994871015921235,-1.5432288280569015
1772025008821262000,6.685261962890625,5.759295932647586,4.074492834168672,-1.8686581752695142
1772025008831259100,6.695259033203125,5.900392502555251,4.043094071820378,-2.142174964415282
1772025008841256200,6.705256103515625,5.781904070296883,4.106692976027727,-2.5064982520371673
1772025008851253200,6.715253173828125,5.619615074756741,4.200725596943498,-2.570334472131729
1772025008861250000,6.72525,5.404668255740404,4.320283119738102,-2.2169399902813134
1772025008871247400,6.735247314453125,4.990602301436662,4.4617397551298135,-1.840194881851226
1772025008881244200,6.745244140625,4.589476492726803,4.311941407850385,-1.910774877117574
1772025008891241000,6.755240966796875,4.002234238165617,3.837432383021712,-1.92065285866186
1772025008901238300,6.76523828125,2.9524656575143338,3.01974295797348,-2.2566771035164592
1772025008911235000,6.775235107421875,1.7775988710761068,1.7594120570003986,-2.3684758288778363
1772025008921232100,6.785232177734375,0.41148938181400296,-0.35892800444960593,-1.7239961679652331
1772025008931229200,6.795229248046875,-0.8986725947767495,-3.790031749421358,0.10191928251236676
1772025008941227300,6.805227294921875,-2.447171618321538,-7.553178414526581,1.4234689145579933
1772025008951224000,6.81522412109375,-4.76160299167037,-8.730292103108763,1.7750776820354162
1772025008961221000,6.82522119140625,-7.053578203061223,-7.989114839854836,2.0343447042934595
1772025008971218200,6.83521826171875,-9.04988236890435,-8.677457169499993,3.569436695384979
1772025008981215200,6.84521533203125,-9.151393362876773,-7.715495467117428,3.7757331749558447
1772025008991212000,6.8552119140625,-7.933778737080097,-5.707352979442477,1.7940531622707843
1772025009001209300,6.865209228515625,-7.505313086023926,-6.117988374775647,1.6742236906670034
1772025009011206100,6.8752060546875,-7.962133893948793,-6.949464917635917,3.442306691509485
1772025009021203200,6.885203125,-7.5214885602772235,-7.2629323166370385,4.913492758271098
1772025009031200300,6.8952001953125,-7.6654072018682955,-7.774233487290143,5.169520944738387
1772025009041197000,6.905197021484375,-8.317467088776827,-7.642823614138364,4.551621393845975
1772025009051194000,6.915194091796875,-7.413551917171477,-6.6007958568722005,3.4798838502317664
1772025009061191200,6.925191162109375,-5.422557548174262,-4.649381218591333,2.159551046629995
1772025009071188200,6.935188232421875,-3.362208487921953,-2.4159552268028257,0.5846127828404307
1772025009081185000,6.94518505859375,-1.9180162265479563,-0.5040314719110727,-0.8469144966192543
1772025009091182300,6.955182373046875,-0.2562245858222246,0.8444178574979305,-1.6908501235581934
1772025009101180200,6.96518017578125,0.7499217107236384,1.598129023632407,-2.3598782425329086
1772025009111177200,6.97517724609375,1.3996931944340467,2.032373258090019,-2.374123917767405
1772025009121174000,6.985174072265625,2.065977421528101,2.3311557136565444,-1.6994526783391832
1772025009131171300,6.99517138671875,2.6478748079299925,2.546228789401054,-0.8338799507401883
1772025009141168000,7.005168212890625,3.2650258785426614,2.469037120909989,0.09173910315111279
1772025009151165200,7.015165283203125,4.033493299782276,2.210949371564388,0.8474702308058738
1772025009161162200,7.025162353515625,4.468524885225296,2.0908888676837085,0.8372522036522626
1772025009171159300,7.0351591796875,5.0369139707565305,2.2001450689554214,0.3462166991755366
1772025009181156000,7.045156005859375,5.289135166156291,2.4056883920714256,0.009580898293852806
1772025009191153400,7.0551533203125,5.133813087019324,2.63034850358963,-0.22299626995921135
1772025009201150200,7.065150146484375,5.079285378018021,2.7773510826706884,-0.4597634372480213
1772025009211147000,7.07514697265625,5.057526550674438,2.86279327763468,-0.8954958644367754
1772025009221144300,7.085144287109375,5.179148020261525,2.960163226279616,-1.2310747036114333
1772025009231141000,7.09514111328125,5.420222383224964,3.1112247253626584,-1.2517806609012185
1772025009241138200,7.10513818359375,5.638933523210882,3.3869933850884437,-1.1758335856437683
1772025009251135200,7.11513525390625,5.838010572922229,3.6552392480939626,-1.00226360989362
1772025009261132300,7.12513232421875,5.970730944150686,3.7898452869385477,-0.8591941324777901
1772025009271130000,7.135130126953125,6.059505790668726,4.009210506919026,-0.8637067875966429
1772025009281127200,7.145127197265625,6.332540056994557,4.323770377331972,-0.9827423323437571
1772025009291124200,7.155124267578125,6.513059121230245,4.553928209483623,-1.0873223584979772
1772025009301121300,7.165121337890625,6.566066488796472,4.7053731549263,-1.4536632695525884
1772025009311118000,7.1751181640625,6.587865648150443,4.754955808740854,-2.0442346685364843
1772025009321115100,7.185115234375,6.60689534279108,4.697694875383377,-2.041002554747462
1772025009331112200,7.1951123046875,6.291237155747413,4.675481290009618,-1.6326498635239899
1772025009341109200,7.205109130859375,5.688451295095682,4.376193223008513,-1.495500862198323
1772025009351106000,7.21510595703125,4.954120536735654,3.6418501896888014,-1.47200717388615
1772025009361103400,7.225103271484375,4.005907958242297,2.591019532763958,-1.4890838347628712
1772025009371100200,7.23510009765625,2.6741864762723444,0.9125286861717701,-1.4510954648911951
1772025009381097000,7.245096923828125,1.1847960597783327,-1.624545321393013,-0.4944920746713876
1772025009391094300,7.25509423828125,-1.2735843502998352,-5.021679576745629,1.2063552728965878
1772025009401091000,7.265091064453125,-4.424444920480251,-8.262098837298154,2.443534723123908
1772025009411088100,7.275088134765625,-7.720823968663812,-8.916468170192838,2.1401029804468155
1772025009421085200,7.285085205078125,-11.16200662457943,-8.603865863588451,1.62938107098639
1772025009431083300,7.295083251953125,-12.19426526750326,-9.821735340929031,1.5643858901150525
1772025009441080000,7.305080078125,-11.051045665216446,-7.486587927287816,-0.5153016384661198
1772025009451077000,7.3150771484375,-9.404427043703198,-5.5456128499567505,-1.7373327655307949
1772025009461074200,7.32507421875,-9.364880630734563,-6.820667272809147,-0.10144757334738969
1772025009471071200,7.3350712890625,-9.393900973513722,-7.271086981520057,2.485047467729449
1772025009481068000,7.345068115234375,-9.311655236503482,-7.130084519636631,4.122423629122972
1772025009491065300,7.3550654296875,-9.931877969646454,-7.362765732786059,4.5327024661034345
1772025009501062100,7.365062255859375,-9.361011680346726,-6.624808600622415,3.580346504195034
1772025009511059500,7.3750595703125,-7.3098168174088,-5.190054029679298,2.2125069762699305
1772025009521056500,7.385056396484375,-5.053829449722171,-3.5064152988046406,0.9156317667536437
1772025009531053600,7.395053466796875,-3.316972338879108,-1.5807988263860344,-0.5612821030702442
1772025009541050400,7.40505029296875,-2.5947932060837746,-0.12017477791011333,-1.8181034615524112
1772025009551047400,7.41504736328125,-2.0222639520078896,0.6790110221982002,-2.5871371383726594
1772025009561044500,7.42504443359375,-1.2933563877403735,1.2064265845671296,-2.632806418135762
1772025009571041300,7.435041259765625,-0.40378596782982346,1.5198238409414886,-2.1128239283770323
1772025009581038600,7.44503857421875,0.4827338323384523,1.8088342595562337,-1.2792303933627902
1772025009591035400,7.455035400390625,1.3797756110429762,2.128779037877917,-0.4275399145133793
1772025009601033500,7.465033447265625,2.3597429257154463,2.304768641990423,0.16712050734981893
1772025009611030300,7.4750302734375,3.3907699810177085,2.318165591441095,0.37356501708924766
1772025009621027600,7.485027587890625,4.277855013853311,2.3781150332301855,0.24075740596875547
1772025009631024400,7.4950244140625,4.996459210771322,2.4722552061736582,0.058588820960372684
1772025009641021400,7.505021484375,5.403206366494298,2.524085638915002,0.007384703423827886
1772025009651018500,7.5150185546875,5.528136229977012,2.4524776157751678,0.1417100256308913
1772025009661015600,7.525015625,5.7062388807207345,2.295857313521206,0.12682809831947087
1772025009671012400,7.535012451171875,5.84830400339961,2.2833476682990788,-0.1429831143066287
1772025009681009400,7.545009521484375,5.9283203739225865,2.4436565959379077,-0.4041799355834722
1772025009691006500,7.55500634765625,6.029882805821299,2.7148949187576767,-0.6484991256870329
1772025009701003300,7.565003173828125,6.198890880483389,3.184059659948945,-0.7347155198939144
1772025009711000300,7.575000244140625,6.242511995545029,3.7052562016725537,-0.7103878649756312
1772025009720997400,7.584997314453125,6.215544493642449,3.937716465547681,-0.48659620685502886
1772025009730994400,7.594994384765625,6.234960557252168,4.003654626357555,-0.26931159254089
1772025009740991200,7.6049912109375,5.942801319217682,4.062853834301233,-0.32491993638575073
1772025009750988500,7.614988525390625,6.5076078700870275,4.134328586450219,-0.8396277006119489
1772025009760985300,7.6249853515625,7.113879819288849,4.0474066743224855,-1.7260748739354312
1772025009770983400,7.6349833984375,7.149025951471924,3.886383168673515,-2.6663901233077048
1772025009780980200,7.644980224609375,6.869249809670448,3.63952203900218,-3.367833342066407
1772025009790977500,7.6549775390625,6.070615213704109,3.380165000373125,-3.0788726078122854
1772025009800974300,7.664974365234375,4.361795279821753,3.11552914455831,-1.9537796138465404
1772025009810971400,7.674971435546875,1.9037585686147211,2.357190903145075,-1.1019055951237677
1772025009820968400,7.684968505859375,0.18399463139176367,0.8374936111927032,-1.0368370567552745
1772025009830965500,7.694965576171875,0.19280220722556113,-1.0355787272572516,-1.08959687930122
1772025009840962300,7.70496240234375,-0.21309330010414124,-3.5160996574729677,-0.9498299505621194
1772025009850959600,7.714959716796875,-2.465658292126655,-6.438912519523501,-0.43327699686065313
1772025009860956400,7.724956298828125,-5.105765973186493,-7.7329229872584335,0.42267157782465214
1772025009870953200,7.734953125,-8.281904777008295,-7.116534133189917,1.4459109018601477
1772025009880950500,7.744950439453125,-10.108670122313498,-7.339082074859738,2.482412443050742
1772025009890947300,7.754947265625,-9.23780381835103,-7.030330598464608,1.819641484774649
1772025009900944400,7.7649443359375,-8.514028940796852,-5.395191402342915,0.0363562386251986
1772025009910941400,7.77494140625,-8.322529632863402,-5.65264757578671,0.9952600147418678
1772025009920938500,7.7849384765625,-8.02760151463747,-6.279860021686553,3.1938959943085905
1772025009930935300,7.794935302734375,-7.718151534584164,-6.347144920930266,4.687670617236197
1772025009940933400,7.804933349609375,-8.289856028273702,-6.760727475631237,4.888095282164215
1772025009950930400,7.814930419921875,-8.495664432066679,-6.342272930979728,3.8019758697152137
1772025009960927500,7.824927490234375,-6.860071646958589,-4.652650157259404,2.3779244790941476
1772025009970924300,7.83492431640625,-4.3882910725593565,-3.1141411973312496,0.6707244014985859
1772025009980921600,7.844921630859375,-2.6707565018236634,-1.759994825324416,-0.5560074506029486
1772025009990918400,7.85491845703125,-1.434420808944106,-0.6011214345708489,-1.1413611149385572
1772025010000915500,7.86491552734375,-0.511660651615262,-0.10832973407655953,-1.4141129110611974
1772025010010912500,7.87491259765625,-0.3780138131916523,0.08921469924002885,-1.746569672692567
1772025010020909600,7.88490966796875,-0.21348434524834156,0.5723278862848877,-2.049960644967854
1772025010030906400,7.89490625,-0.15580021804273128,1.5462585511416196,-1.6631844102583824
1772025010040903400,7.9049033203125,0.5214309350013733,2.515154728962481,-0.9617654491581022
1772025010050900500,7.914900390625,1.6237474490135908,3.000630553485453,-0.16388751677796243
1772025010060897300,7.924897216796875,2.85122120552361,2.9723388172417877,0.36892318263277407
1772025010070894600,7.93489453125,3.835765326592326,2.9604961114957926,0.4204514175571501
1772025010080891400,7.944891357421875,4.274297613632679,2.996412059007585,0.22944529996812343
1772025010090888400,7.954888427734375,4.250045215907693,2.6967513593018055,0.3209028096988797
1772025010100886300,7.96488623046875,4.446462106499076,2.2510703695505856,0.21911665204688904
1772025010110883600,7.974883544921875,4.533029213839769,2.0126091116949913,-0.07160407761707901
1772025010120880400,7.98488037109375,4.55583784249723,1.9268658879578113,-0.32050884194523094
1772025010130877400,7.99487744140625,4.721490176990628,1.9044795763656497,-0.6822089414566755
1772025010140874500,8.00487451171875,5.05427777801156,1.945035166376829,-0.9957247096441686
1772025010150871600,8.01487158203125,5.516776047050953,2.054429022553563,-1.168791850438714
1772025010160868400,8.024868408203124,5.847762151607871,2.3744442357629536,-1.0792135785833001
1772025010170865400,8.034865478515625,5.971160567739606,2.710433847695589,-0.8465906714923679
1772025010180862500,8.044862548828124,6.319701618209481,2.934350155109167,-0.9810217921614647
1772025010190859300,8.054859375,6.716533529117703,3.1838986241683362,-1.3514948345847426
1772025010200856300,8.064856201171875,6.868266643851995,3.5093382005140183,-1.592074692029506
1772025010210853400,8.074853271484375,6.85108053125143,3.8219285244196652,-1.6210066258728504
1772025010220850400,8.084850341796875,6.9125698959589,3.9989667608022685,-1.5364154947802424
1772025010230847200,8.09484716796875,6.746963154172897,3.996255163756013,-1.5319631915464997
1772025010240844500,8.104844482421875,6.563183626836538,3.7241321670562026,-1.6409304928742348
1772025010250841300,8.11484130859375,6.400908659821749,3.159577545121312,-1.8129075003445148
1772025010260838400,8.12483837890625,5.790939025145769,2.374475799944997,-1.9917150844871996
1772025010270836500,8.13483642578125,4.50742014080882,1.407756673902273,-2.0294718375600875
1772025010280833500,8.14483349609375,2.680690451338887,-0.014234277057647704,-1.560457026233524
1772025010290830300,8.154830322265624,0.37581601088643074,-2.192746775397658,-0.4667893903620541
1772025010300827400,8.164827392578125,-1.67458857845664,-4.967172326010465,0.7295021691597998
1772025010310824400,8.174824462890625,-3.9152813463777303,-7.494420520609617,1.1417188423350453
1772025010320821500,8.184821533203126,-6.331197410213947,-8.378850655022264,0.682081223423779
1772025010330818300,8.194818359375,-9.32695042079091,-8.046765064790845,0.43244989838674663
1772025010340815600,8.204815673828126,-11.554396169126033,-8.982116408145426,1.7461776046350597
1772025010350812400,8.2148125,-11.412201867109536,-8.071724734002352,1.6835548519834875
1772025010360809200,8.224809326171876,-10.467952347028255,-5.298140310388803,-0.2320259641110897
1772025010370806500,8.234806640625,-9.63187737046182,-5.510660194519162,-0.3130386521950364
1772025010380803300,8.24480322265625,-9.047103551840781,-6.5122366989314555,1.0464696852363646
1772025010390800400,8.25480029296875,-8.119364437055587,-6.749210056316852,2.7252596609055995
1772025010400797400,8.26479736328125,-7.895104430770874,-7.166950899741053,4.058089980900287
1772025010410794500,8.27479443359375,-8.079049962323904,-7.03355189859867,4.558341349750757
1772025010420791300,8.284791259765624,-7.448235692539811,-6.223787421330809,4.409890325427055
1772025010430788600,8.29478857421875,-6.1879094677418465,-5.3212926379173995,3.068126757392287
1772025010440786400,8.304786376953125,-4.271097356286645,-3.668120356976986,1.797833119200915
1772025010450783500,8.314783447265626,-2.165494026812911,-1.7579226952254772,0.9870978972047567
1772025010460780300,8.3247802734375,-1.3638567418992518,-0.6953817267626523,-0.5429804304432123
1772025010470777600,8.334777587890626,-1.2012024201780558,-0.26217092700600625,-1.9988893600307405
1772025010480774400,8.3447744140625,-0.8780068233668804,-0.027663082951307295,-2.4124190155006944
1772025010490771500,8.354771484375,-0.38201486552655695,0.2973006925761699,-2.044347189000249
1772025010500768500,8.3647685546875,0.5866501338869333,0.8649626328766346,-1.4473662152349949
1772025010510769200,8.37476904296875,1.9762737697273491,1.5816361539930104,-0.7697280888251959
1772025010520766000,8.384765869140624,3.3375697212278843,2.1040838648214937,-0.06988003030344843
1772025010530763300,8.39476318359375,4.344540778160095,2.3988404258728027,0.5762779390849173
1772025010540760000,8.404760009765624,4.976956053400039,2.5545047425761815,1.0324002433516084
1772025010550757000,8.414757080078125,5.386951981785893,2.6590853532522916,0.9817644272223114
1772025010560754200,8.424754150390624,5.7194736253470175,2.693458162975311,0.6829274649895727
1772025010570751200,8.434751220703125,6.071123163226247,2.6295921322643756,0.22133856588006018
1772025010580748000,8.444748046875,6.2116422255069015,2.6195529688090082,-0.2761605816528201
1772025010590745000,8.4547451171875,6.364450275996327,2.6465157945364712,-0.7773401712641119
1772025010600743200,8.4647431640625,6.528626692718267,2.692462722197175,-1.0914325702957808
1772025010610740200,8.474740234375,6.603529665750265,2.8234038087934255,-1.245532414161414
1772025010620737000,8.484737060546875,6.640303106874227,3.1817472913533447,-1.3406772341027855
1772025010630734000,8.494734130859374,6.907467019861937,3.6055595636457203,-1.461196587666869
1772025010640731100,8.504731201171875,7.165060555949807,3.9870051048517223,-1.4429444532699882
1772025010650728200,8.514728271484374,7.248000704964995,4.28927189540267,-1.3587446595825254
1772025010660725000,8.52472509765625,7.330110832896828,4.514381211993098,-1.2015233226954936
1772025010670722300,8.534722412109375,7.404671860623359,4.757967265516519,-1.1798834455564617
1772025010680719000,8.544718994140625,7.536255336776375,5.0648909419626,-1.23091337556988
1772025010690716000,8.5547158203125,7.578416900679469,5.3075306545466185,-1.4231662783496082
1772025010700713200,8.564713134765626,7.461269946157932,5.520497697922587,-1.726656765476614
1772025010710710000,8.5747099609375,7.201182255166769,5.561253486680984,-1.7848929736070334
1772025010720707000,8.58470703125,6.680140611743926,5.18335423977971,-1.519746976312995
1772025010730704100,8.5947041015625,5.897073002743721,4.356482560366392,-1.3300978262908756
1772025010740701200,8.604701171875,4.42422280216217,2.9311989976018666,-1.0822188978791236
1772025010750698000,8.614697998046875,2.3325860387206077,0.5361456890523434,-0.15193097539395092
1772025010760695300,8.6246953125,-0.32166005780696866,-3.1376357624262567,1.160796467770636
1772025010770693000,8.634693115234375,-4.128350681084394,-6.604717414230108,1.6229698887698352
1772025010780690200,8.644690185546875,-8.237560023847221,-7.626383935990929,1.2419880195528268
1772025010790687000,8.65468701171875,-10.935582718259095,-6.537663401132821,0.8090462459959089
1772025010800684300,8.664684326171875,-12.151562436330318,-6.523437891903519,0.49212344584390516
1772025010810681000,8.67468115234375,-12.455994295960664,-4.433361217385531,-1.592523166449368
1772025010820678100,8.68467822265625,-11.137201853668689,-0.7794622779846191,-3.606866846852004
1772025010830675200,8.69467529296875,-9.92345384017229,-2.2374019096821547,-2.4550793227061627
1772025010840672300,8.70467236328125,-9.54690893048942,-4.74041524221301,0.5013459591541439
1772025010850669000,8.7146689453125,-8.767364234918356,-5.383914806047081,3.4706963351696727
1772025010860666000,8.724666015625,-7.768921936878561,-7.169062777328491,5.863440197733044
1772025010870663200,8.7346630859375,-8.214355673870443,-8.673824365955591,6.627647623440623
1772025010880660000,8.744659912109375,-8.800803563183546,-8.745857921031117,5.644193635696173
1772025010890657300,8.7546572265625,-8.145518284487723,-8.299666059148311,3.505077328199148
1772025010900654000,8.764654052734375,-6.775352213311195,-7.332940503364801,1.1341815786980092
1772025010910651100,8.774651123046874,-5.236929178100824,-5.721184520918131,-0.9259676481332629
1772025010920648200,8.784648193359375,-3.903672157126665,-3.8613428354412314,-2.662996681477129
1772025010930645200,8.794645263671875,-2.2264836253046987,-1.9473644861072301,-3.605203297553956
1772025010940643000,8.80464306640625,-0.8914806374460458,-0.19869243430793285,-3.1879674810424445
1772025010950640000,8.81464013671875,-0.40677813538312907,1.2171037536650895,-1.709071716686338
1772025010960637200,8.82463720703125,0.6123182436287403,2.180003613680601,-0.1618013216210529
1772025010970634200,8.83463427734375,1.5893267084956169,2.6912419482305645,0.8296944817490876
1772025010980631000,8.844631103515624,2.5466484761178494,2.7655305887565014,1.2686623837277293
1772025010990628400,8.85462841796875,3.711593588000536,2.6487586050271985,1.1489644295491277
1772025011000625200,8.864625244140624,4.7562101927161216,2.5891505240216848,0.6933129576645791
1772025011010622000,8.8746220703125,5.4595688897073265,2.5089807165026663,0.13107011980339883
1772025011020619300,8.884619384765625,5.69876810644865,2.605202371895313,-0.25161672670058904
1772025011030616000,8.894615966796875,5.775237013623118,2.410608020555973,-0.1681342875022441
1772025011040613000,8.904613037109375,5.712803061541915,2.0533631468877194,0.016937617732211946
1772025011050610200,8.914610107421876,5.224833666637539,1.9110908111989497,0.023908991114795206
1772025011060607200,8.924607177734375,4.9020735386341805,2.0699954249978063,0.05465783818699419
1772025011070604000,8.93460400390625,4.8849102223873135,2.3790286409437655,0.03837276607938111
1772025011080601000,8.94460107421875,4.9376288361400364,2.639401578617096,-0.1649667633820325
1772025011090598100,8.95459814453125,5.224656556504964,3.0578590458780526,-0.4253470806442201
1772025011100595200,8.96459521484375,5.615616945031285,3.583921732333302,-0.7179160685233772
1772025011110593000,8.974593017578124,6.09118453900218,4.019235057327151,-1.0605796052619814
1772025011120590300,8.98459033203125,6.370612305757403,4.423616652962565,-1.2723714673787354
1772025011130587100,8.994587158203124,6.389431572517752,4.750098431837558,-1.3424711317822335
1772025011140584200,9.004584228515625,6.483180700317025,4.806441081306338,-1.43336443175897
1772025011150581200,9.014581298828125,6.557255405831336,4.863441902422904,-1.526730113198608
1772025011160578300,9.024578369140626,6.395245811754465,5.045544436457753,-1.6118595889516174
1772025011170575000,9.0345751953125,6.301888313621282,5.0690679353862995,-1.5991411232843995
1772025011180572200,9.044572265625,5.891411908242106,4.723655246070027,-1.2989957088015973
1772025011190569200,9.0545693359375,5.142562795186042,4.156801699542999,-1.1315339867986738
1772025011200566000,9.06456591796875,4.20534682700336,3.0325328814417123,-1.4140066742077468
1772025011210563000,9.07456298828125,3.182723442909121,1.2871516878813505,-1.7846759698554873
1772025011220560100,9.08456005859375,1.8138579329371451,-1.0359943223208188,-1.1397525106981397
1772025011230557200,9.09455712890625,0.028342297387123107,-4.358820063403249,0.43194428695216774
1772025011240554000,9.104553955078124,-2.806526323750615,-7.213872225391865,1.9230720486328006
1772025011250551300,9.11455126953125,-6.3072980637103315,-7.653873415941,2.902888848918676
1772025011260548000,9.124548095703124,-8.669096168389915,-6.480687129935622,2.5671795152321457
1772025011270545200,9.134545166015625,-9.676989016342162,-7.4100868714094155,2.0265195636257527
1772025011280543000,9.14454296875,-9.520658636945486,-7.754857171168923,1.0784867256134747
1772025011290540300,9.154540283203126,-8.32704447993934,-5.737308557245135,-0.10404387345090507
1772025011300537000,9.164537109375,-7.943435623219608,-6.2588645799309015,0.6892261267423629
1772025011310534100,9.1745341796875,-7.446122645908594,-7.514591786500811,3.0483699175208807
1772025011320531200,9.18453125,-6.5511489056497805,-7.8999454410612575,5.582809484928846
1772025011330528000,9.194528076171874,-7.030050027957558,-8.723805663698911,7.031338898724317
1772025011340525000,9.204525146484375,-8.485994101923703,-8.791848103311658,6.594737287485599
1772025011350522000,9.214522216796874,-8.019042945128678,-7.235079264071583,5.0443660403281445
1772025011360519200,9.224519287109375,-6.466001017457247,-5.301228339532018,2.7377269282907246
1772025011370516000,9.234515869140624,-4.904539636486769,-3.3459336449474093,-0.10792889819070696
1772025011380513300,9.24451318359375,-3.7096617431551215,-1.5564777473390101,-2.613517195776105
1772025011390510000,9.254510009765625,-2.7577923957198855,-0.3936079804256558,-3.6452816254422067
1772025011400507100,9.264507080078126,-2.1748346866101027,0.5318170121982694,-3.1855864311248063
1772025011410504200,9.274504150390625,-1.4028583804666994,1.5272244725868105,-2.1291177683129905
1772025011420501200,9.284501220703126,-0.31381869665682316,2.2669766714736816,-1.2024527125000952
1772025011430498000,9.294498046875,0.8088789266049862,2.6160429148614406,-0.39110710352063177
1772025011440496000,9.30449609375,1.9294342771410942,2.7906603538379073,0.4090969337195158
1772025011450493200,9.3144931640625,3.0076982999145985,2.7903964422047136,0.7685295266903936
1772025011460490200,9.324490234375,3.8976428138345476,2.740575887981057,0.5268966530613601
1772025011470487000,9.334487060546875,4.752806521752476,2.7754791513189674,0.0754169139035046
1772025011480483000,9.344483154296874,5.176102076694369,2.6349191725060344,-0.18430238216668365
1772025011490480000,9.354480224609375,5.17761189673543,2.3906401682823897,-0.22206235010996458
1772025011500477200,9.364477294921874,5.208736518317461,2.248298274488747,-0.4225185792200267
1772025011510470400,9.374470458984375,5.3445963566154235,2.2405115661352872,-0.6599591157257556
1772025011520467200,9.38446728515625,5.500199006259441,2.348737547576427,-0.7701732022441923
1772025011530464500,9.394464599609375,5.666451060211658,2.604254861912131,-0.9842771406956017
1772025011540461300,9.40446142578125,5.919459022074937,2.964602377770841,-1.1983701193615794
1772025011550459400,9.41445947265625,6.107089379620552,3.3106101103708148,-1.2564676496736704
1772025011560456200,9.424456298828124,6.355323551210761,3.5763214864626525,-1.3879529261492192
1772025011570453500,9.43445361328125,6.65223436768651,3.8080487598881123,-1.592721465500444
1772025011580450300,9.4444501953125,6.865006180751323,4.161941400519013,-1.8610292878262698
1772025011590447400,9.454447265625,7.10873193500638,4.515159210628271,-1.9821995065145193
1772025011600444400,9.4644443359375,7.156521275663375,4.679707383272052,-2.2220577716864645
1772025011610441500,9.47444140625,7.178527355766296,4.770725624802709,-2.513350602149963
1772025011620438300,9.484438232421875,7.026102167114615,4.670616314321756,-2.581094935598969
1772025011630435600,9.494435546875,6.613266631388663,4.473492736765742,-2.484714290252328
1772025011640432400,9.504432373046875,6.295498904845118,4.211265111136436,-2.327378240944445
1772025011650429400,9.514429443359376,5.75441985104382,3.641774786365032,-2.3362793402805924
1772025011660426500,9.524426513671875,4.639238010239601,2.64321733751297,-2.49174141241014
1772025011670423600,9.534423583984376,3.396358594805002,1.694180583155155,-1.9829735596269369
1772025011680420400,9.54442041015625,2.0027099412322045,0.005429623833298683,-0.6247250129982829
1772025011690417400,9.55441748046875,0.21868308293521402,-3.261044699952006,0.9422858187928795
1772025011700414500,9.56441455078125,-1.853981853532791,-6.527291060200334,1.8287635333850978
1772025011710412500,9.57441259765625,-4.4400124919682735,-7.4560180169790975,0.9889347572430968
1772025011720409300,9.584409423828125,-7.232191141414642,-6.324998555573821,-0.49804231449887154
1772025011730406400,9.594406494140625,-9.168710992902517,-6.0962979364931575,-0.612531301857531
1772025011740403500,9.604403564453126,-10.235925213873386,-6.122169459852576,-0.06420169240608811
1772025011750400300,9.614400146484375,-9.857419233250617,-4.362615948554873,-0.6236977157771587
1772025011760397300,9.624397216796876,-9.116495067974924,-3.9089807849287985,-0.5310451510429381
1772025011770394400,9.634394287109375,-9.171417329251765,-4.920193132692575,1.2578241788491606
1772025011780391400,9.644391357421876,-9.525959665963054,-5.09823674672544,3.3110552237898108
1772025011790388200,9.65438818359375,-9.161902481931447,-5.9346302877217525,4.615840183517337
1772025011800385500,9.664385498046874,-9.272498699635266,-7.136476851022243,5.405867110136151
1772025011810382300,9.67438232421875,-9.697382400551438,-7.082504437816143,5.094280702576041
1772025011820379400,9.68437939453125,-9.287940014395117,-6.143458331596851,3.4110222031906243
1772025011830376400,9.69437646484375,-8.198516884225606,-5.004751238298416,1.6773858079597352
1772025011840373200,9.704373291015624,-6.455194376760721,-3.2937378860250113,0.2842562098249793
1772025011850370300,9.714370361328125,-5.011332954776287,-1.5974097694471479,-0.6880918620154262
1772025011860367400,9.724367431640625,-4.348144355610013,-0.45413872923403975,-0.7647057306185364
1772025011870364400,9.734364501953126,-3.6627550305515526,0.692629797706008,-0.23426234486103056
1772025011880362200,9.7443623046875,-2.7203075914561747,2.056472803340852,0.4470850113302469
1772025011890359300,9.754359375,-1.5213871447354554,3.1545714073970914,1.0240583853334189
1772025011900356400,9.7643564453125,-0.051557168757915495,3.9716111363649365,1.1042799230396747
1772025011910353400,9.774353515625,1.3276684071868656,4.502210004945099,0.8973077361643313
1772025011920350200,9.78435009765625,2.652290286284685,4.570971114221215,0.7494149302452803
1772025011930347500,9.794347412109374,3.7354999487668272,4.3042277647331355,0.6837342513278126
1772025011940344300,9.80434423828125,4.421262783312797,3.9667093357980248,0.44118250928819175
1772025011950341400,9.81434130859375,4.9949201646357775,3.6436432105854153,-0.08275222522765398
1772025011960338400,9.82433837890625,5.400656682011485,3.347075800719857,-0.4127601324021816
1772025011970335500,9.83433544921875,5.557710699507594,3.1350457459330556,-0.46853784146457905
1772025011980332300,9.844332275390625,5.67849513374865,3.11416837759912,-0.5101707053184509
1772025011990329600,9.85432958984375,5.885652029541134,3.166811588028073,-0.6289721490487455
1772025012000326400,9.864326416015626,6.183420339629054,3.3351556458234786,-0.8082356602653861
1772025012010323200,9.8743232421875,6.371620606017112,3.5987107206642626,-0.9395300903439521
1772025012020320500,9.884320556640626,6.571494943585991,3.831443956261873,-1.27990200901404
1772025012030317300,9.8943173828125,6.841276345595717,4.18898898192048,-1.54605279943645
1772025012040314400,9.904314453125,7.057806049889326,4.541162835934758,-1.7300284338667988
1772025012050312200,9.914312255859375,7.2769450598984955,4.793705518373847,-2.016464179687947
1772025012060309500,9.9243095703125,7.484302446699142,5.0742316017597915,-2.255527641220391
1772025012070306300,9.934306396484375,7.455404853516817,5.28065316901505,-2.2864754449307916
1772025012080303400,9.944303466796875,7.322898417299985,5.330015458077192,-2.270202647782862
1772025012090300400,9.954300537109376,7.315034844318032,5.303880899867415,-2.4152426946192977
1772025012100297500,9.96429736328125,7.1791142157435415,5.2305140503615135,-2.563810331059992
1772025012110294300,9.974294189453126,6.7182578686922785,5.052658652377128,-2.265801490214467
1772025012120293400,9.98429345703125,5.814919035670161,4.4172003561794755,-2.0218056868463754
1772025012130290200,9.994290283203124,4.586531671446561,3.14495923718214,-2.0249194349527357
1772025012140287500,10.00428759765625,2.731271468541026,1.078650391742587,-1.4017378520041703
1772025012150284300,10.0142841796875,-0.17631167567372322,-2.28427822714746,-0.17113310399204493
1772025012160281300,10.02428125,-3.152721687877178,-5.982713058367371,1.2834341286629438
1772025012170278400,10.0342783203125,-5.619428027752042,-7.721783753606677,2.095783361726999
1772025012180275500,10.044275390625,-8.351230242168903,-7.099046991816163,1.7658150559104977
1772025012190272300,10.054272216796875,-11.453944913339614,-6.686597240537405,0.7450554198615252
1772025012200269600,10.06426953125,-12.516271362268924,-8.063987417748569,1.2075282621987162
1772025012210266400,10.074266357421875,-10.981834766346216,-7.4842866646081205,1.2274575360275803
1772025012220263400,10.084263427734374,-9.647049805152415,-5.8810348911345,1.6159148556917904
1772025012230261200,10.09426123046875,-9.633663084834813,-6.876784296828508,4.641209018051624
1772025012240258600,10.104258544921874,-9.67495955634117,-8.236027991974353,7.298101829695701
1772025012250255400,10.11425537109375,-8.996470512190461,-9.118245126512646,8.447005322837828
1772025012260252400,10.12425244140625,-8.958226998513936,-10.085699581092596,8.166929905828834
1772025012270249500,10.13424951171875,-8.669224178683757,-9.593651392441988,6.294165610414743
1772025012280246500,10.14424658203125,-7.059212994077801,-7.674957705023885,3.604746785958111
1772025012290243300,10.154243408203126,-4.96030185571909,-5.6890960227400065,1.0384143890745938
1772025012300240400,10.164240478515625,-3.0918904948174952,-3.582898819026351,-1.0208861850380897
1772025012310237400,10.174237548828126,-1.8011247080922126,-1.5528852758049965,-2.0631224704883993
1772025012320234200,10.184234130859375,-0.8144868296146393,-0.09921090033650398,-2.198672366054356
1772025012330231600,10.1942314453125,0.07722118684649466,0.9342664707273244,-2.01891069605723
1772025012340228400,10.204228271484375,1.0723965920448302,1.8299246861189602,-1.8957443351157008
1772025012350225400,10.214225341796874,2.2130852145493027,2.743413157233596,-1.6065397091031073
1772025012360222500,10.224222412109375,3.324584567448497,3.3993659599274393,-1.2353294384464621
1772025012370219500,10.234219482421874,4.4415100370496505,3.5982372579336164,-0.8186334279000759
1772025012380216300,10.24421630859375,5.257293920737505,3.6794653423339128,-0.557889464957267
1772025012390214400,10.25421435546875,5.949992107504606,3.8609868616104124,-0.4575954455591738
1772025012400211500,10.26421142578125,6.2574880308806895,3.805909702032804,-0.2982690992169082
1772025012410208500,10.27420849609375,6.1362950158387415,3.6055513803392647,-0.40320013076588507
1772025012420205300,10.284205322265626,6.260203135058283,3.5089258203208447,-0.7407388718366622
1772025012430202400,10.294202392578125,6.13228811828494,3.4229894120991227,-1.2729144882142542
1772025012440199400,10.304199462890624,6.143136844557524,3.635165012836456,-1.7754491456963122
1772025012450196500,10.314196533203125,6.221046013668179,4.077581447833777,-1.831867490749806
1772025012460193300,10.324193359375,6.292721841347217,4.39070807057321,-1.8583336190015076
1772025012470190300,10.3341904296875,6.297876155370473,4.71762590277791,-1.8040210140556097
1772025012480187400,10.3441875,6.408678124779462,5.014997322502732,-1.77378413509354
1772025012490184200,10.35418408203125,6.557232609477639,5.3748605619758365,-1.8204646377258002
1772025012500181500,10.364181396484375,6.686949707236885,5.614396463325619,-1.9917102621816098
1772025012510179000,10.374178955078126,6.854944220942259,5.795659039404988,-2.2288095840342343
1772025012520176000,10.384176025390625,6.807565214651823,6.096954939097166,-2.515741881200671
1772025012530173200,10.394173095703126,6.821348240810632,6.464424561920762,-2.8028081800103184
1772025012540170000,10.404169921875,6.543695667034387,6.387685021111369,-2.9047435368746517
1772025012550168000,10.41416796875,6.076511870527267,5.663002381062507,-2.763438877174258
1772025012560165000,10.4241650390625,5.479276629739999,4.9028363397002215,-2.3738817795746026
1772025012570162200,10.434162109375,4.550100760149956,3.619294659009576,-2.130832171015441
1772025012580159000,10.444158935546875,2.9525241097033024,1.9011147761076688,-1.8556366350024938
1772025012590156000,10.454156005859375,1.1085217983931301,0.09455518348515034,-1.0197187486939132
1772025012600153000,10.464153076171876,-1.0539864906072616,-2.054773890468478,-0.05676335909888148
1772025012610150100,10.474150146484375,-3.1520833899736402,-4.965996267968416,1.300546153113991
1772025012620147000,10.48414697265625,-4.921483757025003,-7.455693607330322,2.05053669129014
1772025012630144000,10.49414404296875,-7.24543582291305,-7.6313851052790875,1.2814331641040742
1772025012640141000,10.50414111328125,-9.510705982729792,-7.942807846710085,1.2324044909104703
1772025012650138000,10.51413818359375,-11.071221022760868,-9.471646476495266,1.9218464523606
1772025012660135000,10.524135009765626,-11.393960107976197,-7.49960055359602,0.4485620981454849
1772025012670132200,10.53413232421875,-10.634510690450668,-6.072780867305398,-0.18649433925300835
1772025012680129000,10.54412890625,-10.305572166073322,-7.007357719156146,1.216530337691307
1772025012690125800,10.554125732421875,-10.576834746551514,-6.784571292555332,3.280036108408868
1772025012700123100,10.564123046875,-10.309359867918491,-6.616117344644666,4.892947690631449
1772025012710120000,10.574119873046875,-10.004687185269594,-7.5448992464810605,5.988503332206607
1772025012720118000,10.584117919921875,-10.24304235240221,-7.864923227518797,5.626338830053806
1772025012730114800,10.59411474609375,-9.39530324152708,-7.226826399511099,3.9968706653058526
1772025012740112100,10.604112060546875,-7.608751833188533,-6.266655672198533,1.7506207016490398
1772025012750109000,10.61410888671875,-5.217909420332313,-4.737723518911004,-0.2694603533618152
1772025012760106000,10.62410595703125,-3.465766477552056,-3.0389743126660584,-1.4377002690061926
1772025012770103000,10.63410302734375,-2.3736837727844713,-1.427880008998513,-1.4487738900758325
1772025012780100000,10.64410009765625,-1.375620829451084,0.14369243161976336,-0.9266879982970655
1772025012790097000,10.654096923828124,-0.2810813791811466,1.5283815336674451,-0.30434739621728657
1772025012800094200,10.66409423828125,0.898039557570219,2.693103942710161,0.23284502540901303
1772025012810091000,10.674091064453124,2.355629645177722,3.6349124993801114,0.488473983425647
1772025012820088000,10.684088134765625,3.60792921538651,4.182218757133185,0.7061699550196529
1772025012830085000,10.694085205078125,4.584899686330557,4.309366004404425,1.0187992957614362
1772025012840082200,10.704082275390626,5.385729161992669,4.294023473843932,1.154318357797712
1772025012850079000,10.714078857421875,6.0695215732485055,4.258360039788484,1.0857666534885764
1772025012860076000,10.724075927734376,6.507867982327937,4.0566275071322915,0.6515256339013576
1772025012870073000,10.734072998046875,6.9379375614494085,3.9181934344321485,0.15639409228265286
1772025012880071200,10.7440712890625,7.207641222047806,4.019753528243303,-0.14008651608228684
1772025012890068000,10.75406787109375,7.454971722796559,4.1168566426455975,-0.4689208494327962
1772025012900065000,10.76406494140625,7.570815193504095,4.253050827464461,-0.5628833277218044
1772025012910062000,10.77406201171875,7.400406019872427,4.599448436164856,-0.47640842870920896
1772025012920059000,10.784058837890624,7.479079743614792,5.079937704446912,-0.46817646080628034
1772025012930056200,10.79405615234375,7.569827351510524,5.364992078912258,-0.7760039542242885
1772025012940053000,10.804052978515625,7.276777302116155,5.5612353665024035,-0.8559953364364802
1772025012950050000,10.814050048828125,7.218577042081952,5.698535466736555,-0.9982054205439984
1772025012960047000,10.824047119140625,7.248259648162126,5.911659161978959,-1.1625433114379644
1772025012970044200,10.834044189453126,7.060960130006075,6.094295949020982,-1.3983492324791849
1772025012980041000,10.844041015625,7.047310374838113,6.022935763162375,-1.7983653263814747
1772025012990038300,10.854038330078126,6.987926457977294,5.758699135798215,-2.059422446926683
1772025013000035000,10.86403515625,6.668881551104784,5.299874586835503,-2.0789057305537164
1772025013010031900,10.874031982421876,5.999331015691161,4.842642860022187,-1.9926728236034512
1772025013020029200,10.884029296875,5.136648018184304,4.373509683012962,-2.0113889222502706
1772025013030026000,10.89402587890625,4.07561628524065,3.5282734948694703,-1.9820048607252536
1772025013040024000,10.904024169921875,2.96064078066349,2.31171217751801,-1.9316808870241045
1772025013050021000,10.914021240234375,1.830997868308425,0.9977888025671243,-1.5367600704342126
1772025013060018200,10.92401806640625,-0.08804302511215209,-0.9287760566174983,-0.7407635678865016
1772025013070015000,10.934014892578125,-1.937439304420352,-3.9412732812464233,0.7011248004592955
1772025013080012000,10.944011962890626,-4.103582150530815,-7.277528412744402,1.4580137198470533
1772025013090009000,10.954009033203125,-6.4805807469516985,-8.01044579717517,0.42447731207236644
1772025013100006100,10.964006103515626,-8.743177303645014,-7.230186815854907,0.069644906373322
1772025013110003000,10.9740029296875,-10.322247406542301,-7.860128978979587,0.6468433213040232
1772025013120000000,10.984,-10.444323634159565,-7.138119942054152,-1.2053778061665594
1772025013129997000,10.9939970703125,-9.628674775028228,-5.5514528081566095,-2.711535671457648
1772025013139994000,11.003994140625,-9.095181061789393,-6.68453563183248,-1.1938882977724075
1772025013149991000,11.013990966796875,-9.089692985767126,-7.327858670055866,1.3028219890914856
1772025013159988200,11.02398828125,-8.419032443284989,-8.051860926625132,3.1152018123000857
1772025013169985000,11.033985107421875,-7.723786910122633,-9.137978585508465,4.240852440148592
1772025013179981800,11.04398193359375,-7.810282705792784,-9.731623692849277,4.550967021590471
1772025013189980000,11.05397998046875,-8.04196321746707,-9.148923757892847,3.8316537996202706
1772025013199977200,11.063977294921875,-7.860577891790866,-7.5509899645715945,2.3154181924290955
1772025013209974000,11.07397412109375,-6.778641317984461,-5.92232610194385,0.4691819845870137
1772025013219970800,11.083970703125,-5.678672828403115,-4.641643902337551,-1.034842668067664
1772025013229968100,11.093968017578124,-4.903945762246847,-3.261199598252773,-1.3449351838082075
1772025013239965000,11.10396484375,-4.11873529599905,-1.664635339719057,-0.9418540032468735
1772025013249962000,11.1139619140625,-3.1387089446157215,-0.3331318844139576,-0.3284257525496185
1772025013259959000,11.123958984375,-2.6945260844677685,0.6029132864236831,-0.012623773121088743
1772025013269956000,11.1339560546875,-1.711689351838827,1.4538257666379213,-0.4743018118187785
1772025013279953000,11.143952880859375,-0.18690730396807193,2.3908549800768495,-0.8628107155397534
1772025013289950200,11.1539501953125,0.968766121700406,3.236583627912402,-1.1388957477383315
1772025013299947000,11.163947021484375,2.4089842187464234,3.6720764011263847,-1.1836590185724198
