time,seconds_elapsed,z,y,x
1772024884394916000,0.071916015625,-0.1004638671875,-0.0787612646818161,-0.088229238986969
1772024884404911900,0.081911865234375,-0.10647115856409073,-0.10191664844751358,-0.08464755117893219
1772024884414909000,0.091908935546875,-0.11537644267082214,-0.11063075810670853,-0.08026181161403656
1772024884424906000,0.101906005859375,-0.12847015261650085,-0.10738702863454819,-0.08056674152612686
1772024884434902800,0.11190283203125,-0.1442793309688568,-0.09209252893924713,-0.08137765526771545
1772024884444899000,0.121899169921875,-0.16494280099868774,-0.07995064556598663,-0.08713327348232269
1772024884454895900,0.131895751953125,-0.1809077262878418,-0.0738910660147667,-0.08567562699317932
1772024884464893200,0.14189306640625,-0.19900444149971008,-0.07128729671239853,-0.0788336992263794
1772024884474890000,0.151889892578125,-0.21226580440998077,-0.058923762291669846,-0.07717837393283844
1772024884484886800,0.16188671875,-0.2277102768421173,-0.06364847719669342,-0.0756494551897049
1772024884494883000,0.171883056640625,-0.23380133509635925,-0.06763637065887451,-0.07681970298290253
1772024884504879900,0.1818798828125,-0.2359992414712906,-0.06772532314062119,-0.07498771697282791
1772024884514877200,0.191877197265625,-0.23711766302585602,-0.06954541057348251,-0.07200145721435547
1772024884524874000,0.2018740234375,-0.2311716228723526,-0.0564088374376297,-0.06451105326414108
1772024884534870000,0.2118701171875,-0.22680579125881195,-0.02877771109342575,-0.05340718477964401
1772024884544867000,0.2218671875,-0.22749102115631104,-0.0023959041573107243,-0.04503021016716957
1772024884554863900,0.23186376953125,-0.23891082406044006,0.019090166315436363,-0.03375158831477165
1772024884564861200,0.241861083984375,-0.24819698929786682,0.022239886224269867,-0.029720628634095192
1772024884574857000,0.25185693359375,-0.2643704116344452,0.020024888217449188,-0.029355481266975403
1772024884584853800,0.261853759765625,-0.282351016998291,0.024569306522607803,-0.023340465500950813
1772024884594851000,0.27185107421875,-0.29536542296409607,0.016013197600841522,-0.013108229264616966
1772024884604847900,0.281847900390625,-0.3127542734146118,0.008718532510101795,0.003583398647606373
1772024884614844200,0.29184423828125,-0.328124463558197,0.005419707391411066,0.01352890394628048
1772024884624841000,0.301841064453125,-0.3470054566860199,0.01219505537301302,0.018541239202022552
1772024884634838000,0.311838134765625,-0.36661502718925476,0.03125251084566116,0.01959128864109516
1772024884644835000,0.3218349609375,-0.3784674108028412,0.050989195704460144,0.017143310979008675
1772024884654831900,0.331831787109375,-0.3764875829219818,0.06561186909675598,0.012898093089461327
1772024884664828200,0.341828125,-0.366539865732193,0.07063192874193192,-0.004729103296995163
1772024884674825000,0.351824951171875,-0.35698971152305603,0.06401251256465912,-0.03902840614318848
1772024884684822000,0.361822021484375,-0.3407995402812958,0.04782448336482048,-0.0873490646481514
1772024884694819000,0.371819091796875,-0.32499343156814575,0.006630473770201206,-0.1467762440443039
1772024884704814800,0.38181494140625,-0.33279410004615784,-0.009152217768132687,-0.21654467284679413
1772024884714812200,0.391812255859375,-0.33628445863723755,-0.004041273612529039,-0.29549267888069153
1772024884724809000,0.40180908203125,-0.3470345735549927,0.0001454818993806839,-0.358700156211853
1772024884734806000,0.411805908203125,-0.35397443175315857,0.05922349914908409,-0.41384556889533997
1772024884744802000,0.421802001953125,-0.3574373424053192,0.22644498944282532,-0.49713408946990967
1772024884754798800,0.431798828125,-0.3290485739707947,0.25548240542411804,-0.5502563714981079
1772024884764796000,0.4417958984375,-0.28390026092529297,0.23466205596923828,-0.572957456111908
1772024884774793000,0.45179296875,-0.23276202380657196,0.21995607018470764,-0.5548586249351501
1772024884784790000,0.4617900390625,-0.18706724047660828,0.20195123553276062,-0.515415608882904
1772024884794786000,0.4717861328125,-0.16070035099983215,0.18816626071929932,-0.4646104574203491
1772024884804782800,0.481782958984375,-0.14745140075683594,0.18364447355270386,-0.4211133122444153
1772024884814780000,0.49177978515625,-0.14994986355304718,0.17670001089572906,-0.38994160294532776
1772024884824777000,0.50177685546875,-0.15881766378879547,0.15445248782634735,-0.36243540048599243
1772024884834773000,0.51177294921875,-0.17060284316539764,0.12688401341438293,-0.32808372378349304
1772024884844770000,0.52177001953125,-0.18398736417293549,0.11407393962144852,-0.2789050042629242
1772024884854767000,0.53176708984375,-0.2045595943927765,0.11733369529247284,-0.21097241342067719
1772024884864764000,0.541763916015625,-0.2348935306072235,0.10149028897285461,-0.13211356103420258
1772024884874760000,0.551760009765625,-0.26811134815216064,0.06436853855848312,-0.053861770778894424
1772024884884757000,0.561757080078125,-0.3058267831802368,0.023661857470870018,0.007069224026054144
1772024884894754000,0.571754150390625,-0.34953072667121887,-0.009844139218330383,0.046729106456041336
1772024884904751000,0.581751220703125,-0.3823816180229187,-0.039810825139284134,0.08501071482896805
1772024884914747000,0.591746826171875,-0.40136101841926575,-0.05084008350968361,0.12197674810886383
1772024884924744000,0.601743896484375,-0.41497376561164856,-0.03370743617415428,0.1433057337999344
1772024884934741000,0.611740966796875,-0.4337371289730072,0.01608259417116642,0.1309603899717331
1772024884944737800,0.62173779296875,-0.4408925175666809,0.08210954815149307,0.0992482528090477
1772024884954735000,0.631735107421875,-0.4402027726173401,0.14959871768951416,0.04650256782770157
1772024884964731000,0.64173095703125,-0.42918795347213745,0.20246300101280212,-0.002133945468813181
1772024884974728000,0.65172802734375,-0.4181594252586365,0.2304760217666626,-0.05105426535010338
1772024884984725000,0.66172509765625,-0.4148600399494171,0.217686727643013,-0.0862487331032753
1772024884994721800,0.6717216796875,-0.4266265630722046,0.17569488286972046,-0.10727859288454056
1772024885004718000,0.681718017578125,-0.4492069482803345,0.11767631769180298,-0.10864373296499252
1772024885014715000,0.69171484375,-0.4759337604045868,0.07035187631845474,-0.08266796916723251
1772024885024712200,0.701712158203125,-0.49734050035476685,0.055201947689056396,-0.04774273559451103
1772024885034709000,0.711708984375,-0.5142207741737366,0.0650978535413742,0.008805799297988415
1772024885044705000,0.721705078125,-0.5355782508850098,0.10138954967260361,0.05964367836713791
1772024885054702000,0.7317021484375,-0.5490156412124634,0.1132643073797226,0.10284095257520676
1772024885064699000,0.741698974609375,-0.549415647983551,0.09627094119787216,0.1368466019630432
1772024885074696000,0.751696044921875,-0.5502213835716248,0.09424355626106262,0.1516593098640442
1772024885084692000,0.76169189453125,-0.552440881729126,0.06739702820777893,0.1439467966556549
1772024885094688800,0.771688720703125,-0.5602529048919678,0.054618027061223984,0.1309853494167328
1772024885104686000,0.78168603515625,-0.5637829303741455,0.06177766993641853,0.130859375
1772024885114683000,0.791682861328125,-0.5708710551261902,0.07854899764060974,0.14057651162147522
1772024885124680000,0.801679931640625,-0.5753081440925598,0.1387673318386078,0.1894252747297287
1772024885134676000,0.811676025390625,-0.573820948600769,0.2696171700954437,0.2695014476776123
1772024885144672800,0.8216728515625,-0.5740725994110107,0.43756303191185,0.35022905468940735
1772024885154670000,0.831670166015625,-0.5659764409065247,0.5555759072303772,0.4076821208000183
1772024885164667000,0.8416669921875,-0.556770920753479,0.5711215734481812,0.42577457427978516
1772024885174663200,0.8516630859375,-0.5579755902290344,0.5225298404693604,0.41778600215911865
1772024885184660000,0.861659912109375,-0.5486472845077515,0.4714165925979614,0.4042017459869385
1772024885194657000,0.871656982421875,-0.49976739287376404,0.45412564277648926,0.3837202787399292
1772024885204654000,0.881654052734375,-0.4386694133281708,0.43876081705093384,0.37360215187072754
1772024885214649900,0.89164990234375,-0.4745374619960785,0.3777785003185272,0.35708189010620117
1772024885224647200,0.901647216796875,-0.5845667719841003,0.3390204608440399,0.3852804899215698
1772024885234644000,0.91164404296875,-0.7815419435501099,0.3351822793483734,0.46375927329063416
1772024885244641000,0.92164111328125,-0.9746168255805969,0.27934324741363525,0.6020066142082214
1772024885254638000,0.93163818359375,-0.8681228756904602,-0.083920419216156,0.8772604465484619
1772024885264633900,0.9416337890625,-0.8210621476173401,-0.3160386085510254,1.1377381086349487
1772024885274631000,0.951630859375,-0.8889689445495605,-0.4158497154712677,1.334341287612915
1772024885284628000,0.9616279296875,-1.02827787399292,-0.5075751543045044,1.471804141998291
1772024885294625000,0.971625,-1.1368248462677002,-0.6462488770484924,1.5765293836593628
1772024885304621000,0.98162109375,-1.1391844749450684,-0.7730600833892822,1.6395344734191895
1772024885314617900,0.991617919921875,-1.1115312576293945,-0.88933926820755,1.6921011209487915
1772024885324615000,1.001614990234375,-1.095890998840332,-1.0530906915664673,1.7487441301345825
1772024885334612000,1.011612060546875,-1.0994459390640259,-1.2723720073699951,1.808866024017334
1772024885344608000,1.02160791015625,-1.1778250932693481,-1.4496304988861084,1.8609002828598022
1772024885354605000,1.03160498046875,-1.3305046558380127,-1.4970849752426147,1.9053094387054443
1772024885364602000,1.04160205078125,-1.536730170249939,-1.4228925704956055,1.9445290565490723
1772024885374599000,1.051598876953125,-1.7579737901687622,-1.3044042587280273,1.9727728366851807
1772024885384596500,1.061596435546875,-1.9399476051330566,-1.1756683588027954,2.010972261428833
1772024885394592500,1.071592529296875,-2.082597255706787,-1.10518217086792,2.042328119277954
1772024885404589600,1.081589599609375,-2.146784782409668,-1.0401818752288818,2.026521921157837
1772024885414586600,1.091586669921875,-2.154787302017212,-0.7488285303115845,1.7743884325027466
1772024885424583700,1.101583740234375,-2.0339667797088623,-0.7909059524536133,1.622289776802063
1772024885434579700,1.111579833984375,-1.829966425895691,-0.5699946880340576,1.3269888162612915
1772024885444576500,1.121576416015625,-1.550592064857483,-0.7948051691055298,1.0205508470535278
1772024885454573600,1.131573486328125,-1.3324586153030396,-0.9287009835243225,0.6982142925262451
1772024885464570600,1.141570556640625,-1.1305561065673828,-1.0044958591461182,0.4881761074066162
1772024885474566700,1.151566650390625,-0.9596251249313354,-1.1605135202407837,0.39450138807296753
1772024885484563700,1.161563720703125,-0.925366222858429,-1.2289482355117798,0.31902074813842773
1772024885494560800,1.171560791015625,-0.9748243093490601,-1.3298962116241455,0.18458929657936096
1772024885504557600,1.1815576171875,-1.0406163930892944,-1.4413154125213623,-0.0030032354407012463
1772024885514554600,1.1915546875,-1.0482248067855835,-1.4545164108276367,-0.15578985214233398
1772024885524550700,1.201550537109375,-1.0163257122039795,-1.3131240606307983,-0.2195856124162674
1772024885534547500,1.21154736328125,-0.9912526607513428,-1.143981695175171,-0.19100415706634521
1772024885544544800,1.221544677734375,-0.9900127053260803,-1.093756079673767,-0.08399833738803864
1772024885554541600,1.23154150390625,-0.9947155117988586,-1.1959339380264282,0.10540205985307693
1772024885564537600,1.24153759765625,-0.9818620085716248,-1.335473895072937,0.3362555205821991
1772024885574534700,1.25153466796875,-0.9318711161613464,-0.9490347504615784,0.5449328422546387
1772024885584531500,1.261531494140625,-0.7933512926101685,-0.39936625957489014,0.7526495456695557
1772024885594528800,1.27152880859375,-0.6809601187705994,-0.635512113571167,0.8284938931465149
1772024885604525600,1.281525634765625,-0.6552603840827942,-0.5937944650650024,0.8175070285797119
1772024885614521600,1.291521484375,-0.6900312304496765,-0.4874548614025116,0.6601983904838562
1772024885624518700,1.3015185546875,-0.7428097724914551,-0.36784669756889343,0.36697956919670105
1772024885634515500,1.311515380859375,-0.7021933197975159,-0.09240300208330154,0.06089334189891815
1772024885644512800,1.3215126953125,-0.5629677772521973,0.4278348684310913,-0.1184050440788269
1772024885654508500,1.331508544921875,-0.42093393206596375,1.0013893842697144,-0.21320003271102905
1772024885664505600,1.341505615234375,-0.4046795964241028,1.3131775856018066,-0.30641627311706543
1772024885674502700,1.351502685546875,-0.5618749260902405,1.2067720890045166,-0.45991086959838867
1772024885684499500,1.36149951171875,-0.8465716242790222,0.8434602618217468,-0.6153420209884644
1772024885694495700,1.371495849609375,-1.0653678178787231,0.7329522967338562,-0.5743573904037476
1772024885704492500,1.381492431640625,-1.1145747900009155,0.7259684205055237,-0.36403289437294006
1772024885714489600,1.391489501953125,-1.065552830696106,0.44006800651550293,-0.13827377557754517
1772024885724486700,1.401486572265625,-0.9766985177993774,0.006526682060211897,0.03658325970172882
1772024885734483700,1.411483642578125,-0.9230926632881165,-0.5025927424430847,0.15259279310703278
1772024885744479700,1.421479736328125,-0.8919145464897156,-0.8233593106269836,0.2579492926597595
1772024885754476500,1.4314765625,-0.8019745349884033,-0.8890419006347656,0.3612757623195648
1772024885764473600,1.4414736328125,-0.6415444016456604,-0.7164256572723389,0.49512651562690735
1772024885774470700,1.451470703125,-0.48185598850250244,-0.5544613599777222,0.5652686357498169
1772024885784466400,1.461466552734375,-0.42261797189712524,-0.5371955633163452,0.5206316709518433
1772024885794463700,1.471463623046875,-0.4684569537639618,-0.6584465503692627,0.3589048981666565
1772024885804460500,1.48146044921875,-0.591457724571228,-0.8984003067016602,0.1755657196044922
1772024885814457600,1.49145751953125,-0.7730958461761475,-1.1122725009918213,0.08539912104606628
1772024885824454700,1.50145458984375,-0.9795241355895996,-1.231677770614624,0.051468588411808014
1772024885834450700,1.51145068359375,-1.1527525186538696,-1.190390706062317,0.008246798068284988
1772024885844447500,1.521447509765625,-1.2183687686920166,-1.025313138961792,-0.033303841948509216
1772024885854444500,1.531444580078125,-1.2720236778259277,-0.840445339679718,-0.09124548733234406
1772024885864441600,1.541441650390625,-1.3990592956542969,-0.7910367846488953,-0.17839930951595306
1772024885874437600,1.551437744140625,-1.5550137758255005,-0.9463443756103516,-0.28268542885780334
1772024885884434700,1.5614345703125,-1.5612282752990723,-1.115993857383728,-0.3082086443901062
1772024885894431500,1.571431396484375,-1.4104716777801514,-1.2485078573226929,-0.3113115429878235
1772024885904428800,1.5814287109375,-1.1957032680511475,-1.2357650995254517,-0.410840779542923
1772024885914425600,1.591425537109375,-1.019379734992981,-1.3872499465942383,-0.5790973901748657
1772024885924421600,1.601421630859375,-0.7767468094825745,-1.7977758646011353,-0.5850993394851685
1772024885934418700,1.611418701171875,-0.4188946485519409,-2.0664525032043457,-0.22161228954792023
1772024885944415500,1.62141552734375,-0.2428213655948639,-0.20105476677417755,-0.7315628528594971
1772024885954412800,1.631412841796875,-0.3715319037437439,-0.22538164258003235,-0.5457408428192139
1772024885964408600,1.64140869140625,-0.9852661490440369,0.04819902777671814,-0.6940589547157288
1772024885974405600,1.651405517578125,-1.450913429260254,0.41815823316574097,-1.0796047449111938
1772024885984402700,1.661402587890625,-1.5240671634674072,1.142376184463501,-1.3874293565750122
1772024885994399500,1.6713994140625,-1.2942599058151245,1.7417913675308228,-1.3225685358047485
1772024886004395800,1.681395751953125,-1.0202305316925049,1.8931740522384644,-0.8301252722740173
1772024886014392600,1.691392578125,-0.664389967918396,1.5402696132659912,-0.14605067670345306
1772024886024389600,1.7013896484375,-0.37410032749176025,0.7724655270576477,0.5264132022857666
1772024886034386700,1.71138671875,-0.3133569359779358,-0.07991109043359756,1.103349208831787
1772024886044383500,1.721383544921875,-0.3570103943347931,-0.889654815196991,1.4262079000473022
1772024886054379800,1.7313798828125,-0.48481711745262146,-1.589665174484253,1.3908874988555908
1772024886064376600,1.74137646484375,-0.7751246094703674,-1.9689855575561523,1.0397348403930664
1772024886074373600,1.75137353515625,-1.104411005973816,-1.9672576189041138,0.5617367625236511
1772024886084370700,1.76137060546875,-1.3213526010513306,-1.714266061782837,0.23619650304317474
1772024886094366500,1.771366455078125,-1.428581714630127,-1.491063117980957,0.1341797560453415
1772024886104363800,1.78136376953125,-1.451202392578125,-1.4233388900756836,0.19149470329284668
1772024886114360600,1.791360595703125,-1.3745917081832886,-1.4850012063980103,0.28492096066474915
1772024886124357600,1.801357666015625,-1.2197519540786743,-1.598838210105896,0.3094899356365204
1772024886134354700,1.811354736328125,-1.0103622674942017,-1.6317431926727295,0.2881825268268585
1772024886144350500,1.8213505859375,-0.7206066250801086,-1.4607927799224854,0.28217655420303345
1772024886154347800,1.83134765625,-0.40482455492019653,-1.123609185218811,0.29050156474113464
1772024886164344600,1.841344482421875,-0.13279861211776733,-0.7394489645957947,0.240943044424057
1772024886174341600,1.851341552734375,0.04544702172279358,-0.3690614104270935,0.11611728370189667
1772024886184337700,1.861337646484375,0.1557631492614746,-0.03513403236865997,-0.038765501230955124
1772024886194334500,1.87133447265625,0.2230575829744339,0.31234848499298096,-0.15797945857048035
1772024886204331500,1.88133154296875,0.292851060628891,0.5097875595092773,-0.24033425748348236
1772024886214328600,1.89132861328125,0.2691989243030548,0.5160911679267883,-0.28660082817077637
1772024886224325600,1.90132568359375,0.15698875486850739,0.23068739473819733,-0.27359262108802795
1772024886234321700,1.91132177734375,0.02348819188773632,-0.37637871503829956,-0.22297900915145874
1772024886244318700,1.921318603515625,-0.13399197161197662,-1.0847748517990112,-0.10973022878170013
1772024886254315500,1.9313154296875,-0.3100318908691406,-1.7141401767730713,0.1059785708785057
1772024886264312600,1.9413125,-0.5376826524734497,-2.0986969470977783,0.4379251003265381
1772024886274308600,1.95130859375,-0.7573395371437073,-2.1638619899749756,0.8749300241470337
1772024886284305700,1.9613056640625,-0.8793847560882568,-0.9792745113372803,1.3027774095535278
1772024886294302700,1.971302734375,-0.7922376394271851,-0.06784357875585556,1.503043532371521
1772024886304299500,1.981299560546875,-0.664482593536377,-0.06650268286466599,1.3739404678344727
1772024886314296800,1.991296875,-0.7154812812805176,-0.08598072826862335,1.1904255151748657
1772024886324292600,2.001292724609375,-0.8845677971839905,-0.4490039348602295,0.8816829919815063
1772024886334289700,2.01128955078125,-1.0034395456314087,-1.2326927185058594,0.7016911506652832
1772024886344286700,2.02128662109375,-1.0358374118804932,-1.869914174079895,0.9810628294944763
1772024886354283500,2.031283447265625,-1.0640610456466675,-1.6718250513076782,1.7151890993118286
1772024886364279600,2.041279541015625,-1.0494056940078735,-1.0571783781051636,2.4420974254608154
1772024886374276600,2.051276611328125,-0.8372250199317932,-0.4566112458705902,2.644279956817627
1772024886384277000,2.061277099609375,-0.342713326215744,-0.10328648239374161,2.2167181968688965
1772024886394274300,2.0712744140625,0.13665542006492615,0.28360462188720703,1.4596235752105713
1772024886404270000,2.08127001953125,0.23249326646327972,0.6425886154174805,0.6587380170822144
1772024886414267100,2.09126708984375,0.058027226477861404,0.6139447689056396,-0.08159872144460678
1772024886424264200,2.10126416015625,-0.2629319131374359,0.6741556525230408,-0.5349483489990234
1772024886434261000,2.111260986328125,-0.7910144925117493,0.945233166217804,-0.41340017318725586
1772024886444258300,2.12125830078125,-0.8711021542549133,1.05475914478302,0.06758830696344376
1772024886454254000,2.131254150390625,-0.5389477610588074,0.8591471314430237,0.5269787311553955
1772024886464251100,2.141251220703125,-0.22420206665992737,0.4342286288738251,0.7677226662635803
1772024886474248200,2.151248291015625,-0.0240206066519022,-0.08296713978052139,0.7893944382667542
1772024886484245000,2.161244873046875,0.11964495480060577,-0.5649742484092712,0.6485598087310791
1772024886494241300,2.1712412109375,0.21309000253677368,-1.0206595659255981,0.39392706751823425
1772024886504238000,2.181238037109375,0.2305281162261963,-1.2823814153671265,0.14996658265590668
1772024886514235100,2.191235107421875,0.09162667393684387,-1.3039401769638062,-0.05429646745324135
1772024886524232200,2.201232177734375,-0.13756150007247925,-1.247994065284729,-0.18319132924079895
1772024886534229000,2.21122900390625,-0.266874223947525,-1.0215543508529663,-0.3839433193206787
1772024886544225300,2.221225341796875,-0.2491098940372467,-0.4751698076725006,-0.7666366100311279
1772024886554222000,2.23122216796875,-0.10515253245830536,0.2876342833042145,-1.2555973529815674
1772024886564219100,2.24121923828125,0.12198048830032349,1.0955678224563599,-1.7172855138778687
1772024886574216200,2.25121630859375,0.4069347679615021,1.8265095949172974,-2.0194270610809326
1772024886584212000,2.2612119140625,0.6686300039291382,2.290867567062378,-2.1021108627319336
1772024886594209300,2.271209228515625,0.7880615592002869,2.3675544261932373,-1.9509294033050537
1772024886604206000,2.2812060546875,0.7478899359703064,2.1017978191375732,-1.5633983612060547
1772024886614203100,2.291203125,0.5984965562820435,1.559134602546692,-1.0292444229125977
1772024886624200200,2.3012001953125,0.3684724271297455,0.7743082046508789,-0.47251859307289124
1772024886634196000,2.311196044921875,0.05385538190603256,-0.14371100068092346,0.049603234976530075
1772024886644193300,2.321193359375,-0.2860143184661865,-1.054734706878662,0.5186623334884644
1772024886654190000,2.331190185546875,-0.5769410729408264,-1.7119379043579102,0.8651505708694458
1772024886664187100,2.341187255859375,-0.8073748350143433,-2.07478928565979,1.0225367546081543
1772024886674183200,2.35118310546875,-1.0011731386184692,-2.1399285793304443,1.046656847000122
1772024886684180200,2.36118017578125,-1.1448734998703003,-1.9151784181594849,0.9895610809326172
1772024886694177000,2.371177001953125,-1.245081901550293,-1.534156084060669,0.8822916150093079
1772024886704174000,2.381174072265625,-1.3189595937728882,-1.1136401891708374,0.7637575268745422
1772024886714171100,2.391171142578125,-1.3791474103927612,-0.661875307559967,0.6748812198638916
1772024886724167200,2.401167236328125,-1.403357982635498,-0.23449470102787018,0.6270298361778259
1772024886734164200,2.411164306640625,-1.3679617643356323,0.12282252311706543,0.5800479054450989
1772024886744161000,2.4211611328125,-1.3063522577285767,0.3680775463581085,0.5181803107261658
1772024886754158300,2.431158447265625,-1.2148336172103882,0.45788517594337463,0.45942047238349915
1772024886764154000,2.441154052734375,-1.085065245628357,0.44132137298583984,0.4518030285835266
1772024886774151200,2.451151123046875,-0.9616930484771729,0.36176902055740356,0.5098129510879517
1772024886784148200,2.461148193359375,-0.9343242645263672,0.2528742253780365,0.6186614036560059
1772024886794145000,2.47114501953125,-1.0212880373001099,0.07798592001199722,0.7369596362113953
1772024886804142300,2.481142333984375,-1.238721489906311,-0.023808354511857033,0.8282229900360107
1772024886814138000,2.49113818359375,-1.3989555835723877,0.15015046298503876,0.9359841346740723
1772024886824135200,2.50113525390625,-1.234028697013855,0.6500393748283386,1.0528172254562378
1772024886834132200,2.51113232421875,-0.7648412585258484,1.19315505027771,1.0205199718475342
1772024886844129000,2.52112890625,-0.2619629204273224,1.4529411792755127,0.7147065997123718
1772024886854125300,2.531125244140625,-0.08484327048063278,1.202821135520935,0.18087434768676758
1772024886864122000,2.5411220703125,-0.15193629264831543,0.9403131008148193,-0.3129657506942749
1772024886874119200,2.551119140625,-0.5085560083389282,0.638525664806366,-0.579399049282074
1772024886884116200,2.5611162109375,-0.8004669547080994,0.3809579908847809,-0.5158059597015381
1772024886894113000,2.571113037109375,-0.6536149978637695,0.3580225110054016,-0.10634630918502808
1772024886904109300,2.581109375,-0.2822239100933075,0.43315666913986206,0.36883246898651123
1772024886914106000,2.591106201171875,0.0882723405957222,0.36904436349868774,0.527089536190033
1772024886924103200,2.601103271484375,0.2519209384918213,0.14880360662937164,0.4170709550380707
1772024886934100200,2.611100341796875,0.19661693274974823,-0.2477484941482544,0.1405106782913208
1772024886944096000,2.621095947265625,0.0313400961458683,-0.6993710994720459,-0.3414034843444824
1772024886954093300,2.63109326171875,-0.17218676209449768,-0.9821200370788574,-0.9157119989395142
1772024886964090000,2.641090087890625,-0.30939894914627075,-0.9814430475234985,-1.4551647901535034
1772024886974087200,2.651087158203125,-0.31132858991622925,-0.7418262958526611,-1.9500348567962646
1772024886984084200,2.661084228515625,-0.24945992231369019,-0.4013909697532654,-2.3589730262756348
1772024886994080000,2.671080078125,-0.11622190475463867,-0.06093241646885872,-2.589083433151245
1772024887004077300,2.681077392578125,0.04414379969239235,0.1576148420572281,-2.5294907093048096
1772024887014074000,2.69107421875,0.21236327290534973,0.27034637331962585,-2.089341402053833
1772024887024071200,2.7010712890625,0.3705883026123047,0.32660380005836487,-1.300074577331543
1772024887034067200,2.711067138671875,0.4629625380039215,0.2652076780796051,-0.3270317614078522
1772024887044064000,2.72106396484375,0.48552748560905457,0.06232116371393204,0.6145208477973938
1772024887054061000,2.73106103515625,0.4862767457962036,-0.24841830134391785,1.3761916160583496
1772024887064058000,2.74105810546875,0.45290493965148926,-0.6629012227058411,1.8599307537078857
1772024887074055200,2.75105517578125,0.3424821197986603,-1.1404814720153809,2.0177948474884033
1772024887084051200,2.76105126953125,0.18556228280067444,-1.582181692123413,1.8531190156936646
1772024887094048300,2.77104833984375,0.05511735379695892,-1.8279433250427246,1.5073386430740356
1772024887104045000,2.781045166015625,-0.041391078382730484,-1.805551290512085,1.1408860683441162
1772024887114042000,2.7910419921875,-0.17805162072181702,-1.5208015441894531,0.8586979508399963
1772024887124038100,2.8010380859375,-0.32391321659088135,-1.0654581785202026,0.7318689227104187
1772024887134035200,2.81103515625,-0.42013466358184814,-0.6313638091087341,0.737652063369751
1772024887144032300,2.8210322265625,-0.4518481194972992,-0.2843686044216156,0.8165916204452515
1772024887154029000,2.831029052734375,-0.4426383376121521,-0.008891194127500057,0.8657670617103577
1772024887164026400,2.8410263671875,-0.4127177298069,0.16932009160518646,0.8793725967407227
1772024887174022100,2.851022216796875,-0.3818637430667877,0.30732637643814087,0.8758535981178284
1772024887184019200,2.861019287109375,-0.35379964113235474,0.36823606491088867,0.8560615181922913
1772024887194016300,2.871016357421875,-0.31244897842407227,0.37153884768486023,0.825252115726471
1772024887204013000,2.881012939453125,-0.27083414793014526,0.3255321979522705,0.7626801133155823
1772024887214010000,2.891010009765625,-0.2529065012931824,0.23504173755645752,0.7157965898513794
1772024887224006100,2.901006103515625,-0.21530771255493164,0.18260303139686584,0.7311861515045166
1772024887234003000,2.9110029296875,-0.17195473611354828,0.13453996181488037,0.7203425168991089
1772024887244000300,2.921000244140625,-0.14521794021129608,0.023384692147374153,0.5816813111305237
1772024887253997000,2.9309970703125,-0.151191845536232,0.09636171907186508,0.37293681502342224
1772024887263993300,2.940993408203125,-0.17109178006649017,0.45085057616233826,0.22419820725917816
1772024887273990100,2.950990234375,-0.12271526455879211,0.8796011209487915,0.07178438454866409
1772024887283987000,2.960987060546875,-0.01930764503777027,1.2357150316238403,-0.32727164030075073
1772024887293984300,2.970984375,0.009091407060623169,1.4160621166229248,-0.9492610692977905
1772024887303981000,2.98098095703125,-0.16014474630355835,1.4681780338287354,-1.4570521116256714
1772024887313977300,2.990977294921875,-0.6636528372764587,1.378833293914795,-1.609542727470398
1772024887323974100,3.00097412109375,-1.1571825742721558,1.218630313873291,-1.2464503049850464
1772024887333971200,3.01097119140625,-1.1540815830230713,1.0327774286270142,-0.5246633887290955
1772024887343968300,3.02096826171875,-0.7880675792694092,0.6660134792327881,0.10227619111537933
1772024887353964000,3.030964111328125,-0.36071503162384033,0.19845595955848694,0.3508364260196686
1772024887363961300,3.04096142578125,-0.080051951110363,-0.24499177932739258,0.3705006539821625
1772024887373958100,3.050958251953125,0.03329181671142578,-0.695075511932373,0.3052361309528351
1772024887383951000,3.060951171875,0.05367858335375786,-1.198973536491394,0.13490699231624603
1772024887393948200,3.0709482421875,0.1154351681470871,-1.5906565189361572,0.0029691020026803017
1772024887403944000,3.08094384765625,0.2882135808467865,-1.836397647857666,0.042862989008426666
1772024887413941200,3.090941162109375,0.5081539154052734,-1.831729531288147,0.17315809428691864
1772024887423938000,3.10093798828125,0.6850927472114563,-1.484126091003418,0.21650423109531403
1772024887433935000,3.11093505859375,0.7912240028381348,-0.8377395868301392,0.16724826395511627
1772024887443932200,3.12093212890625,0.7983487844467163,-0.13158828020095825,0.07109883427619934
1772024887453928000,3.130927978515625,0.6637300252914429,0.47646278142929077,-0.04577143117785454
1772024887463925200,3.14092529296875,0.4241054356098175,0.8413211703300476,-0.11310520023107529
1772024887473922000,3.150922119140625,0.15553216636180878,1.0036981105804443,-0.04562900960445404
1772024887483919000,3.160919189453125,-0.051837258040905,0.9841697812080383,0.15930895507335663
1772024887493915100,3.1709150390625,-0.16407150030136108,0.801176130771637,0.4841970205307007
1772024887503912200,3.180912109375,-0.18722635507583618,0.4559558928012848,0.8675151467323303
1772024887513909000,3.190908935546875,-0.17360076308250427,-0.01035715825855732,1.211459994316101
1772024887523906000,3.200906005859375,-0.18405979871749878,-0.47054365277290344,1.4158613681793213
1772024887533903000,3.210903076171875,-0.2227415144443512,-0.9313356280326843,1.382678508758545
1772024887543899100,3.220899169921875,-0.28745579719543457,-1.2763985395431519,1.094248652458191
1772024887553896200,3.230896240234375,-0.41331470012664795,-1.394051194190979,0.6863853335380554
1772024887563893000,3.24089306640625,-0.5729264616966248,-1.2657997608184814,0.3050867021083832
1772024887573890300,3.250890380859375,-0.7126215696334839,-0.9688500165939331,0.03826482594013214
1772024887583886000,3.260885986328125,-0.7829940319061279,-0.6296687126159668,-0.11268819868564606
1772024887593883100,3.270883056640625,-0.7813722491264343,-0.35064831376075745,-0.12961578369140625
1772024887603880200,3.280880126953125,-0.713543176651001,-0.15590253472328186,-0.04639359936118126
1772024887613877000,3.290876953125,-0.6074116826057434,-0.04826412349939346,0.08651768416166306
1772024887623874300,3.300874267578125,-0.4670838713645935,-0.02851092629134655,0.26590076088905334
1772024887633870000,3.3108701171875,-0.32461825013160706,-0.09932480752468109,0.4707794487476349
1772024887643867100,3.3208671875,-0.23683248460292816,-0.21651028096675873,0.6909615993499756
1772024887653864200,3.3308642578125,-0.20158840715885162,-0.3470788300037384,0.9168695211410522
1772024887663861000,3.340861083984375,-0.22371341288089752,-0.47181037068367004,1.1413577795028687
1772024887673858000,3.350858154296875,-0.2917608320713043,-0.5431646704673767,1.3388797044754028
1772024887683854000,3.36085400390625,-0.40763339400291443,-0.6132886409759521,1.4173758029937744
1772024887693851000,3.370850830078125,-0.5844997763633728,-0.7356711030006409,1.3329648971557617
1772024887703848200,3.38084814453125,-0.7101802229881287,-0.784744381904602,1.1513258218765259
1772024887713845000,3.390844970703125,-0.6383588910102844,-0.608762264251709,0.9017918705940247
1772024887723841300,3.40084130859375,-0.3104771375656128,-0.013955888338387012,0.5675190687179565
1772024887733838000,3.410838134765625,0.20115402340888977,1.1031372547149658,0.0916157215833664
1772024887743835100,3.420835205078125,0.6858810782432556,2.231266736984253,-0.7575206756591797
1772024887753832200,3.430832275390625,0.8571004271507263,2.726726531982422,-2.1807076930999756
1772024887763829000,3.4408291015625,0.48921290040016174,2.865806818008423,-3.597050905227661
1772024887773825300,3.4508251953125,-0.40983977913856506,2.3823866844177246,-4.515763282775879
1772024887783822000,3.460822021484375,-1.137324571609497,1.885954737663269,-4.541858196258545
1772024887793819100,3.470819091796875,-1.351226806640625,1.559508204460144,-3.730405330657959
1772024887803816200,3.480816162109375,-1.0041601657867432,1.1018311977386475,-2.580561399459839
1772024887813813200,3.490813232421875,-0.4330016076564789,0.48797309398651123,-1.5324411392211914
1772024887823809000,3.50080908203125,0.014485107734799385,-0.4054735004901886,-0.6977398991584778
1772024887833806000,3.51080615234375,0.3524961769580841,-1.536591649055481,-0.2450212687253952
1772024887843803100,3.52080322265625,0.6961544752120972,-2.3802974224090576,-0.1556306630373001
1772024887853800000,3.530800048828125,0.9057870507240295,-2.7489798069000244,-0.15497562289237976
1772024887863796000,3.5407958984375,0.9634170532226562,-2.586162805557251,-0.2784826457500458
1772024887873793000,3.55079296875,0.8895513415336609,-1.8168057203292847,-0.6358301043510437
1772024887883790000,3.5607900390625,0.8062692284584045,-0.7094705700874329,-1.1296504735946655
1772024887893787100,3.570787109375,0.848889172077179,0.3447309732437134,-1.603379487991333
1772024887903784000,3.580783935546875,0.9656714200973511,1.077445149421692,-1.8693512678146362
1772024887913780200,3.5907802734375,1.0239983797073364,1.3347439765930176,-1.7797340154647827
1772024887923777000,3.600777099609375,0.9972031712532043,1.1821101903915405,-1.277030110359192
1772024887933774000,3.610774169921875,0.9137240052223206,0.812889039516449,-0.44648492336273193
1772024887943771100,3.620771240234375,0.8042123913764954,0.37753358483314514,0.4884744882583618
1772024887953768000,3.630767822265625,0.6126062870025635,-0.09761812537908554,1.2779840230941772
1772024887963764200,3.64076416015625,0.32000795006752014,-0.5774227976799011,1.8545211553573608
1772024887973761000,3.650760986328125,0.012800739146769047,-1.00413179397583,2.189805269241333
1772024887983758300,3.66075830078125,-0.23073548078536987,-1.3619297742843628,2.244821548461914
1772024887993755100,3.670755126953125,-0.39381393790245056,-1.6155909299850464,2.052873134613037
1772024888003751000,3.6807509765625,-0.47024720907211304,-1.6867647171020508,1.6968822479248047
1772024888013748200,3.690748291015625,-0.4876241981983185,-1.596976637840271,1.2912112474441528
1772024888023745000,3.7007451171875,-0.47849249839782715,-1.3415778875350952,0.9453418254852295
1772024888033742000,3.7107421875,-0.45736050605773926,-0.932007372379303,0.6830626130104065
1772024888043739100,3.7207392578125,-0.4313792288303375,-0.4248112440109253,0.49539631605148315
1772024888053735000,3.73073486328125,-0.4109593331813812,0.08087990432977676,0.3799698054790497
1772024888063732200,3.740732177734375,-0.43144702911376953,0.5114123821258545,0.314456582069397
1772024888073729000,3.75072900390625,-0.48742416501045227,0.7965163588523865,0.31140294671058655
1772024888083726000,3.76072607421875,-0.53269362449646,0.8814610838890076,0.3490235507488251
1772024888093723100,3.77072314453125,-0.5417019724845886,0.8122001886367798,0.40132689476013184
1772024888103719000,3.780718994140625,-0.48815757036209106,0.6555085778236389,0.4385472238063812
1772024888113716200,3.79071630859375,-0.3532993793487549,0.48757079243659973,0.4491587281227112
1772024888123713000,3.800713134765625,-0.20988893508911133,0.2633803188800812,0.46334725618362427
1772024888133710000,3.8107099609375,-0.13561707735061646,0.05516534298658371,0.5051430463790894
1772024888143706000,3.8207060546875,-0.0702042505145073,-0.1213548332452774,0.5906009674072266
1772024888153703200,3.830703125,-0.07475926727056503,-0.27087604999542236,0.7334120273590088
1772024888163700200,3.8407001953125,-0.026251651346683502,-0.2509143352508545,0.9782241582870483
1772024888173697000,3.850697021484375,0.07785383611917496,0.22857430577278137,1.034722924232483
1772024888183694000,3.860694091796875,0.2227148860692978,0.8945456743240356,0.705149233341217
1772024888193690000,3.870690185546875,0.32347556948661804,1.265531301498413,0.012101400643587112
1772024888203687200,3.880687255859375,0.15621119737625122,1.3806886672973633,-0.8688738346099854
1772024888213684000,3.89068408203125,-0.2874298095703125,1.6445894241333008,-1.4137554168701172
1772024888223681300,3.900681396484375,-0.8960443735122681,1.4797080755233765,-1.601383090019226
1772024888233678000,3.910677978515625,-1.2590383291244507,1.3506178855895996,-1.4045897722244263
1772024888243674000,3.920674072265625,-1.154995322227478,1.105883240699768,-0.9820927977561951
1772024888253671200,3.930671142578125,-0.6779460906982422,0.7098942399024963,-0.6643952131271362
1772024888263668000,3.94066796875,-0.20725233852863312,0.41531988978385925,-0.5210843682289124
1772024888273665300,3.950665283203125,0.07275783270597458,0.1465614140033722,-0.5233786702156067
1772024888283662000,3.960662109375,0.25728505849838257,-0.1192374974489212,-0.6965895891189575
1772024888293658000,3.970658203125,0.44235333800315857,-0.2613163888454437,-1.0106241703033447
1772024888303655200,3.9806552734375,0.6191366314888,-0.29801446199417114,-1.3429718017578125
1772024888313652000,3.99065185546875,0.7601857781410217,-0.19515976309776306,-1.6075916290283203
1772024888323649300,4.000649169921875,0.7989201545715332,0.010976359248161316,-1.8396430015563965
1772024888333645000,4.01064501953125,0.7168931365013123,0.19432327151298523,-2.0190086364746094
1772024888343642000,4.02064208984375,0.6107890605926514,0.3216513991355896,-2.019474744796753
1772024888353639200,4.03063916015625,0.5155797600746155,0.39389845728874207,-1.7941323518753052
1772024888363636000,4.040635986328125,0.33222296833992004,0.30192646384239197,-1.3262194395065308
1772024888373633000,4.050633056640625,0.11203861236572266,0.08971384167671204,-0.6188384294509888
1772024888383629000,4.060629150390625,-0.0496557354927063,-0.11713361740112305,0.21054312586784363
1772024888393626000,4.070626220703125,-0.16499316692352295,-0.29135632514953613,1.0037575960159302
1772024888403623200,4.080623046875,-0.22325433790683746,-0.4672618508338928,1.6473840475082397
1772024888413620200,4.0906201171875,-0.23629184067249298,-0.6963469982147217,2.129196882247925
1772024888423617000,4.100616943359375,-0.22745388746261597,-0.9296543002128601,2.372417688369751
1772024888433613000,4.110613037109375,-0.20937269926071167,-1.1150853633880615,2.325793743133545
1772024888443610000,4.120610107421875,-0.1945420801639557,-1.2392507791519165,2.023073673248291
1772024888453607200,4.130607177734375,-0.230962336063385,-1.2649552822113037,1.5512094497680664
1772024888463604200,4.140604248046875,-0.3398720622062683,-1.099648356437683,1.0220891237258911
1772024888473601000,4.15060107421875,-0.4643625319004059,-0.7826843857765198,0.5356495976448059
1772024888483597000,4.16059716796875,-0.5442285537719727,-0.41278114914894104,0.18827615678310394
1772024888493594000,4.170593994140625,-0.5589525103569031,-0.049154747277498245,0.04028797522187233
1772024888503591200,4.180591064453125,-0.5154567360877991,0.22871334850788116,0.05013874173164368
1772024888513588200,4.190588134765625,-0.4375404715538025,0.42330044507980347,0.148492693901062
1772024888523584000,4.200583984375,-0.34651389718055725,0.521149754524231,0.27111876010894775
1772024888533581300,4.210581298828125,-0.2601473927497864,0.4775950312614441,0.37475496530532837
1772024888543578000,4.220578125,-0.20361222326755524,0.3503880798816681,0.4642781615257263
1772024888553575000,4.230574951171875,-0.15727853775024414,0.21755506098270416,0.5505011081695557
1772024888563572200,4.240572265625,-0.11293903738260269,0.1313203126192093,0.6399612426757812
1772024888573568000,4.250568115234375,-0.02060105837881565,0.15963786840438843,0.7072932720184326
1772024888583565300,4.2605654296875,0.07629140466451645,0.19046342372894287,0.745893657207489
1772024888593562000,4.27056201171875,0.12897680699825287,0.2517068684101105,0.7516486644744873
1772024888603559200,4.28055908203125,0.16226498782634735,0.31951066851615906,0.6861841678619385
1772024888613556200,4.29055615234375,0.17074833810329437,0.2978650629520416,0.5239547491073608
1772024888623552000,4.300552001953125,0.1992550790309906,0.42961084842681885,0.3482398986816406
1772024888633549300,4.31054931640625,0.3803611397743225,0.6726913452148438,0.11447998136281967
1772024888643546000,4.320546142578125,0.7422754168510437,0.6741079092025757,-0.3489989936351776
1772024888653543200,4.330543212890625,0.8866698741912842,0.44125938415527344,-1.1295310258865356
1772024888663540200,4.340540283203125,0.6061031818389893,0.6703000664710999,-1.9026315212249756
1772024888673536000,4.350535888671875,-0.1845943182706833,0.9124969840049744,-2.3885319232940674
1772024888683533300,4.360533203125,-0.8876089453697205,1.430813193321228,-2.198511838912964
1772024888693530000,4.370530029296875,-1.1083709001541138,1.8939982652664185,-1.5173405408859253
1772024888703527200,4.380527099609375,-0.8809738755226135,1.7804895639419556,-0.9049203395843506
1772024888713523200,4.390523193359375,-0.40600448846817017,1.3581736087799072,-0.5776295065879822
1772024888723520000,4.40052001953125,-0.09601868689060211,0.8191564679145813,-0.4339863359928131
1772024888733517000,4.41051708984375,0.018940776586532593,0.12932634353637695,-0.4965113401412964
1772024888743514000,4.42051416015625,-0.019116060808300972,-0.5021048784255981,-0.6919404864311218
1772024888753511200,4.43051123046875,-0.09934712946414948,-0.8993713855743408,-0.7849933505058289
1772024888763507200,4.440507080078125,-0.07730600982904434,-1.0360512733459473,-0.7334414720535278
1772024888773504300,4.450504150390625,0.05624072998762131,-0.9147734045982361,-0.5925762057304382
1772024888783501000,4.4605009765625,0.23435001075267792,-0.5784137845039368,-0.4492962658405304
1772024888793498000,4.470498046875,0.44069480895996094,-0.19063352048397064,-0.31911343336105347
1772024888803495200,4.4804951171875,0.6229226589202881,0.0815921425819397,-0.16653640568256378
1772024888813491200,4.4904912109375,0.7052223086357117,0.16187168657779694,-0.009806615300476551
1772024888823488300,4.50048828125,0.621512234210968,0.08119574934244156,0.152718648314476
1772024888833485000,4.510485107421875,0.4231451451778412,-0.015101739205420017,0.38271674513816833
1772024888843482400,4.520482421875,0.24924632906913757,-0.07345426082611084,0.6982134580612183
1772024888853479200,4.530479248046875,0.17952102422714233,-0.15501931309700012,1.0516011714935303
1772024888863475200,4.54047509765625,0.15984824299812317,-0.290973424911499,1.3490480184555054
1772024888873472300,4.55047216796875,0.13390479981899261,-0.45609286427497864,1.5286492109298706
1772024888883469000,4.560468994140625,0.11127591133117676,-0.6406246423721313,1.574802279472351
1772024888893466000,4.570466064453125,0.07280757278203964,-0.8185645937919617,1.4554907083511353
1772024888903463200,4.580463134765625,-0.01076242234557867,-0.9307358860969543,1.211906909942627
1772024888913459000,4.590458984375,-0.14855538308620453,-0.9428532123565674,0.8832253813743591
1772024888923456300,4.600456298828125,-0.3255685269832611,-0.7857189774513245,0.5367137789726257
1772024888933453000,4.610453125,-0.5075091123580933,-0.4975610077381134,0.25184565782546997
1772024888943450000,4.6204501953125,-0.6364732384681702,-0.18297378718852997,0.09671786427497864
1772024888953446100,4.630446044921875,-0.6829172372817993,0.10852830111980438,0.054105110466480255
1772024888963443000,4.64044287109375,-0.65058833360672,0.3485789895057678,0.08156044036149979
1772024888973440300,4.650440185546875,-0.5516551733016968,0.5130756497383118,0.15927381813526154
1772024888983437000,4.66043701171875,-0.412736713886261,0.5839506387710571,0.26319459080696106
1772024888993434000,4.67043408203125,-0.2541223466396332,0.520982027053833,0.38899731636047363
1772024889003430100,4.68043017578125,-0.11813415586948395,0.35942956805229187,0.5113319754600525
1772024889013427200,4.69042724609375,-0.027964342385530472,0.16162171959877014,0.6209545731544495
1772024889023424300,4.70042431640625,0.04865400120615959,-0.03714996576309204,0.7294291257858276
1772024889033421000,4.710421142578125,0.09043589979410172,-0.21909330785274506,0.8427025079727173
1772024889043418000,4.720418212890625,0.07195036858320236,-0.31602942943573,0.9359453916549683
1772024889053414100,4.7304140625,0.04140029847621918,-0.293795645236969,0.9667702913284302
1772024889063411200,4.7404111328125,0.07533589750528336,-0.11137551069259644,0.8621919751167297
1772024889073408000,4.750407958984375,0.19525502622127533,0.2585199475288391,0.6478528380393982
1772024889083405300,4.7604052734375,0.4605751037597656,0.8100379109382629,0.4183395206928253
1772024889093402000,4.770402099609375,0.8393175601959229,1.1620442867279053,-0.07032556086778641
1772024889103398100,4.780398193359375,1.0575460195541382,0.9668399691581726,-0.8763315677642822
1772024889113395200,4.790395263671875,0.8085110783576965,0.6613940596580505,-1.7639962434768677
1772024889123392000,4.80039208984375,0.13191211223602295,0.6893513798713684,-2.4099061489105225
1772024889133389300,4.810389404296875,-0.7174995541572571,0.9238956570625305,-2.4830257892608643
1772024889143386000,4.82038623046875,-1.1944507360458374,1.5323842763900757,-1.863542914390564
1772024889153382100,4.830382080078125,-1.1814978122711182,1.8752433061599731,-0.9562843441963196
1772024889163379200,4.840379150390625,-0.893805742263794,1.6513047218322754,-0.23416264355182648
1772024889173376000,4.8503759765625,-0.5049609541893005,1.1556991338729858,0.20217494666576385
1772024889183373300,4.860373291015625,-0.24510033428668976,0.6498700976371765,0.43889665603637695
1772024889193370000,4.8703701171875,-0.08765693753957748,0.15651820600032806,0.4514595568180084
1772024889203366100,4.8803662109375,0.024076517671346664,-0.2290598452091217,0.38958659768104553
1772024889213363200,4.89036328125,0.1686379611492157,-0.5020822286605835,0.41770678758621216
1772024889223360000,4.900360107421875,0.3956282436847687,-0.6087551712989807,0.47781169414520264
1772024889233357300,4.910357421875,0.616951584815979,-0.46231043338775635,0.48425906896591187
1772024889243354000,4.92035400390625,0.7572362422943115,-0.16944023966789246,0.41290101408958435
1772024889253350100,4.93035009765625,0.8327885270118713,0.11810225248336792,0.25366097688674927
1772024889263347200,4.94034716796875,0.8224133849143982,0.32388949394226074,0.04120728746056557
1772024889273344000,4.950343994140625,0.6606954336166382,0.4053620994091034,-0.11786318570375443
1772024889283341000,4.960341064453125,0.427263468503952,0.41534391045570374,-0.16008946299552917
1772024889293337000,4.970337158203125,0.2355804741382599,0.4645538032054901,-0.07350961118936539
1772024889303334100,4.980334228515625,0.16641125082969666,0.5971055030822754,0.15486390888690948
1772024889313331200,4.990331298828125,0.23268772661685944,0.6965041160583496,0.4784489870071411
1772024889323328300,5.000328369140625,0.3152371942996979,0.6161743998527527,0.7679420709609985
1772024889333325000,5.010324951171875,0.3472878038883209,0.30033183097839355,1.0047472715377808
1772024889343321000,5.020321044921875,0.34415245056152344,-0.21521490812301636,1.1613198518753052
1772024889353318100,5.030318115234375,0.30586251616477966,-0.8155839443206787,1.1896518468856812
1772024889363315200,5.040315185546875,0.2179638296365738,-1.2870607376098633,1.0846199989318848
1772024889373312300,5.050312255859375,0.09798628836870193,-1.4999051094055176,0.8826251029968262
1772024889383309800,5.060309814453125,-0.03977876901626587,-1.4590026140213013,0.640169084072113
1772024889393305900,5.070305908203125,-0.16148613393306732,-1.2181651592254639,0.4114791452884674
1772024889403303000,5.080302978515625,-0.22870084643363953,-0.79572993516922,0.19558894634246826
1772024889413299700,5.0902998046875,-0.243063822388649,-0.32676586508750916,-0.006661977618932724
1772024889423297000,5.100297119140625,-0.18459784984588623,0.0804024338722229,-0.1564570665359497
1772024889433293800,5.1102939453125,-0.11349639296531677,0.42548128962516785,-0.2627887725830078
1772024889443289900,5.120289794921875,-0.11323860287666321,0.6690483689308167,-0.3034781515598297
1772024889453287000,5.130286865234375,-0.13738428056240082,0.7798662781715393,-0.3822455406188965
1772024889463283700,5.14028369140625,-0.24466785788536072,0.7127783298492432,-0.4787164032459259
1772024889473281000,5.150281005859375,-0.27899879217147827,0.5439207553863525,-0.5463384985923767
1772024889483277800,5.16027783203125,-0.16194328665733337,0.39061033725738525,-0.5277533531188965
1772024889493273900,5.17027392578125,0.009523265063762665,0.3126666843891144,-0.4257826805114746
1772024889503271000,5.18027099609375,0.10986132174730301,0.2420939803123474,-0.305459201335907
1772024889513267700,5.190267822265625,0.06563516706228256,0.09159509837627411,-0.17510336637496948
1772024889523264800,5.2002646484375,-0.028925690799951553,0.3691854476928711,-0.15220710635185242
1772024889533261800,5.21026171875,-0.040973301976919174,0.8044878244400024,-0.0301262978464365
1772024889543257900,5.2202578125,0.1936461329460144,1.074775218963623,0.07993442565202713
1772024889553255000,5.2302548828125,0.5757778286933899,1.0877336263656616,0.043966736644506454
1772024889563252000,5.240251953125,0.846917986869812,0.5634850859642029,-0.1025281623005867
1772024889573248800,5.250248779296875,0.5649123787879944,-0.3045302927494049,-0.4924841821193695
1772024889583245800,5.260245849609375,-0.21106721460819244,-0.878917932510376,-1.1343879699707031
1772024889593241900,5.270241943359375,-1.1783270835876465,-1.0586044788360596,-1.7088111639022827
1772024889603239000,5.280239013671875,-1.712360143661499,-0.5247757434844971,-1.8526623249053955
1772024889613236000,5.290236083984375,-1.5535627603530884,0.39499160647392273,-1.5604168176651
1772024889623232800,5.300232666015625,-1.0055811405181885,0.8108306527137756,-1.161054015159607
1772024889633230000,5.31022998046875,-0.4108946919441223,0.4546310007572174,-0.9196672439575195
1772024889643225900,5.320225830078125,0.05748528614640236,-0.6675204634666443,-0.6966935396194458
1772024889653223000,5.330222900390625,-0.007960162125527859,-2.155717134475708,-0.4260987639427185
1772024889663219000,5.340218994140625,-0.5018237233161926,-3.354841709136963,-0.36722531914711
1772024889673215700,5.3502158203125,-1.0796278715133667,-4.0731072425842285,-0.4449079930782318
1772024889683212800,5.360212890625,-1.6636492013931274,-4.521664142608643,-0.5651638507843018
1772024889693209900,5.3702099609375,-2.122147560119629,-4.563289165496826,-0.8797866106033325
1772024889703206000,5.380205810546875,-2.4531984329223633,-4.127401351928711,-1.1722664833068848
1772024889713203000,5.390202880859375,-2.3432865142822266,-2.898624897003174,-0.9648894667625427
1772024889723199700,5.40019970703125,-1.6748652458190918,-1.8034933805465698,-0.5722095966339111
1772024889733197000,5.410197021484375,-0.9310900568962097,-0.7599186897277832,-0.1967378556728363
1772024889743193900,5.42019384765625,-0.45514777302742004,0.21804143488407135,-0.1510755717754364
1772024889753190000,5.43018994140625,-0.2762184143066406,0.8073311448097229,-0.5754626393318176
1772024889763187000,5.44018701171875,-0.1418057382106781,1.167621374130249,-1.207594871520996
1772024889773183700,5.450183837890625,-0.28171905875205994,1.323873519897461,-1.4142615795135498
1772024889783181000,5.46018115234375,-0.4781500995159149,1.2243030071258545,-1.260788917541504
1772024889793177900,5.470177734375,-0.5735902190208435,0.9674278497695923,-0.9804976582527161
1772024889803174000,5.480173828125,-0.3752262592315674,0.5879854559898376,-0.692777693271637
1772024889813171000,5.4901708984375,0.2917124330997467,0.5981782674789429,-0.6125369668006897
1772024889823167700,5.500167724609375,1.1686362028121948,1.0081708431243896,-0.5335651636123657
1772024889833165000,5.5101650390625,1.7539892196655273,1.5400302410125732,-0.1850520372390747
1772024889843161900,5.520161865234375,1.9132078886032104,1.8633500337600708,0.1597716510295868
1772024889853157600,5.53015771484375,1.8447006940841675,1.8118077516555786,0.33124345541000366
1772024889863155000,5.540155029296875,1.7947020530700684,1.634710431098938,0.3993913531303406
1772024889873151700,5.55015185546875,1.7352737188339233,1.5004745721817017,0.5447949767112732
1772024889883148800,5.560148681640625,1.6319804191589355,1.3799859285354614,0.7114891409873962
1772024889893145900,5.570145751953125,1.4890165328979492,1.2817591428756714,0.8526453971862793
1772024889903142000,5.580141845703125,1.2970948219299316,1.2538057565689087,0.9757859706878662
1772024889913139000,5.590138916015625,1.103008508682251,1.3531399965286255,1.1159766912460327
1772024889923135700,5.6001357421875,0.9519276022911072,1.5847021341323853,1.2703076601028442
1772024889933132800,5.6101328125,0.8559699058532715,1.7790539264678955,1.419003963470459
1772024889943129900,5.6201298828125,0.6784933805465698,1.7220302820205688,1.4382554292678833
1772024889953126000,5.6301259765625,0.3378673493862152,1.3423734903335571,1.3576650619506836
1772024889963123000,5.640123046875,0.07517526298761368,0.8632897138595581,1.350145697593689
1772024889973120000,5.6501201171875,0.08867409080266953,0.608452558517456,1.5052520036697388
1772024889983116800,5.66011669921875,0.32135021686553955,0.5435065627098083,1.7904683351516724
1772024889993113900,5.67011376953125,0.5581964254379272,0.4492727816104889,2.036939859390259
1772024890003110000,5.68010986328125,0.7146504521369934,0.5017144083976746,2.156611919403076
1772024890013107000,5.69010693359375,0.9524192214012146,0.5937911868095398,2.1992459297180176
1772024890023104000,5.70010400390625,0.8738303780555725,0.3383293151855469,1.9751907587051392
1772024890033100800,5.710100830078125,0.2388158142566681,-0.04342954605817795,1.4866607189178467
1772024890043096800,5.720096923828125,-0.5499520301818848,-0.18753746151924133,0.8457393050193787
1772024890053094000,5.730093994140625,-1.3352348804473877,-0.009628097526729107,0.39575183391571045
1772024890063090700,5.740090576171875,-1.6882518529891968,0.5835031867027283,0.2544431686401367
1772024890073088000,5.750087890625,-1.2737394571304321,1.0615812540054321,0.2564775347709656
1772024890083084800,5.760084716796875,-0.4953206479549408,1.096038818359375,0.21927423775196075
1772024890093080800,5.770080810546875,0.20637641847133636,0.7760401368141174,0.14054492115974426
1772024890103078000,5.780077880859375,0.6961586475372314,0.12571170926094055,0.07563462853431702
1772024890113074700,5.79007470703125,0.8043622374534607,-0.8546679019927979,-0.036654237657785416
1772024890123072000,5.800072021484375,0.6793494820594788,-1.868272304534912,-0.020711226388812065
1772024890133068800,5.81006884765625,0.49183177947998047,-2.716395139694214,0.23332148790359497
1772024890143065000,5.820065185546875,0.28904590010643005,-3.3419244289398193,0.5952711701393127
1772024890153062000,5.830061767578125,0.04795308783650398,-3.759225368499756,0.7985988855361938
1772024890163058700,5.84005859375,-0.11362036317586899,-3.736048936843872,0.7456656694412231
1772024890173056000,5.850055908203125,-0.16713225841522217,-3.2657175064086914,0.453067421913147
1772024890183052800,5.860052734375,-0.06155656278133392,-2.4473955631256104,0.09663554280996323
1772024890193048800,5.870048828125,0.2573793828487396,-1.4290363788604736,-0.23461973667144775
1772024890203046000,5.8800458984375,0.6575291752815247,-0.3889363706111908,-0.49266618490219116
1772024890213043000,5.89004296875,0.9345746040344238,0.4803621470928192,-0.660376787185669
1772024890223039700,5.900039794921875,0.9934232831001282,0.9876610040664673,-0.6922523975372314
1772024890233036800,5.910036865234375,0.8621530532836914,1.127546787261963,-0.6172520518302917
1772024890243032800,5.92003271484375,0.649083137512207,0.957940936088562,-0.49514472484588623
1772024890253030000,5.93002978515625,0.43372970819473267,0.5417460203170776,-0.34276705980300903
1772024890263027000,5.94002685546875,0.28120648860931396,-0.059463392943143845,-0.1800982505083084
1772024890273025800,5.95002587890625,0.16555027663707733,-0.7197574973106384,-0.003628362435847521
1772024890283021800,5.960021728515625,0.05905180424451828,-1.2090568542480469,0.19558407366275787
1772024890293019000,5.970018798828125,-0.04474840685725212,-1.3751907348632812,0.37220901250839233
1772024890303016000,5.980015869140625,-0.14806972444057465,-1.325366497039795,0.4960039258003235
1772024890313012700,5.9900126953125,-0.24804237484931946,-1.1459587812423706,0.5881366729736328
1772024890323010000,6.000010009765625,-0.2731564939022064,-0.6535064578056335,0.6512762308120728
1772024890333005800,6.010005859375,-0.21352727711200714,-0.01779128983616829,0.6593586206436157
1772024890343003000,6.0200029296875,-0.14142246544361115,0.5132923126220703,0.593130886554718
1772024890353000000,6.03,-0.12199456244707108,0.7928954362869263,0.47816574573516846
1772024890362996700,6.039996826171875,-0.16632845997810364,0.8242514729499817,0.3459744155406952
1772024890372994000,6.049994140625,-0.2583591639995575,0.7028226256370544,0.24091099202632904
1772024890382989800,6.05998974609375,-0.3701794147491455,0.506485104560852,0.189865380525589
1772024890392987100,6.069987060546875,-0.4734407067298889,0.3690394461154938,0.2162560373544693
1772024890402984000,6.07998388671875,-0.4798799753189087,0.3398032486438751,0.3138246536254883
1772024890412981000,6.08998095703125,-0.3473432958126068,0.4919062554836273,0.4611852765083313
1772024890422978000,6.09997802734375,-0.15137699246406555,0.7794674634933472,0.6181948184967041
1772024890432974000,6.10997412109375,-0.041039302945137024,0.9229689836502075,0.6632823944091797
1772024890442971000,6.119970947265625,-0.08809495717287064,0.8731641173362732,0.5785363912582397
1772024890452968000,6.129968017578125,-0.1327451765537262,0.9050681591033936,0.40847355127334595
1772024890462965000,6.139965087890625,-0.0043376656249165535,1.2602373361587524,0.16527396440505981
1772024890472961800,6.1499619140625,0.18605543673038483,1.4642647504806519,-0.21310564875602722
1772024890482958000,6.1599580078125,0.09759801626205444,1.066965103149414,-0.934861958026886
1772024890492955000,6.169954833984375,-0.2891034781932831,0.5164022445678711,-1.8371111154556274
1772024890502952200,6.1799521484375,-0.896981418132782,0.46133050322532654,-2.413430690765381
1772024890512949000,6.189948974609375,-1.451512336730957,0.7709962725639343,-2.5752227306365967
1772024890522945800,6.19994580078125,-1.4333570003509521,1.1878901720046997,-2.32305645942688
1772024890532942000,6.209942138671875,-1.0230857133865356,1.7057013511657715,-1.7272989749908447
1772024890542939000,6.21993896484375,-0.5612528324127197,1.8998048305511475,-1.1968518495559692
1772024890552936200,6.229936279296875,-0.16105099022388458,1.5382062196731567,-0.9567148685455322
1772024890562933000,6.23993310546875,0.06615180522203445,0.8117693066596985,-0.8094926476478577
1772024890572930000,6.249929931640625,0.12490097433328629,-0.013465289026498795,-0.6313667893409729
1772024890582926000,6.259926025390625,0.09412361681461334,-0.642917275428772,-0.3175273835659027
1772024890592923000,6.2699228515625,0.011766532436013222,-1.0995877981185913,0.1207846850156784
1772024890602920000,6.279919921875,-0.13541145622730255,-1.4340007305145264,0.5362281799316406
1772024890612917000,6.2899169921875,-0.3353268802165985,-1.633345127105713,0.8447688221931458
1772024890622914000,6.2999140625,-0.4735768735408783,-1.69723379611969,1.0248289108276367
1772024890632910000,6.30991015625,-0.4630981683731079,-1.6255497932434082,1.0515217781066895
1772024890642907000,6.319906982421875,-0.30745211243629456,-1.3209195137023926,1.0055489540100098
1772024890652904000,6.329904052734375,-0.03699062019586563,-0.7655417919158936,0.9673895835876465
1772024890662901000,6.33990087890625,0.2690047323703766,-0.07759163528680801,0.9774032831192017
1772024890672898000,6.34989794921875,0.5475674867630005,0.5469326972961426,1.0463989973068237
1772024890682894000,6.35989404296875,0.750227153301239,0.9748923182487488,1.1444523334503174
1772024890692891000,6.369890869140625,0.8294214606285095,1.1056944131851196,1.229312539100647
1772024890702888000,6.379887939453125,0.8047323226928711,0.9659229516983032,1.2832231521606445
1772024890712885000,6.389885009765625,0.7036186456680298,0.6061689257621765,1.292043924331665
1772024890722882000,6.399882080078125,0.5907896161079407,0.21688592433929443,1.2782782316207886
1772024890732878000,6.409878173828125,0.5527047514915466,-0.17493560910224915,1.2334799766540527
1772024890742875100,6.419875244140625,0.5526294112205505,-0.48489025235176086,1.1514484882354736
1772024890752872000,6.429871826171875,0.6382784247398376,-0.623975932598114,1.101351261138916
1772024890762869000,6.439868896484375,0.711926281452179,-0.6387090682983398,1.0616925954818726
1772024890772866000,6.449865966796875,0.6879602670669556,-0.5353053212165833,1.0613832473754883
1772024890782861800,6.45986181640625,0.5509449243545532,-0.35533076524734497,1.1000123023986816
1772024890792859100,6.469859130859375,0.33837541937828064,-0.21905115246772766,1.1271471977233887
1772024890802856000,6.47985595703125,0.11051107943058014,-0.16817039251327515,1.0612763166427612
1772024890812853000,6.48985302734375,-0.03308873251080513,-0.20401531457901,0.9003943800926208
1772024890822850000,6.49985009765625,-0.0935981422662735,-0.2476637214422226,0.6841430068016052
1772024890832845800,6.509845703125,-0.12546226382255554,-0.19137324392795563,0.47404050827026367
1772024890842843100,6.519843017578125,-0.1686459481716156,-0.08458899706602097,0.30985182523727417
1772024890852840000,6.52983984375,-0.20052146911621094,0.02267235703766346,0.2322038859128952
1772024890862837000,6.5398369140625,-0.15990851819515228,0.25145065784454346,0.2577180564403534
1772024890872834000,6.549833984375,0.06354840099811554,0.6372650861740112,0.3005555272102356
1772024890882829800,6.559829833984375,0.4466784596443176,1.0478206872940063,0.2770155966281891
1772024890892827100,6.5698271484375,0.8372222185134888,1.334720253944397,0.14423874020576477
1772024890902824000,6.579823974609375,1.064575433731079,1.4895777702331543,-0.12436581403017044
1772024890912821000,6.589821044921875,1.054846167564392,0.8930667042732239,-0.48925650119781494
1772024890922818000,6.599818115234375,0.9991624355316162,0.4410038888454437,-0.7743465900421143
1772024890932813800,6.609813720703125,0.8320665955543518,0.22407425940036774,-1.093415379524231
1772024890942811100,6.61981103515625,0.4612256586551666,-0.00768199423328042,-1.6705306768417358
1772024890952808000,6.629807861328125,0.10364808887243271,0.3001888692378998,-2.2925567626953125
1772024890962805000,6.639804931640625,-0.4109633266925812,0.8436028957366943,-2.7160308361053467
1772024890972802000,6.649802001953125,-0.8789356350898743,1.523955225944519,-2.690631866455078
1772024890982798000,6.659798095703125,-0.9581550359725952,2.383683919906616,-2.225285768508911
1772024890992795000,6.669794921875,-0.78352290391922,2.5832889080047607,-1.7441402673721313
1772024891002792000,6.6797919921875,-0.6289104223251343,2.1138110160827637,-1.4487160444259644
1772024891012789000,6.6897890625,-0.6253992915153503,1.4353561401367188,-1.204988718032837
1772024891022785800,6.699785888671875,-0.6832356452941895,0.49538546800613403,-0.9406744837760925
1772024891032782000,6.709781982421875,-0.7193676233291626,-0.5408027768135071,-0.670103132724762
1772024891042779000,6.71977880859375,-0.6997435688972473,-1.3505609035491943,-0.4001145362854004
1772024891052776200,6.729776123046875,-0.6500436067581177,-1.8611021041870117,-0.11117897182703018
1772024891062773000,6.73977294921875,-0.5468831062316895,-2.0100502967834473,0.17932821810245514
1772024891072769800,6.749769775390625,-0.328100323677063,-1.8572028875350952,0.41781318187713623
1772024891082766000,6.75976611328125,-0.04824471101164818,-1.6547520160675049,0.605002760887146
1772024891092763000,6.769762939453125,0.22109979391098022,-1.5106258392333984,0.7320313453674316
1772024891102760200,6.77976025390625,0.43342456221580505,-1.4803179502487183,0.7794798612594604
1772024891112757000,6.789757080078125,0.535101056098938,-1.5112802982330322,0.7408735156059265
1772024891122754000,6.799754150390625,0.4527619779109955,-1.539988398551941,0.5595932006835938
1772024891132750000,6.80975,0.24553126096725464,-1.3822544813156128,0.24530500173568726
1772024891142747000,6.819746826171875,0.07769965380430222,-1.0317398309707642,-0.09420916438102722
1772024891152744000,6.829743896484375,0.11997330188751221,-0.4198714792728424,-0.34529995918273926
1772024891162741000,6.839740966796875,0.3526454269886017,0.33709022402763367,-0.4302193820476532
1772024891172738000,6.849738037109375,0.5673284530639648,1.0200427770614624,-0.36172521114349365
1772024891182734000,6.859734130859375,0.6369807720184326,1.2394542694091797,-0.27898719906806946
1772024891192731000,6.86973095703125,0.6066329479217529,0.9088210463523865,-0.331249475479126
1772024891202728000,6.87972802734375,0.5617387294769287,0.3464330732822418,-0.3277767300605774
1772024891212725000,6.88972509765625,0.4517847001552582,-0.24006448686122894,-0.20588019490242004
1772024891222722000,6.89972216796875,0.20927593111991882,-0.8250003457069397,-0.04825060814619064
1772024891232718000,6.909718017578125,-0.1137106791138649,-1.3140395879745483,0.21823763847351074
1772024891242715000,6.91971484375,-0.4105740487575531,-1.4410792589187622,0.5842321515083313
1772024891252712000,6.9297119140625,-0.6671384572982788,-1.3168729543685913,0.9129060506820679
1772024891262709000,6.939708984375,-0.8580495715141296,-1.1253602504730225,1.131056308746338
1772024891272706000,6.9497060546875,-0.9510248303413391,-0.8671908974647522,1.233949899673462
1772024891282702800,6.959702880859375,-0.9569016695022583,-0.5419148206710815,1.2492492198944092
1772024891292699100,6.96969921875,-0.8932116627693176,-0.1449386030435562,1.227354645729065
1772024891302696000,6.979696044921875,-0.7757867574691772,0.2616560459136963,1.242448091506958
1772024891312693000,6.98969287109375,-0.5493735074996948,0.5722252130508423,1.2760621309280396
1772024891322690000,6.99968994140625,-0.3279223144054413,0.7567258477210999,1.2983403205871582
1772024891332686800,7.009686767578125,-0.2132895588874817,0.8304699659347534,1.254079818725586
1772024891342683100,7.01968310546875,-0.2371717244386673,0.9943574666976929,1.1078590154647827
1772024891352680000,7.029679931640625,-0.36030808091163635,1.030821681022644,0.8568475246429443
1772024891362677000,7.039677001953125,-0.5485464334487915,0.8231214880943298,0.4887222349643707
1772024891372674000,7.049674072265625,-0.6931432485580444,0.5302563905715942,0.05002788454294205
1772024891382670600,7.059670654296875,-0.5562540888786316,0.8076986074447632,-0.4139251112937927
1772024891392667000,7.0696669921875,0.056725770235061646,1.7470613718032837,-0.8962115049362183
1772024891402663700,7.07966357421875,0.8323759436607361,2.39174222946167,-1.6015040874481201
1772024891412660700,7.08966064453125,1.1646661758422852,2.2303426265716553,-2.5835909843444824
1772024891422657800,7.09965771484375,0.8973345756530762,1.6616590023040771,-3.4847970008850098
1772024891432654600,7.109654541015625,0.20466963946819305,1.1068274974822998,-3.74737286567688
1772024891442651000,7.11965087890625,-0.48296335339546204,1.118468999862671,-3.090820789337158
1772024891452647700,7.129647705078125,-0.9372997283935547,1.4807653427124023,-1.8126896619796753
1772024891462644700,7.139644775390625,-1.0828396081924438,1.543915033340454,-0.622024416923523
1772024891472641800,7.149641845703125,-0.7664209604263306,1.2406517267227173,0.01813051849603653
1772024891482638800,7.159638916015625,-0.20778511464595795,0.5082520842552185,0.07894619554281235
1772024891492635000,7.169634765625,0.19506169855594635,-0.4863521456718445,-0.20141276717185974
1772024891502631700,7.179631591796875,0.41012337803840637,-1.3251378536224365,-0.42164313793182373
1772024891512628700,7.189628662109375,0.5210815072059631,-1.9003260135650635,-0.32230159640312195
1772024891522625800,7.199625732421875,0.4923750162124634,-2.185265064239502,-0.1018533855676651
1772024891532622800,7.209622802734375,0.3941442370414734,-2.085127830505371,-0.033174872398376465
1772024891542618600,7.21961865234375,0.348968505859375,-1.6889890432357788,-0.24069370329380035
1772024891552615700,7.22961572265625,0.40907254815101624,-1.0136563777923584,-0.6411182284355164
1772024891562612700,7.23961279296875,0.5567453503608704,-0.16262437403202057,-1.0569652318954468
1772024891572609500,7.249609619140625,0.7481064796447754,0.6997314095497131,-1.3470888137817383
1772024891582606800,7.25960693359375,0.9144773483276367,1.385877251625061,-1.471535086631775
1772024891592602600,7.2696025390625,1.0401324033737183,1.80291748046875,-1.3591278791427612
1772024891602599700,7.279599609375,1.1235556602478027,2.043055772781372,-1.0203354358673096
1772024891612596700,7.2895966796875,1.1743193864822388,2.1516330242156982,-0.5355773568153381
1772024891622593500,7.299593505859375,1.1690069437026978,2.0948028564453125,-0.03807065635919571
1772024891632590800,7.3095908203125,1.0900593996047974,1.847760796546936,0.3120778799057007
1772024891642586600,7.319586669921875,1.0037388801574707,1.4193029403686523,0.4597805142402649
1772024891652584000,7.329583984375,0.9523448944091797,0.9093371629714966,0.42872291803359985
1772024891662580700,7.339580810546875,0.8535480499267578,0.24456852674484253,0.32505112886428833
1772024891672577500,7.34957763671875,0.6408001780509949,-0.3724362850189209,0.32345643639564514
1772024891682574800,7.359574951171875,0.3709990978240967,-0.7568372488021851,0.48710235953330994
1772024891692570600,7.369570556640625,0.1457180678844452,-0.8614069819450378,0.7588545083999634
1772024891702568000,7.37956787109375,-0.050014957785606384,-0.7340192198753357,1.0238419771194458
1772024891712564700,7.389564697265625,-0.2566787004470825,-0.39796337485313416,1.1573050022125244
1772024891722561800,7.399561767578125,-0.46115460991859436,0.16711199283599854,1.0920926332473755
1772024891732558800,7.409558837890625,-0.6607589721679688,0.5736337900161743,0.8531146049499512
1772024891742554600,7.4195546875,-0.8337395787239075,0.8144597411155701,0.4962616562843323
1772024891752551700,7.4295517578125,-0.9651760458946228,1.2126615047454834,0.37180930376052856
1772024891762548700,7.439548828125,-1.0645455121994019,1.508034110069275,0.5864936709403992
1772024891772545800,7.4495458984375,-1.0333961248397827,1.5601985454559326,0.9720403552055359
1772024891782542600,7.45954248046875,-0.7734465003013611,1.2040854692459106,1.2992669343948364
1772024891792540000,7.469539794921875,-0.3022105395793915,0.6445000171661377,1.425269603729248
1772024891802535700,7.47953564453125,0.3302966058254242,0.19376373291015625,1.3704297542572021
1772024891812532700,7.48953271484375,0.9698578119277954,0.0598725751042366,1.2370189428329468
1772024891822529800,7.49952978515625,1.5219883918762207,0.3950263559818268,1.0582387447357178
1772024891832526600,7.509526611328125,2.00189208984375,1.1374815702438354,0.6741214990615845
1772024891842524000,7.51952392578125,2.3928732872009277,1.6618720293045044,-0.007585139013826847
1772024891852519700,7.529519775390625,2.6902637481689453,1.6353182792663574,-0.8030211329460144
1772024891862516700,7.539516845703125,2.723635673522949,1.0310035943984985,-1.5064146518707275
1772024891872513800,7.549513671875,2.1264994144439697,0.14050209522247314,-1.8743481636047363
1772024891882510600,7.559510498046875,0.7227673530578613,0.413636714220047,-1.4669697284698486
1772024891892508000,7.5695078125,0.19855527579784393,0.24100767076015472,-1.3663229942321777
1772024891902503700,7.579503662109375,-0.2533048689365387,0.024225838482379913,-0.9146490097045898
1772024891912500700,7.589500732421875,-0.24385957419872284,0.14752580225467682,-0.2899589538574219
1772024891922497800,7.599497802734375,0.023723918944597244,0.5710378885269165,0.25099167227745056
1772024891932494600,7.60949462890625,0.3538266718387604,0.9458726644515991,0.534797191619873
1772024891942491600,7.61949169921875,0.7856049537658691,1.0821633338928223,0.4687204658985138
1772024891952487700,7.62948779296875,1.218164086341858,0.8826131820678711,0.08000363409519196
1772024891962484700,7.639484619140625,1.4650737047195435,0.3162882328033447,-0.418797105550766
1772024891972481800,7.649481689453125,1.3361455202102661,-0.3770308494567871,-0.8057821989059448
1772024891982478600,7.659478515625,1.0338053703308105,-0.7989434599876404,-1.0076454877853394
1772024891992475600,7.6694755859375,0.10242670774459839,-0.18385359644889832,-1.0042059421539307
1772024892002471700,7.6794716796875,-0.8496952056884766,1.003370761871338,-0.668257474899292
1772024892012468700,7.68946875,-0.9390238523483276,1.4965976476669312,-0.812285304069519
1772024892022465800,7.6994658203125,-0.7116165161132812,1.428017497062683,-0.8964917659759521
1772024892032462800,7.709462890625,-0.6710647940635681,0.6692867875099182,-0.5065239071846008
1772024892042459600,7.719459716796875,-0.7350688576698303,-0.48013991117477417,0.05907828360795975
1772024892052455700,7.72945556640625,-0.6794934868812561,-1.3660736083984375,0.4829983413219452
1772024892062452700,7.73945263671875,-0.4981812834739685,-1.7548141479492188,0.803820013999939
1772024892072449800,7.74944970703125,-0.27913472056388855,-1.7912724018096924,0.9460965991020203
1772024892082446800,7.75944677734375,-0.06026627868413925,-1.518047571182251,0.8751108050346375
1772024892092443600,7.769443603515625,0.1001947820186615,-1.083423376083374,0.6806038618087769
1772024892102439700,7.779439697265625,0.23052561283111572,-0.558091402053833,0.48264414072036743
1772024892112436700,7.789436767578125,0.3495590090751648,-0.03264658525586128,0.3766491711139679
1772024892122433500,7.79943359375,0.4305073916912079,0.26065611839294434,0.33401355147361755
1772024892132430800,7.809430908203125,0.46241292357444763,0.3113250136375427,0.31792399287223816
1772024892142427600,7.819427734375,0.5031872391700745,0.32336729764938354,0.3396868109703064
1772024892152424700,7.8294248046875,0.5741617679595947,0.26927077770233154,0.4239482581615448
1772024892162420700,7.839420654296875,0.6598386168479919,0.025326555594801903,0.5752307176589966
1772024892172417500,7.84941748046875,0.7628576755523682,-0.19649629294872284,0.7249643802642822
1772024892182414800,7.859414794921875,0.9206555485725403,-0.32922637462615967,0.8227689862251282
1772024892192411600,7.86941162109375,1.0497654676437378,-0.5713078379631042,0.8811923861503601
1772024892202408700,7.87940869140625,1.094489574432373,-0.8456224799156189,0.9231361150741577
1772024892212404700,7.88940478515625,0.9913026690483093,-1.1493849754333496,0.956787109375
1772024892222401500,7.899401611328125,0.7681776881217957,-1.5839407444000244,0.9749693274497986
1772024892232398800,7.90939892578125,0.549615204334259,-1.7318401336669922,0.9997717142105103
1772024892242395600,7.919395751953125,0.3496445417404175,-1.2743993997573853,1.0383009910583496
1772024892252392700,7.929392822265625,0.15383432805538177,-0.1631762683391571,1.1661704778671265
1772024892262388700,7.939388671875,0.005037127062678337,1.2206310033798218,1.4746050834655762
1772024892272385800,7.9493857421875,-0.11978187412023544,2.2734363079071045,1.8894288539886475
1772024892282382800,7.9593828125,-0.11075188964605331,2.999645948410034,2.0695760250091553
1772024892292379600,7.969379638671875,0.03075595386326313,3.2297585010528564,1.6489553451538086
1772024892302376700,7.979376708984375,0.15926173329353333,2.709735155105591,0.735592246055603
1772024892312373800,7.989373779296875,0.1428261548280716,2.4859628677368164,-0.11928752809762955
1772024892322369800,7.999369873046875,-0.0390099473297596,2.5967319011688232,-0.691808819770813
1772024892332366600,8.00936669921875,-0.2884778380393982,2.4302148818969727,-1.2144300937652588
1772024892342364000,8.019364013671876,-0.28771698474884033,1.9499353170394897,-1.6251665353775024
1772024892352360700,8.029360595703125,-0.05023013427853584,0.8233548402786255,-1.6806775331497192
1772024892362357800,8.039357666015626,0.10277566313743591,-0.4178619682788849,-1.0573545694351196
1772024892372353800,8.049353759765625,0.23693639039993286,-1.075541615486145,0.14568902552127838
1772024892382350600,8.0593505859375,0.2427801638841629,-1.267628788948059,1.1158908605575562
1772024892392350700,8.069350830078125,0.1850745677947998,-1.1935673952102661,1.3252198696136475
1772024892402347800,8.07934765625,0.21243855357170105,-0.9740477800369263,0.9134045839309692
1772024892412344600,8.089344482421875,0.24194690585136414,-0.6433127522468567,-0.01740351691842079
1772024892422340600,8.099340576171874,0.23793992400169373,-0.2626253068447113,-1.195778250694275
1772024892432337700,8.109337646484375,0.19712670147418976,0.14711621403694153,-2.136749029159546
1772024892442334700,8.119334716796875,0.1575220376253128,0.5085942149162292,-2.5496745109558105
1772024892452331800,8.129331787109376,0.1677459478378296,0.7240950465202332,-2.363227605819702
1772024892462328600,8.13932861328125,0.17303632199764252,0.7149457931518555,-1.7789323329925537
1772024892472324900,8.149324951171875,0.06745074689388275,0.6088133454322815,-1.041304349899292
1772024892482321700,8.15932177734375,-0.045714687556028366,0.42911654710769653,-0.3376007080078125
1772024892492318700,8.169318603515626,-0.09772496670484543,0.29064488410949707,0.24430915713310242
1772024892502315800,8.179315673828125,-0.08024477958679199,0.10515386611223221,0.6104583740234375
1772024892512312600,8.1893125,-0.06913495063781738,-0.10238542407751083,0.8285945653915405
1772024892522308900,8.199308837890625,-0.041230883449316025,-0.19494092464447021,0.9818270206451416
1772024892532305700,8.2093056640625,0.03384967893362045,-0.24354836344718933,1.1304190158843994
1772024892542302700,8.219302734375,0.06975335627794266,-0.21087217330932617,1.3386313915252686
1772024892552299800,8.2292998046875,0.1262376755475998,-0.1160377562046051,1.4877926111221313
1772024892562296600,8.239296630859375,0.1881425827741623,0.007436512038111687,1.5024689435958862
1772024892572293600,8.249293701171876,0.27559390664100647,0.0757749080657959,1.3175222873687744
1772024892582289700,8.25928955078125,0.3390647768974304,-0.004843766801059246,0.942861020565033
1772024892592286700,8.26928662109375,0.3758218288421631,-0.20327115058898926,0.5121863484382629
1772024892602283800,8.27928369140625,0.404628723859787,-0.34871411323547363,0.1405092179775238
1772024892612280800,8.28928076171875,0.42456915974617004,-0.4436948001384735,-0.102572500705719
1772024892622277600,8.299277587890625,0.42490872740745544,-0.5728975534439087,-0.19779834151268005
1772024892632273700,8.309273681640626,0.3983232080936432,-0.6875033378601074,-0.13465431332588196
1772024892642270700,8.319270751953125,0.34930452704429626,-0.7522812485694885,0.028272554278373718
1772024892652267800,8.329267822265624,0.29154983162879944,-0.7275913953781128,0.23511609435081482
1772024892662264800,8.339264892578125,0.24930891394615173,-0.6428315043449402,0.41390690207481384
1772024892672261600,8.34926171875,0.2407255321741104,-0.4997107982635498,0.5178719162940979
1772024892682257700,8.359257568359375,0.21425211429595947,-0.34454119205474854,0.5478662848472595
1772024892692254700,8.369254638671874,0.21321634948253632,-0.1533508598804474,0.499119371175766
1772024892702251800,8.379251708984375,0.2233949601650238,-0.011692258529365063,0.3494827449321747
1772024892712248800,8.389248779296874,0.18981415033340454,-0.022020936012268066,0.2019837647676468
1772024892722245600,8.39924560546875,0.14855778217315674,-0.09298192709684372,0.11786461621522903
1772024892732243000,8.409242919921875,0.16158434748649597,-0.1533099114894867,0.06336760520935059
1772024892742238700,8.41923876953125,0.17623120546340942,-0.007093313615769148,-0.04190049692988396
1772024892752235800,8.42923583984375,0.13255244493484497,0.3792850971221924,-0.21870861947536469
1772024892762232800,8.43923291015625,0.0046722544357180595,0.9112401008605957,-0.32557597756385803
1772024892772229600,8.449229736328125,-0.26603055000305176,1.1956874132156372,-0.3311964273452759
1772024892782226700,8.459226806640626,-0.565032958984375,1.079363226890564,-0.3581249713897705
1772024892792222700,8.46922265625,-0.8099370002746582,0.6393811702728271,-0.7004446983337402
1772024892802219500,8.479219482421875,-0.9993284940719604,0.024489236995577812,-1.43165123462677
1772024892812216800,8.489216796875,-0.9225631356239319,-0.6821610331535339,-2.152174949645996
1772024892822213600,8.499213623046876,-0.5920464396476746,-1.3898643255233765,-2.311741590499878
1772024892832210700,8.509210693359375,-0.27435898780822754,-1.8286795616149902,-1.5797309875488281
1772024892842206700,8.519206787109376,-0.12821988761425018,-1.8752886056900024,-0.4116019010543823
1772024892852203800,8.529203857421875,-0.11401254683732986,-1.520089030265808,0.37675467133522034
1772024892862200800,8.539200927734376,-0.11298376321792603,-0.9951452016830444,0.6287909150123596
1772024892872197600,8.54919775390625,-0.05806224048137665,-0.4644321799278259,0.4213006794452667
1772024892882194700,8.559194580078126,-0.031436488032341,0.010707182809710503,-0.09752573072910309
1772024892892191700,8.569191650390625,-0.07066144049167633,0.23741434514522552,-0.7322205305099487
1772024892902187800,8.579187744140626,-0.06383628398180008,0.28052935004234314,-1.274420976638794
1772024892912184800,8.589184814453125,-0.007751875557005405,0.32487115263938904,-1.5010404586791992
1772024892922182000,8.599181884765626,0.05170266330242157,0.3875952661037445,-1.3956563472747803
1772024892932178700,8.6091787109375,0.10278663039207458,0.42627689242362976,-1.0769320726394653
1772024892942175700,8.61917578125,0.13089683651924133,0.4207625687122345,-0.654260516166687
1772024892952171800,8.629171875,0.1256978064775467,0.336225301027298,-0.2213897407054901
1772024892962168600,8.63916845703125,0.13964131474494934,0.22542475163936615,0.17043261229991913
1772024892972166000,8.649165771484375,0.18348132073879242,0.14069212973117828,0.5520639419555664
1772024892982162700,8.65916259765625,0.2122620940208435,0.0989164486527443,0.9312512278556824
1772024892992159700,8.66915966796875,0.2211277037858963,0.11001908034086227,1.2851582765579224
1772024893002155800,8.67915576171875,0.2181372344493866,0.1920686811208725,1.5749472379684448
1772024893012152600,8.689152587890625,0.20403052866458893,0.3782019317150116,1.7410197257995605
1772024893022150000,8.69914990234375,0.1832280457019806,0.6312927603721619,1.7012187242507935
1772024893032146700,8.709146728515625,0.15253444015979767,0.8684929609298706,1.453113079071045
1772024893042143700,8.719143798828124,0.11524325609207153,0.9906225800514221,1.0429481267929077
1772024893052140800,8.729140869140625,0.07550214976072311,0.9458174109458923,0.5321016311645508
1772024893062136600,8.739136474609374,0.051304399967193604,0.7606736421585083,0.024869566783308983
1772024893072134000,8.7491337890625,0.04952525720000267,0.48340412974357605,-0.4065139889717102
1772024893082130700,8.759130615234374,0.06495561450719833,0.19801978766918182,-0.682524561882019
1772024893092127700,8.769127685546875,0.10148853063583374,0.017420286312699318,-0.7404372692108154
1772024893102124800,8.779124755859375,0.14820276200771332,-0.10835841298103333,-0.5928043723106384
1772024893112120600,8.78912060546875,0.18312428891658783,-0.1858317106962204,-0.30518996715545654
1772024893122117600,8.79911767578125,0.21594880521297455,-0.16651447117328644,0.026054799556732178
1772024893132114700,8.80911474609375,0.2075207680463791,-0.05238582193851471,0.31374743580818176
1772024893142111700,8.81911181640625,0.16751423478126526,0.11960058659315109,0.4953925907611847
1772024893152108500,8.829108642578126,0.12921763956546783,0.26117268204689026,0.5272347927093506
1772024893162104800,8.839104736328125,0.10309628397226334,0.3249948024749756,0.39854368567466736
1772024893172101600,8.8491015625,0.04074719920754433,0.3159542679786682,0.19380487501621246
1772024893182098700,8.8590986328125,-0.04264569655060768,0.29405829310417175,-0.03926459699869156
1772024893192095700,8.869095703125,-0.09529667347669601,0.31946760416030884,-0.2790105938911438
1772024893202092500,8.879092529296875,-0.11741342395544052,0.34404563903808594,-0.4969296157360077
1772024893212089900,8.88908984375,-0.15607240796089172,0.24980716407299042,-0.5678263902664185
1772024893222085600,8.899085693359375,-0.20645356178283691,0.22341790795326233,-0.4262562394142151
1772024893232083000,8.9090830078125,-0.2558833360671997,0.4480469226837158,-0.026725560426712036
1772024893242079700,8.919079833984375,-0.28802981972694397,0.5957809686660767,0.4824519157409668
1772024893252076500,8.92907666015625,-0.26296138763427734,0.5646896958351135,0.5802403688430786
1772024893262073900,8.939073974609375,-0.249496728181839,0.08059520274400711,-0.0027750760782510042
1772024893272069600,8.949069580078126,-0.1791405826807022,-0.6336585283279419,-0.826310932636261
1772024893282067000,8.95906689453125,-0.007007434964179993,-1.2848471403121948,-1.1028213500976562
1772024893292063700,8.969063720703126,0.14162130653858185,-1.6117489337921143,-0.5134491920471191
1772024893302060800,8.979060791015625,0.14732952415943146,-1.4345619678497314,0.33851706981658936
1772024893312057900,8.989057861328124,0.04773566871881485,-0.9102675318717957,0.7238174080848694
1772024893322054700,8.9990546875,0.001380685716867447,-0.4989313781261444,0.6741473078727722
1772024893332050700,9.00905078125,0.011527912691235542,-0.2138647437095642,0.33381471037864685
1772024893342047700,9.0190478515625,-0.05088300257921219,0.07075580209493637,-0.2751346528530121
1772024893352044800,9.029044921875,-0.161864772439003,0.323263943195343,-0.9114586710929871
1772024893362041600,9.03904150390625,-0.2416866421699524,0.4259415864944458,-1.3532946109771729
1772024893372039000,9.049038818359374,-0.27382931113243103,0.4506606161594391,-1.5151920318603516
1772024893382034700,9.05903466796875,-0.2903238832950592,0.42044731974601746,-1.4572798013687134
1772024893392028200,9.069028076171875,-0.2845611274242401,0.2936246693134308,-1.2347750663757324
1772024893402025000,9.07902490234375,-0.24388429522514343,-0.0077503458596765995,-0.9252719283103943
1772024893412022000,9.08902197265625,-0.19978000223636627,-0.31149721145629883,-0.5387000441551208
1772024893422019000,9.09901904296875,-0.17125168442726135,-0.525836169719696,-0.1606673151254654
1772024893432014800,9.109014892578125,-0.14664210379123688,-0.6567548513412476,0.17769268155097961
1772024893442012200,9.11901220703125,-0.0972767025232315,-0.6898657083511353,0.5050168037414551
1772024893452009000,9.129009033203126,-0.04499507695436478,-0.623683750629425,0.8393123745918274
1772024893462006000,9.139006103515625,0.03482918068766594,-0.47258079051971436,1.114446997642517
1772024893472003000,9.149003173828126,0.11353819072246552,-0.24669253826141357,1.2497937679290771
1772024893482000100,9.159000244140625,0.15063628554344177,0.0853799432516098,1.2069541215896606
1772024893491996200,9.16899609375,0.15013673901557922,0.4282305836677551,1.0066161155700684
1772024893501993000,9.178992919921875,0.13452236354351044,0.718379557132721,0.6637732982635498
1772024893511990000,9.188989990234376,0.1270333081483841,0.9298617243766785,0.24841523170471191
1772024893521987000,9.198987060546875,0.11234117299318314,0.9418051838874817,-0.16071076691150665
1772024893531984100,9.208984130859376,0.10071421414613724,0.675317108631134,-0.48949187994003296
1772024893541981000,9.21898095703125,0.11878775805234909,0.2967388927936554,-0.6811696887016296
1772024893551977000,9.22897705078125,0.14945180714130402,-0.007124583702534437,-0.6663100719451904
1772024893561974000,9.23897412109375,0.17912153899669647,-0.21050406992435455,-0.46096646785736084
1772024893571970800,9.248970703125,0.22121396660804749,-0.29970046877861023,-0.17988204956054688
1772024893581968100,9.258968017578125,0.24892282485961914,-0.30892297625541687,0.08822609484195709
1772024893591965000,9.26896484375,0.25798988342285156,-0.23996669054031372,0.27746304869651794
1772024893601961200,9.278961181640625,0.23483262956142426,-0.09141848981380463,0.3645537495613098
1772024893611958000,9.2889580078125,0.20057816803455353,0.08267848193645477,0.37160834670066833
1772024893621954800,9.298954833984375,0.1561497151851654,0.17394660413265228,0.33567753434181213
1772024893631952100,9.3089521484375,0.10905946791172028,0.2134857326745987,0.2832035720348358
1772024893641949000,9.318948974609375,0.060927096754312515,0.21094320714473724,0.24590416252613068
1772024893651946000,9.328946044921874,0.03578036651015282,0.12085472047328949,0.18514245748519897
1772024893661940200,9.338940185546875,0.027039073407649994,-0.0857330709695816,0.12415686249732971
1772024893671937000,9.34893701171875,-0.013877201825380325,-0.20475825667381287,0.07997981458902359
1772024893681934000,9.35893408203125,-0.08113028109073639,-0.17618760466575623,0.026699550449848175
1772024893691931100,9.36893115234375,-0.1317097693681717,-0.07752344012260437,0.06424655020236969
1772024893701928200,9.37892822265625,-0.19717027246952057,0.15366609394550323,0.24416278302669525
1772024893711925000,9.388925048828124,-0.25522908568382263,0.49283531308174133,0.373614102602005
1772024893721921000,9.398921142578125,-0.24974699318408966,0.6970621943473816,0.045377109199762344
1772024893731918000,9.40891796875,-0.24182109534740448,0.5462795495986938,-0.869688868522644
1772024893741915000,9.418914794921875,-0.13644753396511078,0.1278604418039322,-1.733899712562561
1772024893751912200,9.428912109375,0.0566314235329628,-0.505267322063446,-1.769407868385315
1772024893761909000,9.438908935546875,0.2016831636428833,-0.9842546582221985,-0.9084089398384094
1772024893771905000,9.448905029296874,0.15201595425605774,-1.084567666053772,0.1151701807975769
1772024893781902000,9.458902099609375,0.0023122099228203297,-0.8529433012008667,0.6509654521942139
1772024893791899000,9.46889892578125,-0.09852544218301773,-0.4993472099304199,0.7244681715965271
1772024893801896200,9.478896240234375,-0.17180365324020386,-0.04073677957057953,0.2675306797027588
1772024893811893000,9.48889306640625,-0.3647198975086212,0.5588488578796387,-0.6259860992431641
1772024893821890000,9.49889013671875,-0.5172673463821411,1.1151576042175293,-1.4717885255813599
1772024893831886000,9.508885986328124,-0.46813514828681946,1.2508894205093384,-1.8933672904968262
1772024893841883000,9.5188828125,-0.33254802227020264,0.9923414587974548,-1.9311485290527344
1772024893851880200,9.528880126953124,-0.22616788744926453,0.5806185007095337,-1.5855756998062134
1772024893861877000,9.538876953125,-0.19018219411373138,0.05423038452863693,-0.9411192536354065
1772024893871874000,9.5488740234375,-0.1709674745798111,-0.4628819525241852,-0.2402368038892746
1772024893881870000,9.5588701171875,-0.14203409850597382,-0.8564952611923218,0.4081537127494812
1772024893891867000,9.568866943359374,-0.11522596329450607,-1.0220588445663452,0.9107101559638977
1772024893901864000,9.578864013671875,-0.10290058702230453,-0.932345449924469,1.1765334606170654
1772024893911861000,9.588861083984375,-0.11536245048046112,-0.6705725193023682,1.2681190967559814
1772024893921858000,9.598858154296876,-0.10734687000513077,-0.3914157450199127,1.3477574586868286
1772024893931854800,9.608854736328125,-0.08447851240634918,-0.12606607377529144,1.4919650554656982
1772024893941851100,9.61885107421875,-0.0563531368970871,0.09051870554685593,1.6021003723144531
1772024893951848000,9.628847900390625,-0.029988374561071396,0.2892076373100281,1.5538408756256104
1772024893961845000,9.638844970703126,-0.0174920242279768,0.508653998374939,1.3378558158874512
1772024893971842000,9.648842041015625,-0.0026963218115270138,0.6738525032997131,0.9808933734893799
1772024893981838800,9.6588388671875,0.02101406827569008,0.724748969078064,0.5708305239677429
1772024893991836200,9.668836181640625,0.04910023882985115,0.6730960011482239,0.17282015085220337
1772024894001832000,9.67883203125,0.07679524272680283,0.5041197538375854,-0.13841576874256134
1772024894011829200,9.688829345703125,0.11711329966783524,0.3100777566432953,-0.30518969893455505
1772024894021826000,9.698825927734376,0.16511757671833038,0.15966135263442993,-0.3253128230571747
1772024894031822800,9.70882275390625,0.21670539677143097,0.09934395551681519,-0.2545262575149536
1772024894041820200,9.718820068359374,0.2700381577014923,0.0925222709774971,-0.14061646163463593
1772024894051816000,9.72881591796875,0.3079603910446167,0.11299730837345123,-0.016793401911854744
1772024894061813000,9.73881298828125,0.3159903585910797,0.1484977751970291,0.07477539777755737
1772024894071810000,9.74881005859375,0.30817779898643494,0.19799071550369263,0.10475446283817291
1772024894081807000,9.75880712890625,0.27707579731941223,0.22801946103572845,0.06965932995080948
1772024894091804000,9.768803955078125,0.24266190826892853,0.18958733975887299,0.013662031851708889
1772024894101801000,9.778801025390624,0.22509942948818207,0.10648899525403976,-0.04844847694039345
1772024894111797000,9.788796875,0.22521106898784637,0.01028135884553194,-0.13236263394355774
1772024894121794000,9.7987939453125,0.21176183223724365,-0.09344451129436493,-0.22454102337360382
1772024894131791000,9.808791015625,0.17037387192249298,-0.11559798568487167,-0.3213993310928345
1772024894141788000,9.818787841796874,0.07131840288639069,-0.028109945356845856,-0.3903738558292389
1772024894151785200,9.82878515625,-0.06863486766815186,0.16737878322601318,-0.35365548729896545
1772024894161781000,9.838781005859374,-0.27943259477615356,0.49887895584106445,-0.20424042642116547
1772024894171778000,9.848778076171875,-0.5119004249572754,0.8850041031837463,0.0693727508187294
1772024894181775000,9.858775146484374,-0.6033531427383423,1.1401472091674805,0.2401796579360962
1772024894191772000,9.86877197265625,-0.5715587139129639,0.996124804019928,-0.1285172551870346
1772024894201769200,9.878769287109375,-0.46176695823669434,0.46842876076698303,-0.9335232377052307
1772024894211766000,9.88876611328125,-0.23478741943836212,-0.32017603516578674,-1.3414406776428223
1772024894221762000,9.898761962890624,-0.038352131843566895,-1.1164542436599731,-0.8615856766700745
1772024894231759000,9.908759033203125,0.0008738270262256265,-1.4514210224151611,0.24663981795310974
1772024894241756000,9.918755859375,-0.04650753363966942,-1.3003239631652832,1.2228013277053833
1772024894251753200,9.928753173828126,-0.09636042267084122,-0.9432628750801086,1.6622062921524048
1772024894261750000,9.93875,-0.08687690645456314,-0.5628311038017273,1.676220178604126
1772024894271746000,9.94874609375,-0.08586059510707855,-0.08179619908332825,1.2940630912780762
1772024894281744100,9.958744140625,-0.18447957932949066,0.356105774641037,0.6279982328414917
1772024894291741200,9.9687412109375,-0.29753047227859497,0.6294323801994324,-0.05345948040485382
1772024894301738000,9.978738037109375,-0.31782856583595276,0.6457706093788147,-0.5538700819015503
1772024894311735000,9.988735107421874,-0.30790552496910095,0.4324308931827545,-0.8123822808265686
1772024894321732000,9.998732177734375,-0.31773898005485535,0.1709526926279068,-0.8665094375610352
1772024894331729000,10.00872900390625,-0.2880597710609436,-0.14972399175167084,-0.7870643734931946
1772024894341725200,10.01872509765625,-0.24205978214740753,-0.5104337334632874,-0.5966987013816833
1772024894351722000,10.028721923828124,-0.18599854409694672,-0.8342421054840088,-0.3260730504989624
1772024894361719000,10.038718994140625,-0.153008371591568,-1.1053153276443481,-0.0412285141646862
1772024894371716000,10.048716064453124,-0.1637687087059021,-1.2984774112701416,0.24191120266914368
1772024894381713000,10.058712890625,-0.18085473775863647,-1.3630622625350952,0.5624032020568848
1772024894391713800,10.0687138671875,-0.1891654133796692,-1.2811225652694702,0.9089486598968506
1772024894401709800,10.078709716796874,-0.16693253815174103,-1.0448434352874756,1.261026382446289
1772024894411707000,10.088706787109375,-0.11500557512044907,-0.6868602633476257,1.4941519498825073
1772024894421704000,10.098703857421874,-0.08085799217224121,-0.2753952443599701,1.442922592163086
1772024894431701000,10.108700927734375,-0.06648769229650497,0.17739321291446686,1.1299241781234741
1772024894441697800,10.11869775390625,-0.07010825723409653,0.6116708517074585,0.6661357283592224
1772024894451693800,10.12869384765625,-0.07574407011270523,0.9224091172218323,0.1722208857536316
1772024894461691000,10.13869091796875,-0.06064368411898613,0.9801035523414612,-0.2440250664949417
1772024894471687700,10.148687744140625,-0.028342807665467262,0.7148747444152832,-0.5361616611480713
1772024894481685000,10.15868505859375,0.013910905458033085,0.3299185037612915,-0.6503311395645142
1772024894491681800,10.168681884765626,0.0711994394659996,-0.0343930758535862,-0.5919643640518188
1772024894501678800,10.178678955078125,0.11499378830194473,-0.3585525155067444,-0.44507721066474915
1772024894511675000,10.1886748046875,0.13926340639591217,-0.570441484451294,-0.2905711233615875
1772024894521671700,10.198671630859375,0.15073630213737488,-0.6748584508895874,-0.17701685428619385
1772024894531669000,10.2086689453125,0.15620552003383636,-0.6827144622802734,-0.12263041734695435
1772024894541665800,10.218665771484375,0.14793932437896729,-0.5957106351852417,-0.11564787477254868
1772024894551662800,10.228662841796876,0.11487367749214172,-0.46879908442497253,-0.16144683957099915
1772024894561659000,10.238658935546875,0.09613381326198578,-0.2749084532260895,-0.22863732278347015
1772024894571655700,10.24865576171875,0.06946137547492981,-0.05054030939936638,-0.23337171971797943
1772024894581653000,10.258653076171875,0.027726706117391586,0.11886496841907501,-0.15818455815315247
1772024894591649800,10.26864990234375,0.00464587239548564,0.19180886447429657,-0.03664475306868553
1772024894601646800,10.278646728515625,0.011022811755537987,0.1268935203552246,0.058347802609205246
1772024894611644000,10.288643798828126,0.013877665624022484,-0.027728985995054245,0.07262913137674332
1772024894621640000,10.298639892578125,-0.0041338251903653145,-0.05256695672869682,0.009143359027802944
1772024894631636700,10.30863671875,-0.04339542239904404,0.15241912007331848,-0.026259759441018105
1772024894641633800,10.3186337890625,-0.036415811628103256,0.78656005859375,-0.020231161266565323
1772024894651630800,10.328630859375,-0.05512743443250656,1.747205376625061,-0.1521466225385666
1772024894661627600,10.338627685546875,-0.15332749485969543,2.2313573360443115,-0.7024412155151367
1772024894671625000,10.348625,-0.2223537117242813,1.5887277126312256,-1.6149828433990479
1772024894681620700,10.358620849609375,0.04629585146903992,0.3021220266819,-1.9627386331558228
1772024894691618000,10.3686181640625,0.3545268177986145,-1.1473935842514038,-1.1849828958511353
1772024894701614800,10.37861474609375,0.4032677114009857,-1.7550560235977173,0.33781155943870544
1772024894711611600,10.388611572265624,0.2182515412569046,-1.4506999254226685,1.580420732498169
1772024894721609000,10.39860888671875,0.018903542309999466,-0.9239243268966675,1.9851127862930298
1772024894731604700,10.408604736328124,-0.05527136102318764,-0.6062856912612915,1.6938303709030151
1772024894741602000,10.41860205078125,-0.14725933969020844,-0.21996274590492249,0.9671567678451538
1772024894751598800,10.428598876953124,-0.41625139117240906,0.2671946883201599,0.05116811394691467
1772024894761596000,10.438595947265625,-0.6928683519363403,0.6664624214172363,-0.5647568702697754
1772024894771593000,10.448593017578125,-0.7544234395027161,0.6904105544090271,-0.6398560404777527
1772024894781589800,10.45858984375,-0.6504999995231628,0.4338805079460144,-0.23297619819641113
1772024894791586000,10.4685859375,-0.504230797290802,0.032312147319316864,0.43987250328063965
1772024894801582800,10.478582763671875,-0.3491400182247162,-0.42829328775405884,1.0464247465133667
1772024894811580000,10.488579833984375,-0.2262389063835144,-0.823451817035675,1.4431835412979126
1772024894821577000,10.498576904296876,-0.12786199152469635,-1.0047180652618408,1.5601645708084106
1772024894831574000,10.508573974609375,-0.05143235996365547,-0.9807459115982056,1.3837900161743164
1772024894841569800,10.51856982421875,0.01951504871249199,-0.8129134774208069,1.0443483591079712
1772024894851566800,10.52856689453125,0.09227347373962402,-0.5503436923027039,0.7762507796287537
1772024894861564000,10.53856396484375,0.15318289399147034,-0.24045193195343018,0.7437607049942017
1772024894871560700,10.548560791015625,0.21151377260684967,0.05855507776141167,0.8936411738395691
1772024894881558000,10.55855810546875,0.26204222440719604,0.3016132414340973,0.9979193806648254
1772024894891554800,10.568554931640625,0.2639349102973938,0.5436480641365051,0.8945074677467346
1772024894901550800,10.57855078125,0.24714823067188263,0.7553249001502991,0.5912139415740967
1772024894911548000,10.5885478515625,0.22421926259994507,0.8876911997795105,0.1419941931962967
1772024894921544700,10.598544677734376,0.18973398208618164,0.9389099478721619,-0.3268792927265167
1772024894931542000,10.6085419921875,0.1467582732439041,0.8528168797492981,-0.7003071904182434
1772024894941538800,10.618538818359376,0.10216124355792999,0.5944975018501282,-0.9560555815696716
1772024894951535900,10.628535888671875,0.07349337637424469,0.19659605622291565,-1.066247582435608
1772024894961532000,10.638531982421876,0.06830926984548569,-0.24258211255073547,-1.0781465768814087
1772024894971528700,10.64852880859375,0.07214242219924927,-0.5816384553909302,-1.0397931337356567
1772024894981526000,10.658526123046874,0.09105166047811508,-0.7611820697784424,-0.977290689945221
1772024894991522800,10.668522705078125,0.1243957132101059,-0.7695277333259583,-0.9176613092422485
1772024895001519900,10.678519775390624,0.17375127971172333,-0.6517361402511597,-0.8256770372390747
1772024895011516000,10.688515869140625,0.2232443243265152,-0.4730008840560913,-0.6865488886833191
1772024895021512700,10.6985126953125,0.24794194102287292,-0.3046019971370697,-0.5553874373435974
1772024895031509800,10.708509765625,0.24804094433784485,-0.23473913967609406,-0.4696265161037445
1772024895041506800,10.7185068359375,0.22911332547664642,-0.3108679950237274,-0.41365301609039307
1772024895051503900,10.72850390625,0.20725612342357635,-0.42927294969558716,-0.4144512414932251
1772024895061500700,10.738500732421874,0.14690037071704865,-0.5775537490844727,-0.4739760756492615
1772024895071497000,10.7484970703125,0.07486538589000702,-0.6452065706253052,-0.618334949016571
1772024895081493800,10.75849365234375,0.0016082177171483636,-0.5586897730827332,-0.832166850566864
1772024895091490800,10.76849072265625,-0.16191962361335754,0.01044339220970869,-0.8086491823196411
1772024895101487900,10.77848779296875,-0.31758883595466614,-0.12634241580963135,-0.740959107875824
1772024895111484700,10.788484619140625,-0.47440752387046814,-0.10471166670322418,-0.8489278554916382
1772024895121482000,10.79848193359375,-0.4976116418838501,0.3394838869571686,-1.2728914022445679
1772024895131477800,10.808477783203125,-0.4175461232662201,0.5252417325973511,-2.1151235103607178
1772024895141475000,10.81847509765625,-0.321361243724823,0.03430693969130516,-2.9633641242980957
1772024895151471900,10.828471923828126,-0.09842831641435623,-0.633338987827301,-3.1941590309143066
1772024895161468700,10.83846875,-0.00040001748129725456,-1.170183777809143,-2.5775468349456787
1772024895171466000,10.848466064453126,-0.17053765058517456,-1.4951406717300415,-1.5580823421478271
1772024895181461800,10.858461669921875,-0.5134249925613403,-1.4014029502868652,-0.6190327405929565
1772024895191458800,10.868458740234376,-0.7551156282424927,-1.0006096363067627,0.03672744706273079
1772024895201455900,10.878455810546875,-0.8065183758735657,-0.509688138961792,0.3395080864429474
1772024895211453000,10.888452880859376,-0.7552094459533691,-0.07915037125349045,0.3106454908847809
1772024895221449700,10.89844970703125,-0.6944614052772522,0.17990168929100037,0.08536525070667267
1772024895231446800,10.90844677734375,-0.6489823460578918,0.2652350962162018,-0.1994244009256363
1772024895241442800,10.91844287109375,-0.595024585723877,0.2411198914051056,-0.41333720088005066
1772024895251439900,10.92843994140625,-0.5203343629837036,0.11999659985303879,-0.4574616849422455
1772024895261437000,10.93843701171875,-0.4463096261024475,-0.03528140112757683,-0.3208859860897064
1772024895271433700,10.948433837890626,-0.39730292558670044,-0.1348775029182434,-0.11447954922914505
1772024895281431000,10.95843115234375,-0.3599502444267273,-0.1564914435148239,0.05905761569738388
1772024895291426800,10.9684267578125,-0.34730666875839233,-0.12886062264442444,0.265774667263031
1772024895301423900,10.978423828125,-0.35796862840652466,-0.09674877673387527,0.48502445220947266
1772024895311421000,10.9884208984375,-0.3590729534626007,-0.08882930129766464,0.6435524225234985
1772024895321417700,10.998417724609375,-0.33393990993499756,-0.07449882477521896,0.7213366627693176
1772024895331415000,11.0084150390625,-0.28392696380615234,-0.07203441858291626,0.7093756794929504
1772024895341411800,11.018411865234375,-0.1967523694038391,-0.13290071487426758,0.63132643699646
1772024895351407900,11.028407958984374,-0.08948200941085815,-0.22889578342437744,0.5379701852798462
1772024895361405000,11.038405029296875,0.003153917845338583,-0.3733006417751312,0.4905827045440674
1772024895371401700,11.048401611328124,0.07582417875528336,-0.5498073697090149,0.4899085462093353
1772024895381399000,11.05839892578125,0.12415362894535065,-0.6931948661804199,0.49092668294906616
1772024895391392800,11.068392822265626,0.11636004596948624,-0.7746536731719971,0.4554319977760315
1772024895401389800,11.078389892578125,0.0761556401848793,-0.7274941802024841,0.3958802819252014
1772024895411385900,11.0883857421875,0.0029491730965673923,-0.5155748128890991,0.35445111989974976
1772024895421382700,11.098382568359375,-0.090385302901268,-0.16891005635261536,0.28444862365722656
1772024895431379700,11.108379638671876,-0.16833868622779846,0.1955985426902771,0.2200765162706375
1772024895441376800,11.118376708984375,-0.2289983183145523,0.4629226624965668,0.20798921585083008
1772024895451373800,11.128373779296876,-0.23907645046710968,0.6030237078666687,0.17761363089084625
1772024895461370600,11.13837060546875,-0.22572150826454163,0.6732824444770813,0.11992556601762772
1772024895471366700,11.14836669921875,-0.15732598304748535,0.4945414662361145,-0.0796889141201973
1772024895481363700,11.15836376953125,-0.06875883787870407,0.2879965305328369,-0.2108176350593567
1772024895491360800,11.16836083984375,-0.002177674323320389,0.10118100047111511,-0.25657448172569275
1772024895501357800,11.17835791015625,0.051205120980739594,-0.05772875249385834,-0.28423407673835754
1772024895511354600,11.188354736328124,0.08850657939910889,-0.15983256697654724,-0.3121088743209839
1772024895521352000,11.19835205078125,0.11431713402271271,-0.22949393093585968,-0.3756926655769348
