time,seconds_elapsed,z,y,x
1772459189490446600,0.102446533203125,0.4891179804176092,-0.3067699471890926,1.1108370895981787
1772459189500442600,0.112442626953125,0.4047241254627704,-0.28365502906143664,1.1352959696806966
1772459189510439700,0.122439697265625,0.30293022289574145,-0.3045622080117464,1.2396888026997446
1772459189520436700,0.132436767578125,0.24123335291743278,-0.31379999195635316,1.288879534587264
1772459189530432800,0.142432861328125,0.24798984144032,-0.23725977311134336,1.3471494988568127
1772459189540429600,0.1524296875,0.3313292189061641,-0.19121172316372392,1.3647595359578728
1772459189550426600,0.162426513671875,0.40064065554142,-0.19073066164851188,1.2921720002613961
1772459189560422700,0.172422607421875,0.31603578818440436,-0.1140583408564329,1.2522513471528887
1772459189570419500,0.18241943359375,0.17212299181222915,-0.0501975708425045,1.2267946882046759
1772459189580416800,0.192416748046875,0.24174831670224664,0.0026671733826398847,1.1751432652920484
1772459189590412500,0.20241259765625,0.40497663891911506,0.056931847533583636,1.1230030359491705
1772459189600409900,0.212409912109375,0.5176093308866023,0.02193652199804783,1.0610022145882247
1772459189610406700,0.22240673828125,0.5452016866892576,-0.05033610253036022,1.0584921314634381
1772459189620402700,0.232402587890625,0.48315118096768855,-0.08035948487222194,1.0926935301423073
1772459189630399700,0.242399658203125,0.44406361768245695,-0.12861702756285667,1.0707770280189812
1772459189640396500,0.252396484375,0.45904608275890346,-0.21411679793298244,1.0333734722979366
1772459189650392800,0.262392822265625,0.4458347190082073,-0.24391572386920451,1.1524243607446552
1772459189660389600,0.2723896484375,0.30007307989895343,-0.2193202117949724,1.303464963170141
1772459189670385700,0.2823857421875,0.2888420763105154,-0.2094394537717104,1.482872559032589
1772459189680382700,0.2923828125,0.5539315211117267,-0.18128829504251479,1.6227714435882865
1772459189690379500,0.302379638671875,0.7121358776867389,-0.13103694818615913,1.4178538511551915
1772459189700375600,0.31237548828125,0.7619049939841032,-0.11322831977307796,1.2581100100532174
1772459189710372600,0.32237255859375,0.8552806122958659,-0.03990355584323406,1.1676771671950816
1772459189720369700,0.33236962890625,0.961714449623227,-0.04854571198225021,1.0011787372663616
1772459189730365700,0.34236572265625,1.0721914248615503,-0.08587444890141487,0.871689749174565
1772459189740362800,0.35236279296875,1.1852128238856792,-0.10610241341590881,0.8248065635770558
1772459189750359800,0.36235986328125,1.326707453200221,-0.03409983800053596,0.763221191149205
1772459189760355600,0.37235546875,1.3298691321015357,0.14017711697518825,0.5746509224049746
1772459189770352600,0.3823525390625,1.1482546738445758,0.2542459792256355,0.37878801243454213
1772459189780349700,0.392349609375,0.8931067773431539,0.3485691075205803,0.2862256102018058
1772459189790345700,0.402345703125,0.7490741539835929,0.4087000433564186,0.28566753792762756
1772459189800342500,0.412342529296875,0.5769979239225387,0.5077238966882228,0.35587431596741076
1772459189810339600,0.422339599609375,0.4868085344314575,0.5240940167307854,0.2896662521749735
1772459189820335600,0.432335693359375,0.4767489127099514,0.46571781560778613,0.15814795021265743
1772459189830332700,0.442332763671875,0.41868309271037574,0.27878596172034736,0.0714817664116621
1772459189840329700,0.452329833984375,0.24411329226791859,-0.011235095241665839,0.10719809969812631
1772459189850325500,0.462325439453125,0.18890110813379288,-0.3219505651861429,0.16148454728946088
1772459189860322800,0.47232275390625,-0.02178863795995712,-0.5895780040323734,0.2034009773250669
1772459189870319600,0.482319580078125,-0.261216402760148,-0.7050117248952389,0.15540369300581514
1772459189880315600,0.492315673828125,-0.19127192891836164,-0.677450348752737,-0.043136911741271614
1772459189890312700,0.502312744140625,0.10683189673423767,-0.5306821629494428,-0.2761669383283704
1772459189900309500,0.5123095703125,0.21791560569405555,-0.369974299120903,-0.4491212663982063
1772459189910305800,0.522305908203125,0.23993103814721106,-0.22349077547788618,-0.549646975660324
1772459189920302600,0.532302490234375,0.1759118627011776,-0.19410043034255503,-0.4965014417324215
1772459189930299600,0.542299560546875,0.14205810841619967,-0.31000644489228724,-0.44039932302124796
1772459189940295700,0.552295654296875,0.08902209927737713,-0.4271054686188698,-0.3884287511568516
1772459189950292500,0.56229248046875,0.07136486203372477,-0.4757189851403236,-0.38095907286331054
1772459189960288800,0.572288818359375,0.13847674279808997,-0.442334601932764,-0.4456024446222931
1772459189970285600,0.58228564453125,0.29314474194049833,-0.33638825586140153,-0.5524228701144457
1772459189980282600,0.59228271484375,0.4695359125912189,-0.2579068398207426,-0.6127873224452137
1772459189990278700,0.602278564453125,0.539667433437705,-0.1989075383633375,-0.5348599600907414
1772459190000275700,0.612275634765625,0.5643827724993229,-0.1815326251924038,-0.5354608485933393
1772459190010272800,0.622272705078125,0.5581967773407698,-0.17611702988445757,-0.6243077374342829
1772459190020268800,0.632268798828125,0.56576808937788,-0.1476993291735649,-0.6623777942400425
1772459190030265600,0.642265625,0.5077221431225538,-0.120537181481719,-0.6457110293384641
1772459190040262700,0.6522626953125,0.3502268115997314,-0.11098083310723304,-0.63115292715393
1772459190050258700,0.6622587890625,-0.23012100727260112,-0.05819090768396854,-0.7303635352294892
1772459190060255700,0.672255859375,-0.1709182921975851,0.12334990081489085,-0.7738364009268581
1772459190070252500,0.68225244140625,0.5709919615060091,0.16708733573257922,-0.6286269888728857
1772459190080248600,0.69224853515625,0.6414210039943457,0.15020225190520287,-0.5084343099799007
1772459190090245600,0.70224560546875,0.3413958548903465,0.4881424133837223,-0.5495303635433316
1772459190100242700,0.71224267578125,0.005429039311408996,0.8928878738954663,-0.6323813729703426
1772459190110238500,0.722238525390625,0.03309679843783379,0.7119529223352671,-0.8211017907749861
1772459190120235800,0.73223583984375,0.05559446144998073,0.45561581604927776,-1.156505565643683
1772459190130232600,0.742232666015625,-0.15859364815354346,0.21641104635000227,-1.1318994591102003
1772459190140228900,0.752228759765625,-0.09096154290735721,-0.22140724720209837,-1.0131180352546274
1772459190150225700,0.7622255859375,-0.0029378070175647736,-0.6099325175359844,-1.0246901804309339
1772459190160222700,0.77222265625,0.0955804348796606,-0.6827361802011728,-0.9788907714821398
1772459190170218800,0.78221875,0.14311433947086333,-0.4979048057243228,-0.8505134709592909
1772459190180215600,0.792215576171875,0.10228022477924824,-0.3513526007592678,-0.7265783176023513
1772459190190212600,0.802212646484375,0.09162555977404117,-0.24178134218901395,-0.738453829639405
1772459190200208600,0.812208740234375,0.010378186151385306,-0.10546499229520559,-0.8819535151660441
1772459190210205400,0.822205322265625,-0.013354571613669394,-0.04174596883952617,-1.0777030278898776
1772459190220202800,0.83220263671875,0.21229133607149123,-0.2074102860316634,-1.2258910173632205
1772459190230198500,0.842198486328125,0.4686959546357393,-0.30929566627442834,-1.1889266567770391
1772459190240195800,0.85219580078125,0.5382049596697092,-0.05144055664092302,-1.2697311820030213
1772459190250192600,0.862192626953125,0.4864192428529262,0.07304886959791183,-1.1532434951078145
1772459190260188700,0.872188720703125,0.33526831192076206,0.17112404390275476,-1.0598043100405483
1772459190270185700,0.882185791015625,0.11387304741740226,0.36186464242339134,-1.240652094773948
1772459190280182500,0.8921826171875,-0.050370589321851726,0.3991051165372133,-1.1396611791528761
1772459190290178600,0.902178466796875,-0.14165420379042626,0.4023673332035541,-0.3301165551807731
1772459190300175600,0.912175537109375,-0.19132921206355094,0.41707156586050986,-0.275656979512237
1772459190310172700,0.922172607421875,-0.03002221329808235,0.3550096619620919,-0.8853883849855512
1772459190320168700,0.932168701171875,0.1448591373115778,0.2854574023082852,-1.1019029647752643
1772459190330165500,0.94216552734375,0.0773415983557701,0.09800181680768728,-0.836466313971579
1772459190340162800,0.952162841796875,-0.018445172750949857,-0.14207272146344185,-0.45881252973135556
1772459190350158600,0.96215869140625,-0.18763970989584922,-0.6747627171039581,-0.1406465611178428
1772459190360155600,0.97215576171875,-0.12188684252500534,-1.0553405355647205,-0.06841622309489176
1772459190370152700,0.982152587890625,0.15324936451613902,-0.6868775177896023,-0.05701804167942609
1772459190380148700,0.992148681640625,0.15510405247211456,-0.23582301830649374,-0.004410489369032438
1772459190390145500,1.0021455078125,-0.11119535264074802,-0.16757687281519174,0.016530260774027555
1772459190400142600,1.012142578125,-0.2166097837924957,-0.31744682402610774,-0.10970617352891712
1772459190410138600,1.022138671875,-0.05864683475792408,-0.3924620252609253,-0.2140946043674834
1772459190420135700,1.0321357421875,0.007226444122195244,-0.4134750026732683,-0.14534155053365974
1772459190430132700,1.0421328125,-0.13993395586907864,-0.4743485735699534,0.03375370971029624
1772459190440128500,1.05212841796875,-0.19727263063788414,-0.47907297174334523,0.22657558975070713
1772459190450125600,1.06212548828125,-0.19084172080755232,-0.4116445723757148,0.3961090034611523
1772459190460122600,1.07212255859375,-0.2693687295556068,-0.3532280392423272,0.47797483777571464
1772459190470119700,1.08211962890625,-0.47913726915121074,-0.28262159436047074,0.5200745154237374
1772459190480115700,1.09211572265625,-0.5520423463642596,-0.2267372100532055,0.4478619139868766
1772459190490116900,1.102116943359375,-0.4938444244176149,-0.11241349625885486,0.28391305894311514
1772459190500114000,1.112114013671875,-0.34351942291557785,0.00959200420975685,0.1483554549947381
1772459190510110000,1.12210986328125,-0.18717267690598963,0.06489946541190147,0.0960030076732859
1772459190520106800,1.132106689453125,-0.10868716921210288,0.1140387593731284,0.15947200189065186
1772459190530103800,1.142103759765625,-0.1027653779476881,0.1605982659742236,0.18847513780668376
1772459190540099800,1.152099853515625,-0.172617497330904,0.200648536811769,0.2925031926339492
1772459190550097000,1.162096923828125,-0.2839794387102127,0.19217939915210008,0.38152759346626697
1772459190560094000,1.172093994140625,-0.37861937786936756,0.17056494871526956,0.4242770402599126
1772459190570089700,1.18208984375,-0.44195349366068837,0.1379910051077604,0.43175278296805913
1772459190580087000,1.192087158203125,-0.5372463437706232,0.1643719392940402,0.3889195303484797
1772459190590083800,1.202083740234375,-0.6051274553418159,0.21954671402722595,0.33428397705852986
1772459190600080100,1.212080078125,-0.5822668042361736,0.25693419539630413,0.227075648227334
1772459190610077000,1.222076904296875,-0.5911626428753137,0.31066403201818465,0.08350684298723936
1772459190620073700,1.23207373046875,-0.6273211669713258,0.3332125484347343,-0.014401450318098067
1772459190630070000,1.242070068359375,-0.6696458124816417,0.2856131773918867,-0.050700698059052224
1772459190640066800,1.25206689453125,-0.6320119551360607,0.26971272068768737,-0.043969490107893944
1772459190650064000,1.26206396484375,-0.5949439149796962,0.3101275870539248,-0.0793310186073184
1772459190660060000,1.272059814453125,-0.5820405942648649,0.3523652849331498,-0.13745251431688665
1772459190670056700,1.282056640625,-0.5850087964206934,0.3982489380992949,-0.19232180329747497
1772459190680054000,1.292053955078125,-0.543315434551239,0.4346491619966924,-0.24177388953492043
1772459190690049800,1.3020498046875,-0.48945057337284087,0.45785453488677735,-0.27501272679194805
1772459190700047000,1.312047119140625,-0.5071475581049919,0.49191930157393216,-0.3163148243214935
1772459190710044000,1.3220439453125,-0.47569852687418457,0.5236578172706067,-0.2908586037646979
1772459190720040700,1.332040771484375,-0.4103799592673778,0.5411418899044395,-0.19511523340828715
1772459190730037000,1.342037109375,-0.3399205216407776,0.5882457325153052,-0.11649287452697753
1772459190740033800,1.35203369140625,-0.19817220982611178,0.650116936147213,-0.07511939226165414
1772459190750031000,1.362031005859375,0.0337713366985321,0.715353816819936,-0.09064414752125739
1772459190760027000,1.37202685546875,0.18277298064231873,0.762518011315912,-0.11878712294399738
1772459190770024000,1.38202392578125,0.30488135696351526,0.7598571215435862,-0.060243675495311615
1772459190780021000,1.39202099609375,0.4941898768544197,0.7308382400691509,0.06742379625774919
1772459190790016800,1.402016845703125,0.6399228743910789,0.7855000968441367,0.16627426578402518
1772459190800014000,1.41201416015625,0.8417337329804897,0.8512494570836424,0.23528518510274588
1772459190810011000,1.422010986328125,1.1185142000973225,0.9229954273894428,0.3280790580037981
1772459190820007000,1.4320068359375,1.5344424411416053,0.9966463545337318,0.37428624403588473
1772459190830004000,1.44200390625,1.9920412477016447,1.0574521208912133,0.36759624487794934
1772459190840000800,1.452000732421875,2.37087046892941,1.2144368725433945,0.3219382902264595
1772459190849996800,1.461996826171875,2.662404268541932,1.4908666265264152,0.15318192530311645
1772459190859993900,1.471993896484375,2.87749955611825,1.7377914690837264,0.028979864638298748
1772459190869991000,1.481990966796875,3.0915637470811603,1.789510550405085,0.07227342824600637
1772459190879987000,1.491987060546875,3.2241660448879004,1.758087238137424,0.02655380653515458
1772459190889984000,1.50198388671875,3.3731238496899603,1.5931784154877067,-0.037446591145172715
1772459190899981000,1.51198095703125,3.468409685537219,1.4480907301172614,-0.037747400722652674
1772459190909977900,1.521977783203125,3.3424382040470837,1.2615952218204736,-0.010130933392047882
1772459190919974000,1.531973876953125,3.1361171745568512,0.9789283270135521,-0.023562442699447274
1772459190929971000,1.541970947265625,2.7859774567186832,0.7503232772618532,-0.08107493966519833
1772459190939967700,1.5519677734375,2.2372511030346156,0.29912907704710956,-0.15691227093786
1772459190949963800,1.5619638671875,1.5884744755804538,-0.48816053356230255,-0.2420848551802337
1772459190959960800,1.5719609375,0.6433388203144073,-1.195078968861699,-0.19659327007159588
1772459190969958000,1.5819580078125,-0.5361117867827415,-1.6554636067479849,-0.416455406723544
1772459190979954000,1.591953857421875,-1.9821867931634187,-1.8479548483282326,-1.067740655997768
1772459190989951000,1.601950927734375,-4.069320399966836,-2.2645827620744705,-1.741600505977869
1772459190999947800,1.61194775390625,-6.877417918556929,-2.912520600616932,-2.2668168047368527
1772459191009944000,1.621944091796875,-9.985576826608181,-3.306550898107886,-2.6484151984170077
1772459191019940900,1.63194091796875,-12.908904067921638,-3.4372891556084153,-2.814012295591831
1772459191029938000,1.64193798828125,-14.992545740956068,-3.4257290661960837,-3.0151956699326634
1772459191039935000,1.65193505859375,-15.881861893844604,-3.1463822557225822,-3.2988124128103253
1772459191049930800,1.6619306640625,-16.250787560695407,-2.7283967898875474,-3.3380434762194753
1772459191059928000,1.671927978515625,-15.953332554340362,-2.5454563437238336,-3.0286531173989175
1772459191069924900,1.6819248046875,-14.909750553369522,-2.836438354672491,-2.2681625202573836
1772459191079921000,1.6919208984375,-13.532862480461597,-3.0621470984607932,-1.2381640773504972
1772459191089918000,1.70191796875,-11.90780277980566,-3.155444098578393,-0.5246211093448102
1772459191099914800,1.711914794921875,-9.710924019169807,-3.0657611973047256,0.18947277054190634
1772459191109911000,1.7219111328125,-7.258754738691449,-2.508571258918941,0.973441346969828
1772459191119907800,1.731907958984375,-4.995515207919478,-2.33917447720021,1.6965964121252297
1772459191129905000,1.74190478515625,-2.9583424405932424,-2.278834282527864,2.00888220012635
1772459191139902000,1.75190185546875,-1.0186726006418465,-1.785478226149082,1.8777409147828816
1772459191149897700,1.761897705078125,0.5851701244622468,-1.0591551254168152,1.6868018710806965
1772459191159895000,1.77189501953125,1.9492232657164335,-0.14755524452775715,1.5620703066490589
1772459191169891800,1.781891845703125,3.259653537854552,0.9990750429853796,1.692182248944789
1772459191179888000,1.79188818359375,4.334962217953801,1.5813848095804452,1.4637106163144111
1772459191189885000,1.801885009765625,5.300938416674732,1.877122782884538,1.0593481637708841
1772459191199881700,1.8118818359375,6.2042895246565335,2.3464789549946783,0.8558548319872468
1772459191209878000,1.8218779296875,6.979189609292149,2.739956002517044,0.7552309230476617
1772459191219874800,1.831874755859375,7.507017551854252,2.8132819354906675,0.7044784948013723
1772459191229871900,1.841871826171875,7.74717830710411,2.626650233593583,0.9968315749075263
1772459191239868000,1.851867919921875,8.040236539804935,2.329791731826961,1.2051449472587554
1772459191249864700,1.86186474609375,8.30276519420743,2.2606354857534168,1.2722620156548916
1772459191259862000,1.871862060546875,8.419110184696317,2.306827912607789,1.3665546026811002
1772459191269858800,1.88185888671875,8.322016422644257,2.3712907401680945,1.2873711758509279
1772459191279855000,1.891855224609375,8.181478071141242,2.572024032653868,0.9927296194814145
1772459191289852000,1.901851806640625,8.109713980656862,2.908525101239979,0.5578268480498343
1772459191299848700,1.9118486328125,7.922617876118421,3.1316759772390124,0.29252986144516613
1772459191309845000,1.921844970703125,7.884370855310559,3.2597070216074586,0.1735897033639252
1772459191319841800,1.931841796875,7.936082337847352,3.3363623912647364,0.06969944957215339
1772459191329839000,1.941839111328125,7.936193397006392,3.329582814127207,0.10650416261721402
1772459191339836000,1.9518359375,7.966324915897846,3.412151499481499,0.1754610136611387
1772459191349832000,1.96183203125,8.107638343426585,3.4753912149876354,0.35144879114273936
1772459191359829000,1.9718291015625,8.036020383414625,3.372401965156197,0.24261377442516385
1772459191369825800,1.98182568359375,8.041835207173229,3.582829260921478,0.062131023611873386
1772459191379822000,1.991822021484375,7.939585962054133,3.876485751776397,0.005874992980621755
1772459191389819000,2.00181884765625,7.71806677891016,3.911762232340872,-0.2471621584445238
1772459191399815700,2.011815673828125,7.351683782279491,3.9697649239763617,-0.47987906396184116
1772459191409812000,2.02181201171875,6.90111911213994,4.048757212148606,-0.8924312161691487
1772459191419808800,2.031808837890625,6.427134987968206,4.074761714237928,-1.5242505713425576
1772459191429806000,2.04180615234375,5.72515868524611,3.8048698375910517,-2.125429142928123
1772459191439803000,2.051802978515625,3.646103170958161,3.1520629317075013,-2.742066126538813
1772459191449799000,2.061798828125,1.0282067371845245,1.1768284419000148,-2.0598045781120655
1772459191459796000,2.0717958984375,-1.9004630342006683,-2.0076146644085644,-0.7765230096623301
1772459191469792800,2.081792724609375,-5.984391220712661,-5.140376098796725,0.010678045880794525
1772459191479789000,2.0917890625,-9.62016822796762,-6.673982673636078,-0.15390373677164315
1772459191489782500,2.101782470703125,-12.780668148630857,-6.240812205889821,-1.7463778033822774
1772459191499779600,2.111779541015625,-15.5637744338274,-5.368544802957773,-3.485838374722004
1772459191509775600,2.121775634765625,-16.080447360646723,-6.795411835521459,-2.834527260354161
1772459191519772700,2.131772705078125,-15.093973148298263,-5.587244837027788,-2.790537896502018
1772459191529769700,2.141769775390625,-14.120975672638416,-5.218803154301643,-1.8072462597124277
1772459191539766500,2.1517666015625,-13.984775058078766,-6.858620863628387,0.601323533014208
1772459191549762800,2.1617626953125,-13.256217622423172,-8.081037336748837,2.279361375141889
1772459191559759600,2.171759521484375,-12.415446012473106,-10.267994422829151,3.4546491634711622
1772459191569756700,2.181756591796875,-10.921416245740652,-10.744640459686517,3.143139328278601
1772459191579752700,2.191752685546875,-8.876407962483167,-10.378838477814197,2.0314840541653334
1772459191589749500,2.20174951171875,-6.60230684595704,-9.721319740977883,0.8923099278770387
1772459191599746800,2.211746826171875,-4.0491514721632,-7.650090390270948,-0.4406942508472129
1772459191609743600,2.22174365234375,-1.7553309251666067,-5.027910580089688,-0.9136850166000425
1772459191619739600,2.23173974609375,0.11373977642655372,-2.8460873497664925,-0.46850985747911034
1772459191629736700,2.24173681640625,1.6266285574078558,-0.852397165814042,0.009697656541317701
1772459191639733500,2.2517333984375,2.833973718124628,1.2290607334405184,0.16265914402678608
1772459191649729800,2.261729736328125,3.6106349672138687,3.1109020692795513,-0.1619438353642821
1772459191659726600,2.2717265625,3.8740789828956124,4.641150273601711,-0.6719080583252013
1772459191669723600,2.2817236328125,3.901478446474671,5.833942300570011,-0.9719153795115649
1772459191679720700,2.291720703125,4.205021248310804,6.200949566578864,-1.194570873209089
1772459191689716500,2.301716552734375,4.608534244418144,6.040795829501747,-1.2886325740888713
1772459191699713800,2.3117138671875,4.929479431954026,5.596525875592231,-1.1794894778028129
1772459191709710600,2.321710693359375,5.30109273045361,5.275427543321252,-0.9383754404161125
1772459191719706600,2.33170654296875,5.630480752164125,5.144109440106154,-0.5896698470342904
1772459191729703700,2.34170361328125,5.9094368097543715,5.061289118078351,-0.35004122589975595
1772459191739700500,2.351700439453125,6.009512802487611,5.160310633322596,-0.31476050755158064
1772459191749697800,2.36169775390625,6.025789983549713,5.159604530879855,-0.2865331417810172
1772459191759693600,2.371693603515625,5.931124909949302,5.18120962896645,-0.31545287372991443
1772459191769691000,2.38169091796875,5.806865493074059,5.265553799560665,-0.2885246078591794
1772459191779687700,2.391687744140625,5.735728594577312,5.350066896981001,-0.2991920592807233
1772459191789683500,2.401683349609375,5.734606897071004,5.5407408600062125,-0.4685149720456451
1772459191799680800,2.4116806640625,5.840636829772591,5.767433061873913,-0.5025977127809077
1772459191809677600,2.421677490234375,5.977040857949852,5.9382315270841115,-0.48766485899984835
1772459191819674600,2.431674560546875,6.151967801266908,5.936580252745747,-0.4570951313542202
1772459191829670700,2.441670654296875,6.390137090438604,5.945044129708409,-0.45652186151091007
1772459191839667500,2.45166748046875,6.556013881337642,6.090771866548061,-0.5035269199224188
1772459191849664800,2.461664794921875,6.630566725757718,6.131624101418256,-0.6484560171976685
1772459191859660500,2.47166064453125,6.623804976537823,6.028978550457954,-0.8622336463041603
1772459191869657900,2.481657958984375,6.3903445957094425,5.859629699534177,-1.1310967644251881
1772459191879654700,2.491654541015625,5.967483925053477,5.629889216011763,-1.4447044486798346
1772459191889651500,2.5016513671875,4.915704589101672,4.8219712433934205,-1.6639704460695386
1772459191899647700,2.511647705078125,3.449302249485254,3.37648075890243,-1.8703592800989746
1772459191909644500,2.52164453125,1.9685925675749778,0.6391121425300836,-1.1444333619907499
1772459191919641900,2.531641845703125,-0.46661564123034477,-3.6437995701909065,0.637630671800673
1772459191929637600,2.5416376953125,-3.267525294142961,-8.203077908530831,2.5857892308950423
1772459191939634700,2.551634765625,-5.985812193426489,-10.908319448280334,3.08440218488872
1772459191949631700,2.5616318359375,-9.117712042549252,-9.671215693637729,1.5389660560458898
1772459191959628500,2.571628662109375,-11.667027692049741,-8.76176042356193,0.18957860553655773
1772459191969624800,2.581624755859375,-13.271250356382131,-10.322969875597954,0.7643594013988971
1772459191979621600,2.59162158203125,-13.456142813396452,-8.802647729745507,0.34116248452588915
1772459191989618400,2.601618408203125,-12.821342688846588,-8.023670604929327,-0.24696261728443203
1772459191999615700,2.61161572265625,-12.64944181535244,-10.048509960383177,0.7355335582785308
1772459192009611500,2.621611572265625,-12.058097386169432,-11.314026739561557,1.9111989477485418
1772459192019608800,2.63160888671875,-11.213167487496136,-12.254627674007414,3.028624183565378
1772459192029605600,2.641605712890625,-9.664245270103216,-11.74133094562292,2.7805139306157827
1772459192039601700,2.6516015625,-7.409981657469272,-10.769902326714991,1.8700782712005077
1772459192049598700,2.6615986328125,-5.423906040173769,-9.640780223363638,1.7106566477902232
1772459192059595500,2.671595458984375,-3.45384223100245,-7.739579522538184,1.481622120580077
1772459192069592800,2.6815927734375,-1.919120972919464,-5.478616120004654,1.129822652836144
1772459192079588600,2.691588623046875,-1.030020508608222,-2.959641832754016,0.6023932080723345
1772459192089585700,2.701585693359375,-0.3568114506870508,-0.35181904922723767,0.009365501977503299
1772459192099582700,2.711582763671875,0.44212475857436656,1.8972019865781067,-0.8048466023489832
1772459192109579500,2.72157958984375,1.250197629493475,3.496274428540468,-1.4698853594265877
1772459192119575800,2.731575927734375,1.9957997234523295,4.606681894549727,-1.7069624694474042
1772459192129572600,2.741572509765625,2.8206232381641865,5.50934034409225,-1.856512833315134
1772459192139569700,2.751569580078125,3.7265947577774523,5.904098955857753,-1.9354963536590337
1772459192149565700,2.761565673828125,4.679455454337597,5.583177149197459,-1.6271612029798328
1772459192159562500,2.7715625,5.476023180902004,5.091142989072203,-1.1559830761395393
1772459192169559800,2.781559814453125,6.043639528495073,5.02719804790616,-0.9159894941501319
1772459192179556600,2.791556640625,6.300538652577996,5.123073666340113,-0.7621414330884814
1772459192189552600,2.801552734375,6.150371471986174,5.227210332641005,-0.7449050516054034
1772459192199549700,2.8115498046875,5.781640450924635,5.537110394549369,-0.7653225473426282
1772459192209546500,2.82154638671875,5.455522829186916,5.700152838805318,-0.8118655412003397
1772459192219543800,2.831543701171875,5.155769482761621,5.87005055578351,-0.9370227836981415
1772459192229539600,2.84153955078125,4.9353047771066425,6.17589286673367,-1.0572250341370701
1772459192239536600,2.85153662109375,4.922839847809076,6.422915324446558,-1.1453928546726704
1772459192249533700,2.86153369140625,4.919707979524135,6.799621562170982,-1.2362401235505938
1772459192259529500,2.871529541015625,5.130695831781625,7.236780807292461,-1.3335524967893957
1772459192269526800,2.88152685546875,5.494785749039053,7.511755101770162,-1.3819393649481235
1772459192279523600,2.891523681640625,5.73625583332181,7.626498502281308,-1.4575539933808146
1772459192289520600,2.901520751953125,5.822075337165594,7.777214548927545,-1.4717850555680692
1772459192299516700,2.9115166015625,5.879980998167396,7.940550423172116,-1.4829823030173777
1772459192309513500,2.921513427734375,5.759837784439325,7.8838149749934665,-1.500570858938992
1772459192319510800,2.9315107421875,5.497521896004677,7.807841742381453,-1.3349725927203893
1772459192329507600,2.941507568359375,5.222133760029077,7.562872710067033,-1.4293299155458807
1772459192339503900,2.95150390625,4.731640984126925,6.893706790056824,-1.7823693003483116
1772459192349500700,2.961500732421875,4.242737523242831,5.92226940332055,-2.0339210720539094
1772459192359497500,2.97149755859375,3.471486608764529,4.625685285705328,-2.1365213225677606
1772459192369494800,2.981494873046875,2.160563000151515,2.096626826813817,-1.6277962860129773
1772459192379490600,2.991490478515625,0.433011477792263,-1.917998106369376,-0.2758986427810043
1772459192389487600,3.001487548828125,-1.517141177728772,-6.428771649259328,1.3877943745866417
1772459192399484700,3.011484619140625,-4.2700943167239425,-9.983687651860713,2.7448011044606564
1772459192409480400,3.02148046875,-7.554073902061581,-10.263573099255561,2.02120494447425
1772459192419477800,3.031477783203125,-9.956043273609875,-10.163493599390984,1.4635874283261596
1772459192429474600,3.041474609375,-11.876868712359666,-11.184349389290809,2.5411329275667667
1772459192439471600,3.0514716796875,-12.898136005669832,-9.75692881449759,2.6289520807951687
1772459192449467600,3.061467529296875,-12.617751376581191,-9.200084036287665,2.4519600216418502
1772459192459464400,3.07146435546875,-12.232355051922797,-10.223470221447943,3.6114860310852523
1772459192469461800,3.081461669921875,-11.69118364366293,-10.983774209976195,4.744271333119273
1772459192479458600,3.09145849609375,-10.682607489621638,-11.827300087070464,5.167601374852657
1772459192489454800,3.101454833984375,-9.155513073155284,-11.258864239788055,3.917456936851144
1772459192499452400,3.111452392578125,-7.517252530142664,-10.211565848642588,2.2212211747318507
1772459192509449200,3.12144921875,-6.132331372904777,-9.115939187657833,1.061974420621246
1772459192519446300,3.1314462890625,-5.477081165522336,-7.635476173985004,0.1511503464102745
1772459192529442300,3.1414423828125,-4.8786488239049906,-5.658476428070664,-0.8383196867533028
1772459192539439000,3.151439208984375,-3.914041575449705,-3.3147570009171963,-1.6353123607315123
1772459192549436400,3.1614365234375,-2.9520483088850975,-0.7920937960207461,-1.8938355788849293
1772459192559432200,3.17143212890625,-1.73770057592988,1.3674310932546854,-1.7758824225470422
1772459192569429500,3.181429443359375,-0.216461899754405,2.983828764027357,-1.5921879431456327
1772459192579426300,3.19142626953125,1.2696803285986185,4.293135585093498,-1.336242320395261
1772459192589423000,3.201423095703125,2.6883921117573975,5.149929524561762,-1.199011193744093
1772459192599419400,3.21141943359375,4.181393704485893,5.1254742977410555,-1.107203701531887
1772459192609416200,3.221416259765625,5.375199584671854,4.507040201580524,-0.7640665559321641
1772459192619413200,3.231413330078125,6.05410714649558,4.093629496315121,-0.11951017652153968
1772459192629410300,3.241410400390625,6.617679771655798,4.064378267389536,0.30980259288325906
1772459192639406000,3.251406005859375,7.078263146984577,4.090817946025729,0.45186377003937955
1772459192649403400,3.2614033203125,7.091028520533442,4.156525805211067,0.4488077434696257
1772459192659400200,3.271400146484375,6.520382595986128,4.435360282248259,0.37653365763649344
1772459192669397200,3.281397216796875,6.222931681284308,4.625307100042701,0.20914880026206373
1772459192679393300,3.291393310546875,6.035906303894519,4.9239101073890925,-0.1768394989401102
1772459192689390000,3.30139013671875,5.927914715731144,5.402577420940995,-0.5285017501704394
1772459192699387400,3.311387451171875,5.798678679487109,5.959022970700263,-0.8181552889943122
1772459192709384200,3.32138427734375,5.855900449877977,6.414160940104723,-1.0436384803984313
1772459192719380500,3.33138037109375,6.224633224505186,6.77687138570249,-1.2899410263389348
1772459192729377300,3.341377197265625,6.565425852805376,7.186883680701255,-1.4385039866045117
1772459192739374000,3.3513740234375,6.8192825404524795,7.644131774127483,-1.4493103350400924
1772459192749371400,3.361371337890625,7.021572706991433,8.01141434994638,-1.3389295136526227
1772459192759367200,3.3713671875,7.188362521082162,8.12853558550477,-1.170016277667135
1772459192769364500,3.381364501953125,7.242570496609806,8.047172476547956,-1.0152078471407293
1772459192779361300,3.391361328125,7.2458467418015,7.924450352242588,-1.0652098954111338
1772459192789358300,3.4013583984375,7.132672782564163,7.565490783610939,-1.045108187624812
1772459192799354400,3.411354248046875,6.811435918605327,7.2703206733226775,-0.9768744632236659
1772459192809351200,3.42135107421875,6.136016198897361,7.219449733263254,-1.3896648446336388
1772459192819348200,3.43134814453125,5.358297549709677,6.301074659150839,-1.894467593178153
1772459192829345300,3.44134521484375,3.690333942350745,4.525905061048269,-1.91726336235404
1772459192839341000,3.451341064453125,1.4213193353086708,2.1464643321722745,-1.8439730852156877
1772459192849338400,3.46133837890625,-0.9456365905255079,-1.3958926331073045,-1.1902788751035929
1772459192859335200,3.471335205078125,-3.9231729764103886,-5.835664886578917,-0.13353366037271916
1772459192869332200,3.481332275390625,-7.875034287166595,-9.512046875944733,0.8094654943212867
1772459192879328300,3.491328369140625,-11.87913899537921,-10.271952805066109,1.0734985619373618
1772459192889325300,3.5013251953125,-14.145404011452197,-10.60030446946621,0.5880964602377265
1772459192899322400,3.511322265625,-14.952897621178627,-12.305691506290435,1.452812644072622
1772459192909319200,3.521319091796875,-14.82226633118391,-10.241538962101936,1.0908736943040043
1772459192919315500,3.5313154296875,-13.595847052162885,-8.692820158326626,0.6994244993474334
1772459192929312300,3.541312255859375,-12.772881148016452,-10.401607943505049,1.732543923819065
1772459192939309300,3.551309326171875,-11.820152553403377,-10.99557336884141,2.9352833443060518
1772459192949306400,3.561306396484375,-10.523269160580634,-11.929687279355525,4.29755223249197
1772459192959302100,3.57130224609375,-9.095674982786178,-11.96690261902809,4.563315923292935
1772459192969299200,3.58129931640625,-7.448992063865065,-10.817980421185492,4.024176313121616
1772459192979296300,3.591296142578125,-5.418459465205669,-9.283377236524224,3.2506197520494458
1772459192989293300,3.601293212890625,-3.392453404060006,-7.894459703126549,2.4438706770800054
1772459192999289300,3.611289306640625,-2.4360312156260013,-6.478131600233912,2.1347569432437417
1772459193009286100,3.6212861328125,-2.0021032075107095,-4.6689767304211856,1.3830749448493123
1772459193019283200,3.631283203125,-1.6921312494099139,-2.6237825692027807,0.3364594944667071
1772459193029280300,3.6412802734375,-1.5591238779336214,-0.6458937654942274,-0.7171417231500148
1772459193039276300,3.6512763671875,-1.2237620425105094,1.2941074983686207,-1.5220003081977367
1772459193049273300,3.6612734375,-0.6090998661041259,2.927846180042624,-1.883597385726124
1772459193059270400,3.6712705078125,0.44999008512198924,4.170071515482664,-2.04484812425971
1772459193069267200,3.68126708984375,1.8401783691078424,5.0176469602286815,-2.071213422485441
1772459193079263200,3.69126318359375,3.0858138052523136,5.042701321986318,-1.7340502367287873
1772459193089260300,3.70126025390625,3.9962393816649913,4.4906145519584415,-1.2021845630832015
1772459193099257300,3.71125732421875,4.931804660031199,4.084542519018054,-0.7986199829190969
1772459193109254400,3.72125439453125,5.568578130480646,3.99200744318366,-0.554263967936486
1772459193119250200,3.731250244140625,5.9852183191865675,3.8537107331275937,-0.3102393038000911
1772459193129247200,3.741247314453125,6.273343187138438,3.6530461219638584,-0.06925590705573559
1772459193139244300,3.751244384765625,6.320102015703916,3.6746781080573796,0.05423807840496302
1772459193149241000,3.761240966796875,6.201949099010228,4.01759605794847,-0.008507569973915816
1772459193159237400,3.7712373046875,6.073810210353136,4.608208665725589,-0.23754005135744807
1772459193169234200,3.781234130859375,6.075843762007356,5.2086289662897585,-0.4719834518738091
1772459193179231200,3.791231201171875,6.151710611635446,5.788902550882101,-0.715111897822842
1772459193189228300,3.801228271484375,6.282332549279928,6.350439870822429,-0.9633324062138795
1772459193199224300,3.811224365234375,6.452791991794109,6.897024536302685,-1.1759428181719034
1772459193209221400,3.821221435546875,6.694142249089479,7.336364048072696,-1.3253130762323737
1772459193219218200,3.83121826171875,6.822448311007022,7.65997056377232,-1.4147547160960734
1772459193229215500,3.841215576171875,6.939657809370756,7.940479696023464,-1.4686169469259678
1772459193239211300,3.851211181640625,7.1113184443682425,8.275748592466115,-1.4324344574324785
1772459193249208300,3.861208251953125,7.202110475927591,8.559460320150851,-1.348311382243037
1772459193259205400,3.871205322265625,7.203657120847701,8.671045548892021,-1.335016139601171
1772459193269202200,3.8812021484375,7.028769340497255,8.648817934992909,-1.3753323678985236
1772459193279199500,3.891199462890625,6.692475192660093,8.548747787478566,-1.3961660432212053
1772459193289195300,3.9011953125,6.287889598885179,8.000301419779658,-1.64779365664199
1772459193299192000,3.911192138671875,5.592172356557846,7.038578786849975,-1.9892709062054752
1772459193309189400,3.921189453125,4.195696370604634,5.342528902691602,-2.2338002319283783
1772459193319186200,3.931186279296875,1.847592444756627,2.146881096279621,-1.589095968479663
1772459193329182500,3.941182373046875,-0.6597744068086147,-3.0135259831547736,0.2985634059883654
1772459193339179300,3.95117919921875,-3.876325885039568,-9.111584499579667,2.276250988036394
1772459193349176000,3.961176025390625,-7.790058248409628,-12.58632747979164,2.7755922563046216
1772459193359173400,3.97117333984375,-10.626975034248828,-12.563475011992454,1.7762287517666815
1772459193369169200,3.981169189453125,-12.567225304436683,-14.113839829409121,2.2319665867604312
1772459193379166500,3.99116650390625,-13.792172757339477,-13.902448657047747,2.91251504765898
1772459193389163300,4.001163330078125,-13.166954115605353,-10.380998870718479,1.5715728790096937
1772459193399160300,4.011160400390625,-12.745801417911052,-9.34179610774517,1.7257449113287031
1772459193409156400,4.02115625,-12.156880416482686,-10.210938072133064,3.038390959820151
1772459193419153200,4.031153076171875,-11.233589513278007,-10.780080021858215,4.112624704164267
1772459193429150500,4.041150390625,-10.504152956700324,-11.462254476523398,5.49033578389287
1772459193439147300,4.051147216796875,-9.58499228516817,-11.63508473982215,6.076727559104562
1772459193449144300,4.061144287109375,-7.822037440994381,-10.05842228258848,5.665498289531469
1772459193459140400,4.071140380859375,-5.863907815244794,-8.124882908216119,4.904526777005195
1772459193469137200,4.08113720703125,-3.969230378708243,-6.161412505960464,3.626505905562639
1772459193479134200,4.09113427734375,-2.795125224292278,-4.285088472238183,2.549679806637764
1772459193489131300,4.10113134765625,-1.8893658861249685,-2.848313793644309,1.4412912792354822
1772459193499130400,4.11113037109375,-1.3423182793080806,-1.5006711044430732,-0.026805150947719812
1772459193509127400,4.12112744140625,-2.0088859995186326,0.6274509308308363,-0.8834072211056947
1772459193519124200,4.131124267578125,-1.8076999948292969,2.1549381460070607,-1.387796858804673
1772459193529121300,4.141121337890625,-0.42577743488550185,2.8511066392332314,-1.9580562682524323
1772459193539117300,4.151117431640625,1.2311012993574142,3.7551065665125845,-2.4136808521300552
1772459193549114000,4.161114013671875,2.741592371547222,4.611322413831949,-2.8170196607142683
1772459193559111400,4.171111328125,3.806448046693206,4.768994855487346,-2.634033914104104
1772459193569108200,4.181108154296875,4.577281028020382,4.54524279872477,-2.1257380627468225
1772459193579105300,4.191105224609375,5.291726351693272,4.338061353012919,-1.6844556002154945
1772459193589101300,4.201101318359375,5.89496638585329,4.25266212040782,-1.4100361631415783
1772459193599098000,4.21109814453125,6.288140943297743,4.1519700416028495,-1.1140681804738939
1772459193609095400,4.221095458984375,6.451887736430764,4.0288387519747015,-0.9537051845602691
1772459193619092200,4.23109228515625,6.464536205601692,4.037325425291061,-0.9225143658742309
1772459193629088500,4.241088623046875,6.489655449289083,4.229516807141899,-0.9707248545527457
1772459193639085300,4.251085205078125,6.52621553992331,4.49693907880485,-1.1738855203159153
1772459193649082400,4.261082275390625,6.342392757967114,4.9350119316399095,-1.4042118409022688
1772459193659079400,4.271079345703125,6.255744986605644,5.368516745907068,-1.600695659250021
1772459193669075200,4.2810751953125,6.3690744286656376,5.68962969122529,-1.9127729190669953
1772459193679072300,4.291072265625,6.4243538328170775,6.050655544736981,-2.130125337920338
1772459193689069300,4.3010693359375,6.522627160042524,6.274227568757533,-2.2152840397678313
1772459193699066400,4.31106640625,6.646815265247225,6.480125404399633,-2.310344396296143
1772459193709063200,4.321063232421875,6.709864134356379,6.714086720487475,-2.467987027335167
1772459193719059200,4.33105908203125,6.692246060079336,6.855490164387226,-2.6246523377746342
1772459193729056300,4.34105615234375,6.658265464544296,6.810952519002557,-2.729197877137363
1772459193739053300,4.35105322265625,6.452011070549488,6.704083212867379,-2.833558123061061
1772459193749050400,4.36105029296875,6.0853743914186955,6.299215295019746,-3.07259718080461
1772459193759046400,4.37104638671875,5.38615469392836,5.682801891031861,-3.212198543718457
1772459193769043200,4.381043212890625,4.224858167681098,5.077523629042506,-3.1377576352402565
1772459193779040300,4.391040283203125,2.9841596034169195,3.7499604357957836,-2.875774047499895
1772459193789037300,4.401037353515625,1.4381635026037691,1.4228607195317744,-2.1160103033281863
1772459193799034400,4.411034423828125,-1.2069839261889457,-1.934229694724083,0.14684621947556734
1772459193809030400,4.421030517578125,-4.054786847701669,-6.623996115195751,3.2983331048607822
1772459193819027500,4.43102734375,-6.7438003062278025,-10.601389342093468,4.963917123606801
1772459193829024300,4.441024169921875,-9.774394913083315,-11.25156473042965,4.31790908408314
1772459193839021300,4.451021240234375,-13.019157755798101,-9.834199685704707,2.808765919370949
1772459193849017300,4.461017333984375,-15.011740270769595,-11.016695651847124,3.1094185527235267
1772459193859014400,4.471014404296875,-16.78516331746578,-10.397933638906478,3.9095325735926627
1772459193869011500,4.481011474609375,-17.484491151505708,-7.450480841118097,2.8789135145694016
1772459193879008300,4.49100830078125,-16.49282521573305,-7.262580434459448,1.5176774765625596
1772459193889005300,4.50100537109375,-14.218777875220775,-7.611863243207335,1.562446738746017
1772459193899001300,4.51100146484375,-12.351200042533874,-7.923903239753842,2.502638653999567
1772459193908998100,4.520998046875,-11.93200900030136,-8.112755832570791,3.4500171197563407
1772459193918995500,4.530995361328125,-11.570530142325163,-7.707140311226248,4.135238687032461
1772459193928992300,4.5409921875,-9.785867324212193,-7.414926712656021,4.0246810477733606
1772459193938988300,4.55098828125,-6.967634780576825,-6.749956490769982,3.4081557078436013
1772459193948985300,4.5609853515625,-4.3923838948309415,-5.3348915396809575,2.9979139880031345
1772459193958982100,4.570982177734375,-2.232663775244355,-3.667404902184009,2.4639222621142864
1772459193968979500,4.5809794921875,-0.38864977349638935,-1.74236330704391,1.389491241632402
1772459193978976300,4.590976318359375,0.6912573403090239,0.18409341559112072,0.4272852090999484
1772459193988972500,4.60097265625,1.1255173568576573,1.7482903590053318,-0.10889014443829655
1772459193998969300,4.61096923828125,1.477647956252098,2.9824907934218645,-0.6404683794446289
1772459194008966100,4.620966064453125,2.2365438315480946,3.9597196230411527,-1.3229526307113468
1772459194018963500,4.63096337890625,3.406754901134968,4.85533809094429,-2.1856134163863956
1772459194028959200,4.640959228515625,4.5187791546911,5.733368295186757,-2.8270950645267963
1772459194038956300,4.650956298828125,5.518619629091024,5.901726381507515,-2.9114988563537594
1772459194048953300,4.660953369140625,6.39620676574111,5.386767857390642,-2.6059663420051336
1772459194058950400,4.670950439453125,6.981162370669842,5.06636218355894,-2.2046762826442716
1772459194068947200,4.680947265625,7.164785246139765,5.215557304248214,-1.8084652801133692
1772459194078943200,4.690943115234375,7.077815403217077,5.295925556948781,-1.5062632253617048
1772459194088940300,4.700940185546875,7.172510871955752,5.167845705002546,-1.142223284725845
1772459194098937300,4.710937255859375,7.065321247825026,5.108946356788278,-0.935901816844195
1772459194108934400,4.720934326171875,6.751776107412576,5.322870262497664,-0.8979732143357395
1772459194118931200,4.73093115234375,6.466783692267537,5.771697733581066,-1.016823465643823
1772459194128927200,4.74092724609375,6.284570683595538,6.2964370624780654,-1.2558533171676098
1772459194138924300,4.75092431640625,6.1820057966560125,6.74887921692729,-1.6178699352823196
1772459194148921300,4.76092138671875,6.227313257369398,7.081189263564347,-1.9665040708631276
1772459194158918400,4.77091845703125,6.348389952555299,7.422405670234561,-2.2113661356717347
1772459194168914400,4.78091455078125,6.435251074406504,7.754473724809288,-2.322206391264498
1772459194178911200,4.7909111328125,6.433519720569253,8.031964386022091,-2.341289715788513
1772459194188908300,4.800908203125,6.482168892925977,8.249981698524952,-2.286455717317015
1772459194198905300,4.8109052734375,6.5732783198714255,8.392056758075952,-2.2957881938077507
1772459194208902400,4.82090234375,6.637210986077785,8.510652157840132,-2.387317307469994
1772459194218898200,4.830898193359375,6.615446898037195,8.574016668769717,-2.4432126515626904
1772459194228895500,4.8408955078125,6.567490384119749,8.515884797796607,-2.5148326574012634
1772459194238892300,4.850892333984375,6.518931812655925,8.423004269525409,-2.591092013478279
1772459194248889000,4.86088916015625,6.24286446224451,8.18250799871087,-2.5318223706468936
1772459194258886400,4.870886474609375,5.739881038081646,7.195684242272376,-2.1371308327682317
1772459194268882200,4.880882080078125,5.125414091986418,5.486987642508745,-1.514160992874205
1772459194278879500,4.89087939453125,3.6331045731753107,3.220539086562395,-0.6727392484523356
1772459194288876300,4.900876220703125,1.5669570557773111,-0.8849421755880117,0.7229204526819288
1772459194298873300,4.910873291015625,-0.8626654618501662,-7.353484109699726,2.8945336930274963
1772459194308870400,4.920870361328125,-4.963332017195224,-12.349734061634539,5.118478155243396
1772459194318866200,4.9308662109375,-9.314625192224979,-12.212668354678152,4.810115385904908
1772459194328863500,4.940863525390625,-12.237150469505787,-11.588823339384794,2.0605676714390513
1772459194338860300,4.9508603515625,-14.395036943924426,-13.540211089658737,1.6712300618089735
1772459194348857300,4.960857421875,-14.88160933151245,-12.994617188781499,1.8230213364712893
1772459194358853400,4.970853271484375,-14.617269828295706,-12.232775907683372,0.8139651438280939
1772459194368850200,4.98085009765625,-14.005761732006071,-13.245385262763499,0.40344015006683764
1772459194378847500,4.990847412109375,-12.862717486286163,-13.532972370576857,1.4177406000390649
1772459194388844300,5.00084423828125,-12.14406185144186,-13.920045104014873,3.0745185042560097
1772459194398841300,5.01084130859375,-11.573271549987792,-13.52175890264511,3.915577698975801
1772459194408837400,5.02083740234375,-10.809785424292087,-12.202325824362038,3.42869229991585
1772459194418834200,5.030834228515625,-9.672806177699565,-10.516607949125767,2.8582474508985873
1772459194428831200,5.040831298828125,-8.188519221824407,-8.24776636056304,2.1035005119755863
1772459194438828300,5.050828369140625,-6.546192744547128,-5.98532645573616,0.9469405127309262
1772459194448825300,5.060825439453125,-5.252554032734036,-3.7656238688737154,-0.07333535838909447
1772459194458821400,5.0708212890625,-4.270286624425649,-1.4458423666685818,-0.849087749005109
1772459194468818400,5.080818359375,-3.1499948932617903,0.5929395894199609,-1.7060805720463394
1772459194478815200,5.090815185546875,-1.800553045684099,2.2484920434951783,-2.4592934332698584
1772459194488812300,5.100812255859375,-0.3416898694008589,3.554417989951372,-2.976010491491854
1772459194498806000,5.110805908203125,1.110987896245718,4.382919316393137,-3.299323869463801
1772459194508802000,5.120802001953125,2.6021359700620175,4.951765498042106,-3.325883082826435
1772459194518799000,5.130799072265625,3.9766561447948217,5.341890604788064,-2.953672110694647
1772459194528796000,5.1407958984375,5.18150773513019,5.221695953133702,-2.423930589596182
1772459194538793000,5.15079296875,6.125533383327722,4.841000353512167,-1.857385524496436
1772459194548790000,5.1607900390625,6.898845321989059,4.747848607084155,-1.2780600344091653
1772459194558786000,5.1707861328125,7.413312847718596,4.799830138733983,-0.8637707927435636
1772459194568783000,5.180783203125,7.479134104150533,4.69828524249196,-0.5593580762051046
1772459194578780200,5.1907802734375,7.423881588006019,4.704733687978982,-0.4163509965009987
1772459194588777000,5.20077685546875,7.351529468500614,4.88301520242095,-0.4731225389063358
1772459194598774000,5.21077392578125,7.2281468344599,5.130875280001759,-0.7526713016927242
1772459194608770000,5.22077001953125,7.112956859225035,5.404416911327838,-1.1480996294133365
1772459194618767000,5.23076708984375,6.875780088222027,5.869924299055338,-1.6303952164649962
1772459194628764200,5.24076416015625,6.657426091110706,6.429356755670905,-2.035714823602885
1772459194638761000,5.250760986328125,6.6413938247203825,6.967851053676009,-2.30132346997261
1772459194648758300,5.26075830078125,6.813874543929099,7.4163634674608705,-2.447982642443478
1772459194658754000,5.270754150390625,6.9881386394232505,7.797381138643622,-2.51960381732583
1772459194668751000,5.280751220703125,7.009078551599383,8.147480524471401,-2.5462428179264065
1772459194678748200,5.290748046875,7.006169970676303,8.514704648101329,-2.5357842600151894
1772459194688745000,5.300744873046875,7.158796234858036,8.692332082548736,-2.4468460396289826
1772459194698742300,5.3107421875,7.13310591328442,8.531939276018738,-2.30294668726027
1772459194708738000,5.320738037109375,6.834179665333032,8.240522380784153,-2.25449873656407
1772459194718735000,5.330735107421875,6.611013299503922,8.048789264094829,-2.3253354830704627
1772459194728732200,5.340732177734375,6.177345403629541,7.4642697124958035,-2.4778683698803183
1772459194738729000,5.35072900390625,5.385830284279584,6.135289638188481,-2.4418977695718405
1772459194748726000,5.36072607421875,4.316664929240941,4.223811288976669,-1.9534801925085483
1772459194758722000,5.37072216796875,2.946864184245467,1.6218705492258072,-1.0477863207928835
1772459194768718800,5.38071875,0.7536392699420452,-2.1260615956127644,1.222673662751913
1772459194778716200,5.390716064453125,-1.960395232594013,-7.521819984188675,4.700378415378928
1772459194788713000,5.400712890625,-4.299855248737335,-12.455967407953738,6.761982444128393
1772459194798710000,5.4107099609375,-6.704985130143165,-12.74153557716012,5.344037553688883
1772459194808706000,5.4207060546875,-9.544800560033321,-11.413000324010849,3.065124068444967
1772459194818703000,5.430703125,-12.876460764956473,-13.024237251019477,3.642560091523826
1772459194828700200,5.4407001953125,-14.896232900148629,-11.335498566657304,3.6946690489456055
1772459194838697000,5.450697021484375,-15.213761557239293,-9.366308033189178,1.790369066930562
1772459194848694000,5.460694091796875,-14.785340914368629,-10.043830278134346,0.6539861787959933
1772459194858690000,5.47068994140625,-13.831583561229705,-10.546968016076088,1.6349344673298298
1772459194868687000,5.48068701171875,-13.752934971928596,-10.771132160770893,3.5606887407839296
1772459194878684200,5.49068408203125,-13.35532915403843,-10.656855793249607,4.193966770333051
1772459194888681200,5.50068115234375,-12.235312732684612,-10.462332753580808,4.248269438406825
1772459194898678000,5.510677978515625,-10.422862328457832,-10.064670821589232,3.8488518949195742
1772459194908674000,5.520674072265625,-8.853710977506637,-8.400911680182814,3.024549481472373
1772459194918671000,5.530671142578125,-7.398373637261987,-6.282891352206468,2.232091528314352
1772459194928668000,5.54066796875,-5.549875768098235,-4.344589293476939,1.2995534888148308
1772459194938665200,5.550665283203125,-3.539428510612249,-2.4861563057541844,0.31520963955856857
1772459194948662000,5.560662109375,-2.2539631683826444,-0.5420142888247966,-0.7455878462377935
1772459194958658000,5.570657958984375,-1.4774983186483381,1.0426993729174137,-1.6129948765918611
1772459194968655000,5.580655029296875,-0.7331237206578254,2.338060670739412,-2.432438597961515
1772459194978652000,5.59065185546875,0.23305647620260714,3.6163030759781596,-2.9926451076894995
1772459194988649200,5.600649169921875,1.444566355383396,4.684847668769955,-3.1152737084925173
1772459194998646000,5.61064599609375,2.8466566740870474,5.422335429856181,-3.1596780828863382
1772459195008642000,5.62064208984375,4.192591974848509,5.753407459130883,-2.968900951747596
1772459195018639000,5.63063916015625,5.318918310001492,5.452610156610608,-2.316581537120044
1772459195028636000,5.640635986328125,6.2533151291102165,4.982105106726289,-1.5000497576743363
1772459195038633200,5.65063330078125,6.835420020782947,4.752092820525169,-0.7883470107078552
1772459195048630000,5.660630126953125,7.070850240379571,4.574559494102001,-0.31828809715583917
1772459195058627000,5.670626953125,7.163471240931749,4.453181185621023,-0.028523206911981104
1772459195068623000,5.680623046875,7.189730886825918,4.462465146794915,0.19665157613009213
1772459195078620000,5.690619873046875,7.174660158944129,4.6992397667378185,0.21825988908708094
1772459195088617000,5.700616943359375,7.123043368953466,5.117105113324523,-0.15734394035339355
1772459195098614000,5.710614013671875,7.283674075892567,5.555029497599602,-0.6939514016985893
1772459195108611000,5.720611083984375,7.513078459328413,5.932144316124916,-1.138021156860888
1772459195118607000,5.730607177734375,7.58829882774651,6.265485459375381,-1.4592087748505174
1772459195128604200,5.740604248046875,7.640382650727033,6.6395093261480325,-1.6358992207087575
1772459195138601000,5.75060107421875,7.627800817051529,7.138791557705402,-1.816787410517782
1772459195148598000,5.760597900390625,7.508755335432291,7.555742127534747,-1.9569912693694234
1772459195158595000,5.770594970703125,7.464353299126029,7.802467063605785,-2.0600220202550292
1772459195168591000,5.780591064453125,7.5181509402871125,7.843397039887309,-2.2056066953621802
1772459195178588200,5.790588134765625,7.536966699916124,7.849541533991694,-2.435091304427385
1772459195188585000,5.8005849609375,7.506397374129295,7.769546206256747,-2.6044272958695887
1772459195198582300,5.810582275390625,7.419559633153677,7.456317876708507,-2.510475338974595
1772459195208579000,5.8205791015625,7.084578321480751,6.960449837508797,-2.269603074454516
1772459195218576000,5.830575927734375,6.3588768597781655,6.2067217202395195,-2.103238792299479
1772459195228572200,5.840572265625,5.2495186105608935,4.979070853596926,-1.782452594717592
1772459195238569000,5.85056884765625,3.9582840372800825,3.2239468491792675,-1.3465242065653205
1772459195248566300,5.860566162109375,2.1794389655351636,0.7996113320440054,-0.5413287907786667
1772459195258563000,5.87056298828125,-0.311966931310296,-2.8750626843601466,1.246424248434603
1772459195268560100,5.88056005859375,-2.9122359384566545,-7.830538142836094,3.598722995623946
1772459195278556200,5.89055615234375,-5.157790759456157,-11.66714459642768,4.5113662480860945
1772459195288553000,5.900552978515625,-7.7479902080088845,-11.028784733569621,2.217403077748418
1772459195298550000,5.910550048828125,-10.715331363093853,-10.440330180609225,-0.29384149203300475
1772459195308547000,5.920547119140625,-13.87881292991638,-11.127151584297417,-0.2712882994413376
1772459195318544100,5.930544189453125,-15.172553933060168,-9.230116186457872,-0.4507089374484494
1772459195328541000,5.940541015625,-14.29689338055849,-8.706510830026865,-1.2704555507548152
1772459195338537000,5.950536865234375,-12.609832274019718,-10.848045889103412,-0.44989298142306505
1772459195348534000,5.960533935546875,-11.239509550976752,-11.573026050794123,1.3825705024585127
1772459195358531000,5.970531005859375,-10.927842479395865,-12.407427541190385,3.2757091851204634
1772459195368528100,5.980528076171875,-10.791752923995256,-13.097692947852611,4.343982559755444
1772459195378525000,5.99052490234375,-9.603007834330201,-13.104966738247871,4.201729221028089
1772459195388521000,6.00052099609375,-7.761634117957949,-12.223279765063523,3.3182211698964235
1772459195398518000,6.01051806640625,-5.520181471580266,-9.915613063544034,1.8894443581886589
1772459195408515000,6.02051513671875,-3.8346862991839643,-7.0443526940762995,0.7628780037347227
1772459195418512100,6.03051220703125,-2.351731468695402,-4.203307430130243,0.08105941330250352
1772459195428509000,6.040509033203125,-1.0374854376614093,-1.3990338537424802,-0.3209702854445204
1772459195438506200,6.05050634765625,0.001692190870642662,1.130943473559618,-0.5881744208447635
1772459195448502000,6.060501953125,0.7120522910565138,3.1720214316308497,-0.963030719853565
1772459195458499000,6.0704990234375,0.9807903214931487,4.8831911435097455,-1.4556298934504388
1772459195468496100,6.08049609375,1.2108218969166278,6.08644698908627,-1.5816978210523724
1772459195478493000,6.090492919921875,1.9183026422739027,6.483169009879231,-1.4283721764296293
1772459195488490000,6.100489990234375,3.1080782440304753,6.198205236306786,-1.3055838550202548
1772459195498485200,6.1104853515625,4.136342264360189,5.853311602428555,-0.990484690098837
1772459195508482600,6.120482666015625,4.809583470985293,5.733577554023266,-0.5078687119863927
1772459195518479400,6.130479248046875,5.251188005077839,5.665897517982125,-0.11010755740404128
1772459195528476400,6.140476318359375,5.407048428875208,5.74099162967205,0.15317966028079388
1772459195538473500,6.150473388671875,5.564735483577847,5.794661260539293,0.3087999186467379
1772459195548470500,6.160470458984375,5.7611325004249805,5.708379984402656,0.2611987940382212
1772459195558466600,6.170466552734375,5.908486377161741,5.7329018467187876,0.015761925016343593
1772459195568463400,6.18046337890625,6.007994214618206,5.805622799536586,-0.3879979585241526
1772459195578460400,6.19046044921875,6.154003106486797,6.015436931839585,-0.911971052289009
1772459195588457500,6.20045751953125,6.343302274027466,6.3241761332750315,-1.4079504429087042
1772459195598454500,6.21045458984375,6.441015044760704,6.561098637256026,-1.629282286787033
1772459195608451300,6.220451416015625,6.497341912138462,6.719084967166185,-1.65653561989367
1772459195618447400,6.230447265625,6.663362495422363,6.856103912371396,-1.5914938234016298
1772459195628444400,6.2404443359375,6.819975783413648,6.9587518014192575,-1.4460115857556461
1772459195638441200,6.250441162109375,6.912334918159246,7.079461416858434,-1.332017250046134
1772459195648438500,6.2604384765625,7.043838314813375,7.168371287932992,-1.2268996098838745
1772459195658435300,6.270435302734375,7.178337386152148,7.115508297273516,-1.1651933875553309
1772459195668431600,6.280431640625,7.312244921338558,7.014428680455684,-1.1062057765357196
1772459195678428400,6.290428466796875,7.263128715991973,6.839746067288518,-1.1625014450576157
1772459195688425200,6.30042529296875,7.1140639436841,6.553274811762571,-1.4031538562819361
1772459195698422500,6.310422607421875,6.750324739560485,6.127375211802125,-1.7900296058431266
1772459195708419300,6.32041943359375,5.891718782234191,5.183772172930836,-2.054899270413816
1772459195718416400,6.33041650390625,4.525494142159819,3.794272455731034,-1.9845444622054695
1772459195728412400,6.340412353515625,2.504906014409661,1.6606652670443056,-0.9978019543096422
1772459195738409500,6.350409423828125,-0.7408861713528633,-1.8248621420323847,0.992167674749717
1772459195748406500,6.360406494140625,-3.7873791890859603,-6.640650312876701,2.1992693090341984
1772459195758403300,6.3704033203125,-6.036510115006566,-10.881298170363902,1.8948650680631398
1772459195768400400,6.380400390625,-8.438246846842766,-11.892661324775219,0.31612481817472726
1772459195778397400,6.3903974609375,-11.1531838511765,-11.984921090799569,-1.024268082561344
1772459195788393500,6.4003935546875,-13.563622360384464,-13.08204646590948,-0.6670452745944261
1772459195798390300,6.410390380859375,-14.33297942394018,-11.231167254567145,-0.6835387287557124
1772459195808387600,6.4203876953125,-13.417968857824802,-9.869876563763619,-1.3572583665475249
1772459195818384400,6.43038427734375,-12.460806080156564,-11.2424426818192,-0.24514537526201455
1772459195828381200,6.440381103515625,-11.569385648465156,-12.357490667110682,1.8993088957294821
1772459195838378500,6.45037841796875,-10.579009167981146,-13.297117788088322,4.008082964193821
1772459195848374300,6.460374267578125,-10.017466002821921,-13.93916481502652,5.820781205701827
1772459195858371600,6.47037158203125,-9.0527418499887,-13.42541332861185,6.217349497237802
1772459195868368400,6.480368408203125,-6.90656451806426,-11.744155355393886,4.949142748323083
1772459195878365400,6.490365478515625,-4.502375132378935,-9.690026777091623,3.5513302530691027
1772459195888362500,6.500362548828125,-2.567314832049608,-7.517061391484737,2.300160271412134
1772459195898359300,6.510359375,-0.9224491916835308,-5.057656899055838,1.3578716761402785
1772459195908355600,6.52035546875,0.19122166003584862,-3.0896336558014155,0.5184221085742116
1772459195918352400,6.530352294921875,0.09278408215939998,-1.3043038982123136,-0.6197378722354769
1772459195928349400,6.540349365234375,-0.4382879568904638,0.6081494335114955,-1.2198686883337795
1772459195938346500,6.550346435546875,-0.27200258519053455,2.268393260273337,-1.7702584451854229
1772459195948343600,6.560343505859375,0.35798633968532084,3.6016760002106425,-2.330798278521001
1772459195958340400,6.57034033203125,1.266447338026762,4.524949367758632,-2.3783152319774032
1772459195968336400,6.58033642578125,2.292117834731936,4.916887661406397,-1.8552191402427851
1772459195978333400,6.59033349609375,3.075048081088066,5.145511708119511,-1.0418199597343802
1772459195988330200,6.600330322265625,3.983693788346648,5.332250085261464,-0.37972142082713545
1772459195998327600,6.61032763671875,4.7919069445192815,5.503918319043517,0.02947188593894243
1772459196008324400,6.620324462890625,5.3208618452847,5.542643478757142,0.3884890299767256
1772459196018321400,6.6303212890625,5.533320354616642,5.545343385365605,0.6605161650866269
1772459196028317400,6.6403173828125,5.709922537669539,5.503135644233226,0.7058622042447328
1772459196038314200,6.650314208984375,5.9003661990702145,5.513322107204795,0.48850627826005216
1772459196048311600,6.6603115234375,6.073904902899265,5.682223214361072,0.03310951178893447
1772459196058308400,6.670308349609375,6.312549992889165,5.912708378770947,-0.510786937520653
1772459196068305400,6.680305419921875,6.464824959415197,6.202290459793805,-1.084316893071681
1772459196078302500,6.690302490234375,6.678441991132497,6.459236930149793,-1.6179213732086122
1772459196088298200,6.70029833984375,6.877753434121608,6.742306268277764,-1.9440704129979014
1772459196098295600,6.710295654296875,6.992457087144255,7.023550729066133,-2.178206647261232
1772459196108292400,6.720292236328125,7.076282202300429,7.339796945130825,-2.3594695156015453
1772459196118289400,6.730289306640625,7.0964078754842275,7.683333319181203,-2.453855626130104
1772459196128286500,6.740286376953125,7.075829782357811,7.904514648672938,-2.4749714793950317
1772459196138283500,6.750283447265625,7.099454403573274,7.905979460528492,-2.3506521490260956
1772459196148279600,6.760279541015625,7.110090948399901,7.77224435929954,-2.2093517271094023
1772459196158276400,6.7702763671875,7.05736882751584,7.687901357749104,-2.182087580347806
1772459196168273400,6.7802734375,6.962333167037367,7.608370724916457,-2.0831014286778866
1772459196178270500,6.7902705078125,6.692520785367488,7.310714643031358,-1.9465208748899399
1772459196188267500,6.800267578125,6.051435881459713,6.750825090298056,-1.7934614799879491
1772459196198264300,6.810264404296875,5.205208344191313,5.704929551687837,-1.4830803565643726
1772459196208261400,6.820261474609375,4.2383962791681284,3.314378815254569,-0.7847222443394363
1772459196218257400,6.83025732421875,2.5550053855746984,-1.4559166014373301,0.8867299357876182
1772459196228254200,6.840254150390625,-0.38155601584315296,-7.887590986400842,4.007410179498791
1772459196238251500,6.85025146484375,-4.420844265639782,-12.69830316915512,6.172725342613458
1772459196248248300,6.860248291015625,-8.227281206417084,-12.790220405352114,4.586064346195757
1772459196258245400,6.870245361328125,-11.740875018548964,-12.520358339321612,0.9514277411475777
1772459196268242400,6.880242431640625,-15.176113671368359,-13.791132308375834,-1.1806215505726634
1772459196278238200,6.89023828125,-17.76960573172569,-12.191875742018222,-2.8121982319071885
1772459196288235500,6.900235595703125,-17.782446508598326,-11.543713447070122,-4.232357875786722
1772459196298232300,6.910232421875,-17.425312986350058,-13.46845985865593,-3.1726047844767566
1772459196308229400,6.9202294921875,-16.320510500741005,-14.626650235581398,-1.262996905311942
1772459196318226400,6.930226318359375,-14.56008254469633,-14.541931970977782,-0.5626868553016334
1772459196328223500,6.940223388671875,-13.165343173277376,-13.901707483291625,-0.004135236641205847
1772459196338219500,6.950219482421875,-11.138635101342201,-12.965644776797294,0.40320173820108174
1772459196348216300,6.96021630859375,-8.540629362952709,-11.431039838570356,0.2894793513007462
1772459196358213400,6.97021337890625,-6.226884218302369,-8.9839769413203,0.1484582577820867
1772459196368210400,6.98021044921875,-4.136735647591948,-6.616048371061682,-0.007754408952477388
1772459196378207500,6.99020751953125,-2.036869400465488,-4.060363771051168,-0.06568923211668153
1772459196388204300,7.000204345703125,-0.17749124084711074,-1.361543788781762,0.09235039431671611
1772459196398201300,7.010201416015625,1.213837445345521,1.0843377897292374,0.31882998548019675
1772459196408197400,7.020197265625,2.283421902579069,3.2031805400043725,0.3573811038011685
1772459196418194200,7.030194091796875,3.193544696652889,4.917534727138281,0.22771990094762296
1772459196428191500,7.04019140625,3.9358056634902954,6.173678697815537,0.010982289524376392
1772459196438188300,7.050188232421875,4.6801650639116765,6.895660262212157,-0.13691658080928026
1772459196448185300,7.060185302734375,5.5327118673294775,7.137727727866173,-0.0399416228312999
1772459196458182400,7.070182373046875,6.3613803670316935,7.168553074240684,0.2955580866925418
1772459196468178400,7.080178466796875,7.00697602636218,7.070981173282862,0.5493658206313848
1772459196478175500,7.090175537109375,7.490555077353119,7.105652673691511,0.57181087667346
1772459196488172300,7.10017236328125,7.870080464151501,7.16531482297182,0.49545215187519787
1772459196498169900,7.110169921875,7.855196198752522,7.292489250510931,0.3086486005425453
1772459196508167000,7.1201669921875,7.529912105229497,7.507528423985838,0.02794569928497076
1772459196518164000,7.1301640625,7.230346390330791,7.5355141630202525,-0.2932734828867018
1772459196528160800,7.140160888671875,7.049204225760698,7.49126351788342,-0.6790408328145742
1772459196538157000,7.150156982421875,6.859152778548002,7.544662515115737,-1.1135292512916029
1772459196548153900,7.16015380859375,6.8593024161517615,7.600969508749246,-1.436407306586206
1772459196558151000,7.17015087890625,6.911960239627957,7.765327127256989,-1.7095834656007587
1772459196568148000,7.18014794921875,6.928954629048705,8.021806564623118,-1.914012543864548
1772459196578144800,7.190144775390625,6.9162295875102275,8.244386070474981,-2.002785929077864
1772459196588141800,7.200141845703125,6.755694742161035,8.479337566643952,-2.0301959140509367
1772459196598139000,7.210138916015625,6.609834903374314,8.62250042143166,-2.028617851079255
1772459196608135000,7.220135009765625,6.6601832808643575,8.75529093528688,-1.9934755182884631
1772459196618132000,7.230132080078125,6.7107777420699595,8.869193793320655,-1.841662616316229
1772459196628129000,7.24012890625,6.647493895161151,8.92244782912433,-1.7131877737030385
1772459196638125800,7.250125732421875,6.485898727104067,8.92526756272018,-1.7412343030139803
1772459196648123000,7.260122802734375,6.286388546672463,8.763770009818673,-1.8514592031873762
1772459196658120000,7.270119873046875,5.981647474962473,8.380911679205298,-1.9910554515346883
1772459196668116700,7.28011669921875,5.573647688829898,7.620834485170245,-2.024214501553774
1772459196678113000,7.290113037109375,4.613183531528711,6.324483591789007,-1.847387277573347
1772459196688109800,7.30010986328125,2.7537252924114464,3.960757733917236,-1.25864601662606
1772459196698107000,7.31010693359375,0.021914310166239737,0.05021101484596729,-0.057456894320994614
1772459196708104000,7.32010400390625,-2.942147677117586,-5.34229041776061,1.9001181662857531
1772459196718100700,7.330100830078125,-5.532657506793737,-11.137639076042175,3.585379529926181
1772459196728097800,7.340097900390625,-8.446103990083932,-14.143617712557315,3.631973815579712
1772459196738094800,7.3500947265625,-12.5656997023046,-13.446269069635868,1.261999418707192
1772459196748091000,7.3600908203125,-16.536830361676216,-14.67409003214836,-0.0622969501967309
1772459196758088000,7.370087890625,-18.539486526894567,-13.057961825966835,-1.1722906523399055
1772459196768085000,7.3800849609375,-18.557174159276485,-9.663083825108409,-3.51009924801439
1772459196778081800,7.390081787109375,-18.884754254782198,-10.806154374313353,-3.603711597691476
1772459196788079000,7.4000791015625,-18.50625295033455,-12.216529706281422,-1.3887557669647037
1772459196798076000,7.410075927734375,-17.365899843394754,-12.86574530967474,0.8858893202450125
1772459196808072000,7.420072021484375,-16.73588578407764,-13.230880936592817,2.267190898746252
1772459196818069000,7.430069091796875,-15.935130542695521,-12.616022360831499,2.525093062391877
1772459196828065800,7.440065673828125,-13.528169938731192,-11.405960342371463,2.3117608389653266
1772459196838063000,7.45006298828125,-10.584627592384814,-9.28357188231349,1.83921756125167
1772459196848060000,7.460059814453125,-8.054581291499733,-6.872241392701864,1.1696940599754453
1772459196858057000,7.470056884765625,-5.882094629320502,-4.333274703258276,0.43917818372845646
1772459196868054000,7.480053955078125,-3.7163480890512464,-1.6355015996932982,-0.6084660617126152
1772459196878049800,7.4900498046875,-1.5857389131367206,0.6054185472428798,-1.7492879917405544
1772459196888047000,7.500047119140625,0.3283160085648298,2.3828408927083014,-2.7153189893886447
1772459196898044000,7.5100439453125,2.0319488951981066,3.7370676364749666,-3.0829058088511228
1772459196908041000,7.520041015625,3.616101415926218,4.747849191606044,-2.8558757533311843
1772459196918038000,7.5300380859375,4.957052498534321,5.355440991234779,-2.347432164066285
1772459196928035000,7.54003515625,6.11718173456788,5.632296861675381,-1.548575888173282
1772459196938031900,7.550031982421875,7.124401797825097,5.669680543652176,-0.580889305337891
1772459196948028000,7.56002783203125,7.918619161871075,5.383417377918958,0.35714258233755825
1772459196958025000,7.57002490234375,8.343742516762017,5.182227866098285,1.1553509157158435
1772459196968021800,7.580021728515625,8.43045926170647,5.244988565915823,1.5635434479415415
1772459196978019000,7.59001904296875,8.502381757622956,5.242169416841865,1.51834792317003
1772459196988015900,7.600015869140625,8.520816408979892,5.263581622704863,1.1063288183934985
1772459196998013000,7.610012939453125,8.436377545839548,5.550800481727719,0.49241497613638635
1772459197008010000,7.620010009765625,8.256410270267725,5.981455167260766,-0.21625665950588882
1772459197018006800,7.6300068359375,8.019965320670604,6.405891124409437,-0.8250790969081222
1772459197028003000,7.640003173828125,7.766810643813014,6.785834444358945,-1.2945745313584804
1772459197037999900,7.649999755859375,7.491105112451314,7.178767009741067,-1.5647199443750082
1772459197047997000,7.659996826171875,7.180949029955268,7.5747572091281405,-1.7109581149548292
1772459197057994000,7.669993896484375,7.016743387138843,7.86719058792889,-1.815097557734698
1772459197067991000,7.679990966796875,6.930536929804086,8.102389336857199,-1.8488243246391414
1772459197077987800,7.68998779296875,6.752417912447452,8.214403604665398,-1.8149091955557464
1772459197087985000,7.69998486328125,6.590283815208077,8.17172883054316,-1.775345100799948
1772459197097981000,7.70998095703125,6.493508617585897,8.158584686809778,-1.7455255704671144
1772459197107978000,7.71997802734375,6.314758901110291,8.058499926248192,-1.708160593190789
1772459197117975000,7.72997509765625,6.081863168427348,7.605693030139803,-1.5521899870172142
1772459197127971800,7.739971923828125,5.594863495337963,7.183011223182082,-1.4617776024252176
1772459197137969000,7.749968994140625,4.980995099657774,6.746021489408612,-1.556220557707548
1772459197147966000,7.759966064453125,4.173082387736439,5.930695870882272,-1.5830452901385723
1772459197157962800,7.769962646484375,2.6685435019493102,4.596461529308558,-1.2797777981124818
1772459197167959000,7.779958984375,0.6152239019423723,2.4102117147147655,-0.5887630343876779
1772459197177955800,7.789955810546875,-1.6321464440464972,-1.164606673708558,0.49051717969104647
1772459197187953000,7.799952880859375,-4.214329174882173,-6.140021342885494,2.2623837907254694
1772459197197950000,7.809949951171875,-7.0122051591873165,-11.018768366467953,3.492329490306973
1772459197207947000,7.819947021484375,-9.941386971747875,-12.786765880984067,2.4674969057306644
1772459197217943800,7.82994384765625,-13.131070316797494,-12.023374447834492,0.5761616922941059
1772459197227940900,7.83994091796875,-15.571707564914226,-13.419382231754064,0.39552185122296213
1772459197237937000,7.84993701171875,-16.935832017838955,-12.703669080102443,0.5966768762521445
1772459197247934000,7.859933837890625,-16.65461152244806,-8.748129957616328,-0.9905319633066654
1772459197257931000,7.869930908203125,-16.11030824590325,-8.461986618870496,-0.8756826182030141
1772459197267927800,7.879927734375,-15.480884553694723,-10.029587817770242,1.4107655003294348
1772459197277925000,7.889925048828125,-14.350129296183585,-10.989970142006873,3.3371827677369117
1772459197287922000,7.899921875,-13.183064707928896,-11.723542775475979,4.5964203205153344
1772459197297918700,7.909918701171875,-11.561888570708035,-12.123649178010224,4.9510558884680265
1772459197307916000,7.919916015625,-9.002313392999767,-11.614924579846859,4.259983549337089
1772459197317911800,7.929911865234375,-6.5003761652678245,-10.146790301871299,3.4642151564568278
1772459197327909000,7.9399091796875,-4.386449244084954,-8.000386759975552,2.1801666952878236
1772459197337906000,7.949906005859375,-2.526049924725294,-5.629712105879188,0.7612383467689157
1772459197347903000,7.959903076171875,-0.9310790728628635,-3.410008349972963,-0.2761849854417145
1772459197357900000,7.969900146484375,0.2705360197693109,-1.1529238346993922,-1.4554549752749502
1772459197367896800,7.979896728515625,1.1675304522007703,1.059535941427946,-2.4519886632144448
1772459197377894000,7.989893798828125,1.9674293690145015,2.8323183521330355,-3.0686762079685925
1772459197387890700,7.999890625,2.8435552009403704,4.224537849685549,-3.520392386230826
1772459197397887000,8.009886962890626,3.7267736214756964,5.354680528256297,-3.5642139923006293
1772459197407883800,8.0198837890625,4.536428208628297,5.860179734632372,-3.246999807986617
1772459197417881000,8.029881103515624,5.487778500625491,5.864274310469627,-2.7481881165504456
1772459197427878000,8.0398779296875,6.2720572389811275,5.9184653348624705,-2.174800784340501
1772459197437874700,8.049874755859374,6.78748279608786,5.995075696334243,-1.623713985135406
1772459197447872000,8.0598720703125,7.028852342605591,6.0015691500067705,-1.2240626328922808
1772459197457868800,8.069868896484374,7.064480120825767,5.954514553365111,-0.8893691982500255
1772459197467865900,8.079865966796875,7.086375726291537,5.942043778848648,-0.6675888799518347
1772459197477862000,8.08986181640625,7.01240389662981,5.9987815651148555,-0.792416744364798
1772459197487859000,8.09985888671875,6.997626014214753,6.110665484541654,-1.1891674067303537
1772459197497858800,8.10985888671875,6.985982338172197,6.3300552544415,-1.6304754420943557
1772459197507856000,8.11985595703125,6.789315272212028,6.70064797772169,-2.056475433689356
1772459197517852700,8.129852783203125,6.7398156205058095,7.072124498099088,-2.3255869736135004
1772459197527849700,8.139849609375,6.8074027175664895,7.336305595883727,-2.5637501253053543
1772459197537846800,8.1498466796875,6.783731334599852,7.635281528195739,-2.68936680200845
1772459197547842800,8.1598427734375,6.697824152472615,7.867887922543287,-2.6160113506793974
1772459197557840000,8.16983984375,6.674813863763212,8.042405700537563,-2.461293082654476
1772459197567836700,8.179836669921874,6.665127167007327,8.144946037557721,-2.3292839284352955
1772459197577834000,8.189833984375,6.653748279380798,8.104239933159947,-2.2657639346830547
1772459197587830800,8.199830810546874,6.659940704280138,8.013640793824196,-2.1926075130574403
1772459197597827600,8.20982763671875,6.550283813253045,7.924431063020229,-2.0710130776077507
1772459197607825000,8.219824951171875,6.336019715803861,7.70478761062026,-2.0253451130189
1772459197617821700,8.22982177734375,5.908760517928004,7.179557283335924,-1.920032827067375
1772459197627818000,8.23981787109375,5.114786899510026,6.40909255079925,-1.5963802802689373
1772459197637814800,8.249814697265625,3.9748961493849753,5.362928716641664,-1.100056313995272
1772459197647811800,8.259811767578125,2.618177588802576,3.514748827385902,-0.2456960314147174
1772459197657809000,8.269808837890626,0.892955386173725,0.5693091229856014,1.1004331844836472
1772459197667805700,8.2798056640625,-1.4651801043450832,-3.390664767077565,3.254190596273541
1772459197677802800,8.289802734375,-4.565748995658755,-7.783301175364851,5.668097658374905
1772459197687799800,8.2997998046875,-7.778485884037614,-10.123806901168823,5.920843169909715
1772459197697796900,8.309796875,-10.102703322863578,-9.380939200609921,3.7012504731625318
1772459197707793700,8.319793701171875,-12.235685657650231,-9.772070269528031,2.1501785303898155
1772459197717790000,8.3297900390625,-14.542126032245159,-10.597321069741248,2.4120776547171174
1772459197727786800,8.339786865234375,-15.261553235983847,-9.338091408008337,2.016944510550797
1772459197737783600,8.349783447265626,-15.17228972916603,-9.083219990360737,1.919750356864184
1772459197747780900,8.35978076171875,-14.99809752986431,-10.32741691813469,3.3721395148277282
1772459197757777700,8.369777587890624,-14.019738819432257,-10.755361760187148,4.597633787958324
1772459197767774700,8.379774658203125,-12.633912237787246,-11.463881785464286,5.578544813221693
1772459197777771800,8.389771728515624,-11.373320640051364,-11.615828250688313,5.830127710717917
1772459197787767800,8.399767822265625,-9.891737682437896,-11.503161656451224,5.313296962988376
1772459197797764900,8.409764892578124,-8.250310784348844,-10.535016881519555,4.396207837033272
1772459197807761700,8.41976171875,-6.678357235458493,-8.76655291853547,3.3256492740705608
1772459197817758700,8.4297587890625,-5.3942000532180066,-6.467174737411737,1.9396999428287147
1772459197827755800,8.439755859375,-4.182627045673132,-3.9667753867715594,0.5162681454107165
1772459197837752800,8.4497529296875,-3.2299896364748477,-1.5858996566563843,-0.7718909659475087
1772459197847749600,8.45974951171875,-2.409050854241848,0.4614741866886615,-1.8546669131875038
1772459197857747000,8.469746826171875,-1.319694944089651,1.9894120682418346,-2.6173732866823674
1772459197867743700,8.47974365234375,-0.013200842356681824,3.262815216755867,-3.04977949205786
1772459197877739800,8.48973974609375,1.4485656541526317,4.414125186517834,-3.3586259532600637
1772459197887736800,8.49973681640625,2.972024344465136,5.0072278575450175,-3.2305963701963423
1772459197897733600,8.509733642578125,4.2944332236886025,5.005206580850482,-2.7761165724396704
1772459197907731000,8.51973095703125,5.381838584294915,4.767821720054745,-2.2575787285313007
1772459197917727700,8.529727783203125,6.169300628861785,4.669889753612876,-1.8331005396761
1772459197927724800,8.539724853515626,6.708629039603472,4.852054246968031,-1.574329630371928
1772459197937721900,8.549721923828125,6.96350337986052,5.0216965278804295,-1.414381060478091
1772459197947719000,8.559718994140624,6.994875254201888,5.055595874872804,-1.2495493947178125
1772459197957714700,8.569714599609375,6.939487713500857,5.207540002009273,-1.2528506282202898
1772459197967711700,8.579711669921876,6.963309903115034,5.501967769497632,-1.5350902375258504
1772459197977708800,8.589708740234375,6.968569431078434,5.794226376253366,-1.858145256822556
1772459197987705600,8.59970556640625,6.881191007354855,6.22807488939166,-2.179697324210405
1772459197997703000,8.609702880859375,6.813503957051038,6.829746651321649,-2.5215689799189565
1772459198007699700,8.61969970703125,6.809933112826943,7.40802701627016,-2.7944886799544095
1772459198017696800,8.62969677734375,6.870230052879452,7.8658239757508035,-2.9721000400498507
1772459198027693800,8.63969384765625,6.930236485552787,8.236267061427235,-3.0341452850744126
1772459198037691000,8.64969091796875,6.8498039354443545,8.706943960747122,-3.0407123885050416
1772459198047687000,8.65968701171875,6.836046628248691,9.140145992675423,-2.987659135970473
1772459198057683700,8.66968359375,7.044497070983052,9.376474622416495,-2.9201567945837974
1772459198067680800,8.6796806640625,7.191539982074499,9.535974279499053,-2.9104496395617723
1772459198077677800,8.689677734375,7.28605600259304,9.638840195211767,-2.950515692490339
1772459198087675000,8.6996748046875,7.296300333231687,9.648573069196939,-2.942238278010487
1772459198097671700,8.709671630859376,7.121490294292569,9.24086379044354,-2.7613419048950076
1772459198107669000,8.7196689453125,6.756904117950796,8.383307634431123,-2.3250194028586146
1772459198117665800,8.729665771484376,6.025239948451518,7.238084291106462,-1.6708406240999698
1772459198127662800,8.739662841796875,4.199171353238821,5.9840124505281445,-0.8086153072327374
1772459198137659000,8.749658935546876,1.7216127799600363,3.6414872015953064,0.2752566185504198
1772459198147655700,8.75965576171875,-0.1112567274391651,-0.4900327571749687,1.1929789278425276
1772459198157652700,8.76965283203125,-2.314981992968917,-5.814165002432465,2.9926214345529676
1772459198167649800,8.77964990234375,-5.432703679135441,-11.473881785953044,5.048110487553477
1772459198177646800,8.789646728515624,-8.698409941157697,-14.15970258591771,4.023774454322457
1772459198187643600,8.7996435546875,-11.192585302716493,-15.072935036444663,2.501220603895187
1772459198197641000,8.809640869140624,-12.820313930320738,-16.31739733715653,3.1149709261536596
1772459198207637800,8.8196376953125,-14.001707488179205,-14.071945976531504,2.0618600493371484
1772459198217633800,8.8296337890625,-13.681118274474143,-12.77702423917055,1.3853583796113729
1772459198227630800,8.839630859375,-13.178959026175736,-13.944363552713394,2.413809008554369
1772459198237627600,8.849627685546874,-12.647024232816696,-14.824174210631847,3.831856044194102
1772459198247625000,8.859625,-12.125587452596426,-15.923968512690067,5.612742266377806
1772459198257621800,8.869621826171874,-11.394810002803801,-15.668041448509692,6.210024853438139
1772459198267618800,8.879618896484375,-10.01269396611452,-14.471618663823604,5.650369109460711
1772459198277615900,8.889615966796875,-8.906383414030074,-13.09799222306013,5.182473949813843
1772459198287612700,8.89961279296875,-7.945997582662105,-11.113410643714666,4.2207337812274694
1772459198297609700,8.909609619140625,-6.9391498598486185,-8.552190621408819,2.9972689680978655
1772459198307606800,8.919606689453126,-5.793065515780449,-5.471289138117433,1.490699453265965
1772459198317602800,8.929602783203125,-4.493738821458816,-2.2723159866750238,-0.02270107662975788
1772459198327599900,8.939599853515626,-3.037023763120174,0.6036795946210622,-1.2008096214681863
1772459198337597000,8.949596923828125,-1.504364113742113,3.043904170283675,-2.0359744974523784
1772459198347593700,8.95959375,-0.06024959377944469,5.125667189964652,-2.5434943960011003
1772459198357590800,8.9695908203125,1.2432909188449381,6.838177795058488,-2.821035910618305
1772459198367587800,8.979587890625,2.6209534832566974,7.993333918854594,-2.860889782100916
1772459198377584600,8.989584716796875,4.008653457558155,8.332782731330393,-2.534688281472027
1772459198387582000,8.99958203125,5.078354819169641,8.212417983806132,-1.9157932898014782
1772459198397578800,9.009578857421875,5.9842848377287385,7.998391202244162,-1.3957172765403985
1772459198407574800,9.01957470703125,6.625030718940496,7.640738624557852,-0.9649974168166517
1772459198417571800,9.02957177734375,6.897112799108028,7.18967126559317,-0.6438508614897728
1772459198427568600,9.039568603515624,6.9908268555939195,6.949177332866191,-0.5574748928070068
1772459198437565700,9.049565673828125,7.0554773146808145,6.973191830182075,-0.8508364923685788
1772459198447562800,9.059562744140624,7.092631864076853,6.979992157846689,-1.3112369123458862
1772459198457559800,9.069559814453125,7.109360296037793,7.107464691549539,-1.9230398999288678
1772459198467556600,9.079556640625,7.066883674836158,7.606036729010939,-2.650917828887701
1772459198477554000,9.089553955078125,7.127509700712562,8.129142319226265,-3.1824355658784507
1772459198487550700,9.09955078125,7.147796701937914,8.401455870062112,-3.478232575893402
1772459198497544200,9.109544189453125,7.125733338689804,8.595124338728189,-3.657092474745214
1772459198507540500,9.11954052734375,7.128447858345508,8.84730578663945,-3.6891707437902688
1772459198517537300,9.129537353515625,7.132888471141457,8.927177780255676,-3.595874620455503
1772459198527534600,9.13953466796875,7.192615502351522,8.796610787668824,-3.480565695016086
1772459198537531400,9.149531494140625,7.26222095349729,8.680269888833164,-3.387233039063215
1772459198547528400,9.159528564453124,7.272326167926192,8.522099434527755,-3.3096327897712587
1772459198557525500,9.169525390625,7.228072015658021,8.192930024003982,-3.1915079301282763
1772459198567522300,9.179522216796874,7.002344859430194,7.736556375324725,-3.0899162721350786
1772459198577519400,9.189519287109375,6.665822748056054,6.981267584609985,-2.960527383416891
1772459198587516400,9.199516357421874,6.128396371543407,5.939181375154853,-2.6367916883796454
1772459198597512400,9.209512451171875,5.068337283024191,4.6311382904142135,-2.054614315992594
1772459198607509200,9.21950927734375,3.6302386623501777,2.7123651080191133,-1.257344286377728
1772459198617506600,9.229506591796875,1.428795954799652,0.051989130434393876,-0.11340937542840837
1772459198627503400,9.23950341796875,-1.1608622264832258,-3.543403259462118,1.26943000709936
1772459198637500200,9.249500244140625,-3.94984003406167,-7.917208710551262,2.8270447956442832
1772459198647497500,9.25949755859375,-7.283197106030583,-11.577440360105037,3.4610879643470045
1772459198657494300,9.269494384765625,-10.035118563890457,-12.55441726078987,1.9152321487873791
1772459198667491300,9.2794912109375,-11.980585107421874,-12.280582783997058,0.39798561098799107
1772459198677488400,9.28948828125,-13.420726632100344,-12.2784890265882,0.21482187746241688
1772459198687485400,9.2994853515625,-13.754129734671116,-11.79414951261878,0.38992227765023707
1772459198697481500,9.3094814453125,-13.304805419981479,-11.754862627369164,1.151180790424347
1772459198707478500,9.319478515625,-12.598242373991011,-12.45038873103857,2.750691039282083
1772459198717475300,9.329475341796876,-11.558864254450798,-13.212470835155248,4.315481564675271
1772459198727472400,9.339472412109375,-10.604978306496143,-14.097061713087557,5.638765765428543
1772459198737469400,9.349469482421876,-9.736027480766177,-14.064875599753856,5.598184748715162
1772459198747466200,9.35946630859375,-8.677205240565538,-13.557178591072558,4.763094983793795
1772459198757463600,9.369463623046874,-7.550714070239663,-13.110235618561505,3.833564601677656
1772459198767460400,9.37946044921875,-6.645344608172774,-12.028981181800365,2.441286213544756
1772459198777457400,9.38945751953125,-5.942050793111324,-10.077246225523949,1.1004501356184482
1772459198787454500,9.399454345703125,-5.135121247008443,-7.808901480567455,0.00006765840873122215
1772459198797450200,9.4094501953125,-4.232539954355359,-5.264022352209687,-1.1695968832112849
1772459198807447600,9.419447509765625,-3.1441847456783054,-2.5576070925056933,-2.0526010764740406
1772459198817444400,9.4294443359375,-1.853444677916169,-0.14885142181813715,-2.388283083762228
1772459198827441400,9.43944140625,-0.538248214289546,2.0381670390605926,-2.4141714121259747
1772459198837438500,9.4494384765625,0.6631342386305332,4.152001605784893,-2.4848022607967257
1772459198847435500,9.459435546875,1.8713503369629383,5.994854747059941,-2.568305596652627
1772459198857432300,9.469432373046875,3.1162884384930134,7.234034723454713,-2.535317519286275
1772459198867429400,9.479429443359376,4.307507809317111,7.6741276839405295,-2.3368523178629577
1772459198877426400,9.489426513671875,5.347148379185795,7.638538484165072,-1.9223890348047017
1772459198887423500,9.499423583984376,6.110620476356148,7.56532185678482,-1.2421819346897303
1772459198897419500,9.50941943359375,6.577751665893197,7.453804432582855,-0.6202867382898927
1772459198907416300,9.519416259765626,6.889811536183953,7.272204587373137,-0.27644392863884565
1772459198917413400,9.529413330078125,6.919621568036079,7.263242697760463,-0.06458426198288798
1772459198927410400,9.539410400390626,6.790359228307008,7.268773443880677,-0.08585062963441013
1772459198937407500,9.549407470703125,6.612485710144043,7.272655838271975,-0.4818656712017953
1772459198947404300,9.559404296875,6.549147502699494,7.594923798844218,-1.1068714008376002
1772459198957401600,9.569401611328125,6.562786151951551,8.099159853416682,-1.789437777429819
1772459198967398400,9.5793984375,6.569662467461824,8.476001700219511,-2.455851183861494
1772459198977395200,9.589395263671875,6.590664338958263,8.802612658432125,-2.9967034431695936
1772459198987392500,9.599392578125,6.634166796076298,9.136776808503269,-3.21307006585598
1772459198997389300,9.609389404296875,6.624044045990705,9.454732166573404,-3.1433085473656655
1772459199007385600,9.619385498046874,6.62377458139956,9.555559854456781,-2.9453917736053463
1772459199017382400,9.62938232421875,6.656949121248721,9.539892914247512,-2.7194255479246374
1772459199027379500,9.63937939453125,6.704747814255953,9.464671961307525,-2.485079616433382
1772459199037376500,9.64937646484375,6.690400139951706,9.277381210979819,-2.3647514015272257
1772459199047373300,9.659373291015624,6.55795858566463,8.987843553620577,-2.4218970379419624
1772459199057370400,9.669370361328125,6.308965704661607,8.350425940048694,-2.3864244502834975
1772459199067367400,9.679367431640625,5.7548009593158955,7.558665906026959,-2.289013438975811
1772459199077364500,9.689364501953126,4.732561606103181,6.478051520735025,-1.9002254260525107
1772459199087361300,9.699361328125,3.186564336246252,4.463506180280446,-1.2102204238921404
1772459199097358600,9.709358642578126,1.0066916554689407,1.3171049275964497,0.020505320151150225
1772459199107355400,9.71935546875,-1.4117209013581276,-2.998208002513647,1.6268949532590806
1772459199117351200,9.72935107421875,-4.130212967824936,-7.459952433818578,3.0341712962985037
1772459199127348500,9.739348388671875,-7.133062074142694,-10.612324577605724,2.433906624687463
1772459199137345300,9.74934521484375,-10.129667317634821,-11.17813709064722,0.5256380313023925
1772459199147342300,9.75934228515625,-12.374100441128014,-11.834248883295059,-0.44003954979814586
1772459199157339400,9.76933935546875,-13.979323806935549,-12.018151160228252,-0.8623608528804033
1772459199167336400,9.77933642578125,-14.357662614297865,-10.738713407725095,-1.5609326809212565
1772459199177333200,9.789333251953124,-14.104026875925063,-11.084577347940206,-0.7587540556725114
1772459199187330600,9.79933056640625,-13.69610073955059,-12.883634017586708,1.496556216470152
1772459199197327400,9.809327392578124,-12.741113552355765,-14.225647176468371,3.674725454330444
1772459199207324400,9.819324462890625,-11.500195792382955,-16.302579707252978,5.830771269318461
1772459199217321500,9.829321533203125,-10.43506480742693,-16.092860267496107,5.805832058373094
1772459199227317200,9.839317138671875,-8.858131716558336,-14.82243350444436,4.3788390613421795
1772459199237314600,9.849314453125,-7.172941664588451,-13.31474463019371,3.3464532849073407
1772459199247311400,9.859311279296875,-5.472215605312585,-11.228405973160266,2.3438880617186424
1772459199257308400,9.869308349609375,-3.9635096629738804,-8.653070331740379,1.3293534376643596
1772459199267305500,9.879305419921875,-2.453667410081625,-5.8354673181802035,0.46782253280207514
1772459199277302500,9.889302490234375,-1.0018781177073717,-3.499802602666616,-0.39586642687693235
1772459199287299300,9.89929931640625,0.2808738739103079,-1.3056915531784294,-1.1148682448104024
1772459199297296400,9.90929638671875,1.406932498037815,0.9129431121915579,-1.3533572674557566
1772459199307293400,9.91929345703125,2.311612808796763,2.85275031478703,-1.6451174231700598
1772459199317290200,9.929290283203125,3.159968590265512,4.521813407820463,-2.170457348308712
1772459199327287600,9.93928759765625,3.9544443129867313,5.817822355896234,-2.686975230696797
1772459199337284400,9.949284423828125,4.6961517375946045,6.75212389793694,-2.8797806527927516
1772459199347280400,9.9592802734375,5.451643941926956,7.168181318318843,-2.6436843705028292
1772459199357277400,9.96927734375,6.153048582240939,7.167903085899352,-2.0062232100501656
1772459199367274500,9.9792744140625,6.588342033490538,7.250355743658543,-1.228927900841087
1772459199377271300,9.989271240234375,6.751012721824646,7.30561995024085,-0.6746893596068024
1772459199387268400,9.999268310546874,6.717018097764253,7.170398994368314,-0.16382000449970363
1772459199397265400,10.009265380859375,6.713549544870853,6.86258801369369,0.18592121554017066
1772459199407262200,10.01926220703125,6.4632748073637485,6.739295980545878,0.09517039277404546
1772459199417259500,10.029259521484375,6.26582331302762,6.8659823323071,-0.26062647404298184
1772459199427256300,10.03925634765625,6.4343438964337105,7.098225154039263,-0.8760922219172119
1772459199437253400,10.04925341796875,6.514005462169647,7.502444252589345,-1.5728132344596086
1772459199447250400,10.05925048828125,6.480679531151056,7.777423223242163,-1.839588001999259
1772459199457246200,10.06924609375,6.447841091388463,8.009441588568688,-1.7914831656523047
1772459199467243500,10.079243408203125,6.498989094823599,8.206950366050004,-1.7359147154264152
1772459199477240300,10.089240234375,6.623203503513336,8.216556983307003,-1.6530805110037325
1772459199487237400,10.0992373046875,6.628717883020639,8.08535987612307,-1.7082314664699136
1772459199497234200,10.109234130859376,6.569375467213988,7.83472098147869,-1.91499264094308
1772459199507231200,10.119231201171875,6.699403530618548,7.565121365776657,-2.2962338917486367
1772459199517228000,10.12922802734375,6.795080411610007,7.357629538941383,-3.0777696150064466
1772459199527225300,10.139225341796875,6.5717807747900485,7.49081518959403,-3.600995908991992
1772459199537222100,10.14922216796875,6.698285340243578,7.220600072342157,-3.4664310789406296
1772459199547219000,10.159218994140625,6.606417788407206,6.6337266510933635,-3.515450253653526
1772459199557216300,10.16921630859375,5.242126746743917,5.652844559663534,-2.820795672121644
1772459199567213000,10.179213134765625,3.528120934656262,4.115072097316384,-1.730229509396851
1772459199577209300,10.189209228515624,1.878454616010189,2.031118874114752,-0.5974181961387396
1772459199587206100,10.1992060546875,-0.4520002559006214,-2.10626383920908,1.5964669356390833
1772459199597203200,10.209203125,-3.980561920061707,-8.380040157067775,4.7710903664618725
1772459199607200300,10.2192001953125,-8.363258533614873,-12.799040840667486,5.338002949699759
1772459199617197000,10.229197021484374,-12.102363228875397,-11.3361392026484,2.0581357681170105
1772459199627194000,10.239194091796875,-15.343379286277294,-9.199676040008663,0.09421294591873884
1772459199637191200,10.249191162109375,-18.174312321531772,-10.13975967258215,1.3669972318820653
1772459199647188200,10.259188232421875,-18.639011900007723,-8.933615704348682,0.7190289982013404
1772459199657185000,10.26918505859375,-15.90065076546669,-8.515165251350401,0.7834937254577875
1772459199667182000,10.27918212890625,-14.655574716770648,-10.90800848263502,3.6004046651005743
1772459199677179100,10.28917919921875,-15.500696338623762,-12.397480147671699,5.007915839809179
1772459199687176200,10.29917626953125,-14.863624762010573,-12.625256637644767,5.108056714472174
1772459199697173000,10.309173095703125,-14.50338392139673,-13.602128324389456,4.754128125745058
1772459199707169000,10.3191689453125,-11.395509090983866,-14.445910222071408,3.454917459018528
1772459199717166000,10.329166015625,-8.695265797913073,-13.173590777140856,2.630133984056115
1772459199727163100,10.3391630859375,-7.529274391847848,-11.314216124653816,2.1653940735697743
1772459199737160200,10.34916015625,-5.720314167824387,-9.033104252582788,1.067845650742203
1772459199747157000,10.359156982421876,-3.7649183509528634,-6.165374979850649,0.08641622762791812
1772459199757154300,10.369154296875,-1.8124293614387512,-3.0631027917504308,-0.7239541065786034
1772459199767151000,10.379151123046874,0.17386603608727455,0.14299158987402916,-1.4945822860486804
1772459199777148200,10.389148193359375,1.9287837042778728,3.3973329927951097,-1.693365759640932
1772459199787145200,10.399145263671874,2.9575124195098876,6.082526600772142,-1.2357432799443602
1772459199797142300,10.409142333984375,3.695486502808332,7.48236592567861,-0.9468314263332634
1772459199807139000,10.41913916015625,4.308243137854338,8.044046453481911,-0.5438641544751822
1772459199817136000,10.42913623046875,4.969422150763869,8.579197286278008,-0.40132966071888804
1772459199827132200,10.439132080078124,6.39588878583312,8.977014116570354,-0.3008579466663301
1772459199837129200,10.449129150390625,7.775088642814755,8.737319809788465,0.26244696746841073
1772459199847126300,10.459126220703125,8.404339901065827,8.140362801420688,0.39594066115692256
1772459199857123000,10.469123046875,8.28672357546687,7.421856804180145,0.22336904879435895
1772459199867120400,10.479120361328125,7.98800717087388,6.827367062708735,0.08026566910892724
1772459199877117200,10.4891171875,7.797302812710404,6.336830447664856,-0.1695702385894954
1772459199887114000,10.499114013671875,7.126883093246817,6.243747674819827,-0.8730212900392711
1772459199897111300,10.509111328125,7.041811777421832,6.102273503771424,-1.1322589400723575
1772459199907108000,10.519108154296875,7.174413490706682,6.304064488616586,-1.8217511704050002
1772459199917105200,10.529105224609374,7.389300103968382,7.072709019988775,-2.6675565367385743
1772459199927102200,10.539102294921875,7.402239080518484,7.491672098684311,-2.4711019444853064
1772459199937099300,10.549099365234374,7.01111736395061,7.277351887133717,-2.311686896946281
1772459199947096000,10.559095947265625,7.303387661144137,6.510284395819902,-2.374288022287935
1772459199957093000,10.569093017578124,7.861508450639247,6.0884396242082115,-2.481496789510548
1772459199967089200,10.579089111328125,8.555545192533732,5.98720920074284,-2.9224191865578293
1772459199977086000,10.5890859375,9.416364149734378,5.746715268015861,-3.2430221365272995
1772459199987083300,10.599083251953125,9.41056160093546,6.297244287207723,-3.284225084531307
1772459199997080000,10.609080078125,8.276241344419121,6.468786264261603,-2.962776039126515
1772459200007077000,10.6190771484375,7.613631421923637,5.787785529550909,-2.875756804104149
1772459200017074200,10.62907421875,6.946291548296808,5.115342195305228,-2.8369904355973006
1772459200027071200,10.6390712890625,6.284689926061034,4.779798573574424,-2.7286019570708273
1772459200037068000,10.649068115234375,5.568809016627073,4.190737871414423,-2.3200666027568277
1772459200047065300,10.6590654296875,4.027357573506236,2.8770652563542125,-1.501618614426255
1772459200057062100,10.669062255859375,0.8665630538105964,0.8843103074252605,-0.27823125044703484
1772459200067059000,10.679058837890626,-2.286107780662179,-2.098203866872191,1.3645473545119167
1772459200077056300,10.68905615234375,-5.485421708366275,-5.519482967922091,2.5359075941339135
1772459200087053000,10.699052978515626,-9.444503618025779,-8.29612327197492,3.128057494480908
1772459200097050000,10.709050048828125,-12.952510569936036,-8.994825667592883,3.0025130062311884
1772459200107046100,10.719046142578126,-15.839958688616752,-7.539895739105344,2.4023227150306106
1772459200117043200,10.729043212890625,-17.052413739693165,-6.825895821112394,3.123804805472493
1772459200127040300,10.739040283203124,-16.282112088763714,-6.204999134230613,3.41262525447309
1772459200137037000,10.749037109375,-15.128936909651756,-4.682448790934681,3.53273164332211
1772459200147034000,10.7590341796875,-14.628186359107493,-5.402024463233351,4.798959493379295
1772459200157031200,10.76903125,-13.99295368835926,-7.03262133975029,5.818833578765392
1772459200167028200,10.7790283203125,-12.678913409030436,-8.46513134663701,6.678888565856218
1772459200177025000,10.78902490234375,-11.70826571136713,-9.487880987459421,6.780261028140783
1772459200187022300,10.799022216796875,-10.392121153235435,-10.4260549870193,6.7944099650025365
1772459200197019100,10.80901904296875,-8.948795153301953,-10.85101292221546,6.208337923264503
1772459200207016200,10.81901611328125,-8.068291836944223,-10.494846199172734,5.393923574364185
1772459200217013200,10.82901318359375,-6.8717959870219225,-9.30994024927914,3.96762265125066
1772459200227010300,10.83901025390625,-5.371136573016643,-7.100925645169616,2.285934177660942
1772459200237006000,10.849006103515626,-3.7935423878908154,-4.600063937714696,1.111771155577898
1772459200247003100,10.859003173828125,-2.1991250782579184,-2.469284665930271,0.5405370558790862
1772459200257000200,10.869000244140626,-0.5797603743731975,-0.5034802677690983,0.04371083917170763
1772459200266997000,10.8789970703125,0.7571855642467736,1.4206167399972676,-0.5061639538951218
1772459200276994300,10.888994384765626,1.5293980172336101,3.510019460776448,-1.0057330395698547
1772459200286991000,10.8989912109375,2.4046873983353376,5.698966843891143,-1.3282831780843436
1772459200296988200,10.90898828125,3.6761814983576535,7.2755123967468736,-1.741594222367555
1772459200306985200,10.918985107421875,5.041251707699894,7.6087565093636504,-1.4581994516775012
1772459200316982300,10.928982177734374,5.922042608827352,7.2078095643520355,-0.701768212929368
1772459200326979000,10.93897900390625,6.541519492039084,6.739781133714318,0.03329597427174449
1772459200336976100,10.94897607421875,6.988597489106655,6.173813722372055,0.5378866875007748
1772459200346973200,10.95897314453125,6.982060780814289,5.604795106765628,0.8036820886142552
1772459200356970000,10.968969970703125,6.7870800605058665,4.987691382426023,0.7295918932698666
1772459200366967300,10.97896728515625,6.690141781276464,4.449598650959134,0.12652458532825112
1772459200376964000,10.988964111328125,6.369221143659949,4.287466891807317,-0.8732989379368722
1772459200386960400,10.99896044921875,6.092509650126099,4.400512256228923,-1.6018030359700322
1772459200396957200,11.008957275390625,6.114576520505548,4.6216515001446,-2.2593992219567296
1772459200406954000,11.0189541015625,6.239443840146064,4.716647413134575,-2.5844819476887584
1772459200416951300,11.028951416015625,6.393702673965692,4.7546746537119144,-2.575670572462678
1772459200426948000,11.038947998046876,6.8163383036941285,4.798288169988989,-2.28555569973737
1772459200436945200,11.048945068359375,7.467394566518068,4.7799444117859,-2.3229114707939327
1772459200446942200,11.058942138671876,7.975577312889695,4.621698846417665,-2.551801036575436
1772459200456939300,11.068939208984375,8.36016875090599,4.268767452034354,-2.878365817558765
1772459200466936000,11.07893603515625,8.609085644063352,3.998257735750079,-3.3925051342472434
1772459200476933000,11.08893310546875,8.576917650908232,3.8157103805571793,-3.657517714419961
1772459200486930200,11.09893017578125,8.305129000729321,3.615746611139178,-3.833107505559921
1772459200496931000,11.10893115234375,7.761698999887704,3.3005262309908865,-3.6049379246160385
1772459200506928000,11.11892822265625,6.936447030630707,3.166069829750061,-3.0424574786067007
1772459200516925200,11.12892529296875,6.004595219829678,2.8338158972144125,-2.1832858502216634
1772459200526922200,11.138922119140625,4.728865089672803,1.0596505077183247,-0.06453165501281619
1772459200536918300,11.148918212890624,2.798734062439203,-1.91368258125782,2.740054494455457
1772459200546915000,11.1589150390625,0.9436135602653026,-4.61600209608078,4.486006765902042
1772459200556912000,11.168912109375,-0.6545166324108839,-5.885600591614842,4.016753761905432
1772459200566909200,11.1789091796875,-1.2444330746173857,-5.343184151729941,1.6295809774726628
1772459200576906200,11.18890625,-1.924264765548706,-4.097183389404416,-0.30710356305763126
1772459200586903000,11.198903076171876,-2.7646482529640197,-4.462456963488459,-0.5274550175964832
1772459200596900400,11.208900390625,-4.117622366321086,-4.764617955577373,-0.6442828231662512
1772459200606897200,11.218897216796876,-5.322506689882278,-4.534208779013157,-1.3179137597613035
1772459200616894200,11.228894287109375,-5.921545180699229,-4.353346600428224,-1.6347851219870149
1772459200626891300,11.238891357421876,-7.174537409347296,-3.5491543703347443,-1.2906364612571894
1772459200636888300,11.248888427734375,-8.341282848650216,-2.8304385297358032,-0.6686715606220066
1772459200646885000,11.258885009765624,-8.791932274463772,-2.264072766725719,-0.2773650620717555
1772459200656882000,11.2688818359375,-8.603240425166486,-1.6687565113022922,0.17556078424118457
1772459200666879200,11.278879150390624,-8.348875787997246,-1.1676730755418538,0.7846187108997255
1772459200676876000,11.2888759765625,-8.186172950959206,-1.0475573343425988,1.273866382111609
1772459200686873000,11.298873046875,-7.2255661703169345,-0.8709110198870301,1.1294825341615826
1772459200696870100,11.3088701171875,-5.630628051680326,-0.5562108642205595,0.916229367320612
1772459200706866200,11.3188662109375,-4.204422113373876,0.11693711116313933,1.3172709318131208
1772459200716863200,11.32886328125,-4.119356058245897,0.29534371328949927,1.8726307321622966
1772459200726860000,11.338860107421874,-3.995976931336522,-0.5269894459113479,1.3718953791871666
1772459200736857000,11.348857177734375,-1.9127678045004606,-0.08042436680197715,0.002271890454739332
1772459200746854100,11.358854248046875,-1.5834633694201707,-0.7273395842984318,-0.6984885336715727
1772459200756851200,11.368851318359376,-0.997584219905734,-1.8692939889550209,-1.6237256755732
1772459200766848000,11.378847900390625,0.1290986735999584,-1.419159819187224,-1.8749010151818393
1772459200776845300,11.38884521484375,0.9173223501890897,-1.3229410864040254,-1.502405965411663
1772459200786842000,11.398842041015625,1.1988584874004125,-1.0099863131001592,-0.5751893401306122
1772459200796839200,11.408839111328126,1.4029162481337785,-0.9665873163565992,-0.07618285677470267
1772459200806836200,11.418836181640625,1.8427929355204105,-0.5610083276301622,0.0996991222448647
1772459200816833300,11.428833251953124,2.065543706285953,-0.2181853625461459,0.15026318831220267
1772459200826830000,11.438830078125,2.0101731167197228,-0.17188246105462313,0.14233809440135956
1772459200836827100,11.4488271484375,2.0351924071639775,0.14392097967863082,0.14764496863782406
1772459200846824200,11.45882421875,1.9497212783664464,0.43381198052018877,0.12457863889224827
1772459200856821000,11.468821044921874,1.6862720019876956,0.6253247324571013,0.21755568634048103
1772459200866817300,11.4788173828125,1.4424468790113925,0.7430345815584063,0.4553847837723791
1772459200876814000,11.48881396484375,1.2721452574074268,0.9900371655270457,0.8019931856792419
1772459200886811100,11.49881103515625,1.08276659488976,1.115316280838847,1.029899950968474
1772459200896808200,11.50880810546875,0.9118652538269758,1.2254609553828835,1.1029868144892157
1772459200906805000,11.518804931640625,0.7164315290540456,1.3423656255811451,1.068189788004756
1772459200916802000,11.528802001953125,0.5715934345304966,1.2940648282706737,0.9640687576644122
1772459200926799000,11.538799072265626,0.292654912596941,1.160356030526757,0.8892974481880664
1772459200936796200,11.548796142578125,0.023294366347789763,0.9764797648176551,0.728054600699991
1772459200946793000,11.55879296875,-0.23295243130624294,0.8356845159441232,0.6427841090410947
1772459200956790300,11.568790283203125,-0.526420413851738,0.6683011198744178,0.6657113225769251
1772459200966787000,11.578787109375,-0.6844605197757482,0.43886400321274993,0.6172117147587239
1772459200976784100,11.5887841796875,-0.7486866159707307,0.27549071956723925,0.5536583667261525
1772459200986781200,11.59878125,-0.7435504221260547,0.12070464700311422,0.4534389104016125
1772459200996778200,11.6087783203125,-0.6716916390955447,0.08690116160064935,0.3142208477169275
1772459201006775000,11.618775146484374,-0.5721785409420729,0.05939794538617134,0.16763181787282228
1772459201016772400,11.6287724609375,-0.44570729323625563,-0.08029489520341157,0.12612641632352023
1772459201026769200,11.63876904296875,-0.4403747000366449,-0.25078297929018734,0.10332600750513374
1772459201036765200,11.64876513671875,-0.38898996523618695,-0.44837563566267485,0.03161492584962398
1772459201046762200,11.65876220703125,-0.2810124055981636,-0.6395914504796266,-0.019527195833995935
1772459201056759000,11.668759033203125,-0.2080307560175657,-0.8413271980062127,-0.07396930891107767
1772459201066756400,11.67875634765625,-0.1290945819467306,-0.9199816325262188,-0.021493600536137816
1772459201076753200,11.688753173828125,0.02188449954986572,-0.9411354797139764,-0.0352707084108144
1772459201086750200,11.698750244140625,0.12579086422622204,-0.980657342763245,0.003053798080049455
1772459201096747300,11.708747314453126,0.16566694754064082,-0.9856678644016384,0.013996522779017686
1772459201106744000,11.718744140625,0.2058522429347038,-0.9546370585829019,-0.008700937121547759
1772459201116741000,11.7287412109375,0.09517711477577685,-0.8316001692399382,-0.012487469922937451
1772459201126738200,11.73873828125,0.021538462591171263,-0.68391632989645,-0.08082417977452278
1772459201136735200,11.7487353515625,0.05791325978636741,-0.4383154294192791,-0.16298300568629057
1772459201146732000,11.75873193359375,0.09671499186754226,-0.17787293364107606,-0.174305304287374
1772459201156729300,11.768729248046874,0.01012275008559227,0.07774521072059869,-0.15706214600363747
1772459201166726100,11.77872607421875,0.03600011866390705,0.21226795519590377,-0.11321586215030402
1772459201176723200,11.78872314453125,0.5363625466734171,0.2946419947609305,-0.14985360286431387
1772459201186720300,11.79872021484375,-0.09166764535009861,0.3464575221940875,0.07698604465005919
1772459201196717300,11.80871728515625,0.19472353067696094,0.2542068162590265,0.24481205165442077
1772459201206713000,11.818713134765625,-0.14386661914288998,0.2930743070527911,0.3739593501690775
1772459201216710100,11.828710205078124,0.0698737466931343,0.2825415148615837,0.33584099724218247
1772459201226707200,11.838707275390625,0.03371814520657063,0.33813597631156445,0.32118612015228715
1772459201236704000,11.8487041015625,0.11157646091282367,0.3531228253021836,0.28685364243965594
1772459201246701300,11.858701416015625,-0.024275778600573537,0.38164690899699927,0.43002793193683025
1772459201256698000,11.868697998046875,-0.1266121174812317,0.17156565019041298,0.4248481912113726
