time,seconds_elapsed,z,y,x
1772024959656105200,0.083105224609375,0.15413449704647064,-0.19495828449726105,0.30806708335876465
1772024959666102300,0.093102294921875,0.4340860843658447,0.46100670099258423,-0.06970910727977753
1772024959676099300,0.103099365234375,0.619749903678894,0.8688263893127441,-0.7412955164909363
1772024959686096100,0.11309619140625,0.7122334241867065,0.8955152034759521,-1.4189053773880005
1772024959696094200,0.12309423828125,0.6315057873725891,0.6839979290962219,-1.8326228857040405
1772024959706091300,0.13309130859375,0.4711465537548065,0.35061803460121155,-2.1630945205688477
1772024959716088300,0.14308837890625,0.22281746566295624,0.06546086072921753,-2.5785179138183594
1772024959726085000,0.153085205078125,0.0945669487118721,-0.0444866418838501,-3.1195099353790283
1772024959736082400,0.16308251953125,0.15934514999389648,-0.019999679177999496,-3.510178804397583
1772024959746079200,0.173079345703125,0.32315894961357117,0.11433854699134827,-3.467480421066284
1772024959756076300,0.183076171875,0.4636111557483673,0.36938974261283875,-2.9246163368225098
1772024959766073300,0.1930732421875,0.5586398243904114,0.4705553650856018,-2.0535788536071777
1772024959776070100,0.203070068359375,0.6660815477371216,0.4150042235851288,-0.919701874256134
1772024959786068200,0.213068115234375,0.8722618222236633,0.35513627529144287,0.12400350719690323
1772024959796065300,0.223065185546875,1.0963785648345947,0.5461722612380981,0.8787574768066406
1772024959806062300,0.233062255859375,1.2096765041351318,0.8147723078727722,1.2447611093521118
1772024959816059400,0.243059326171875,1.2398477792739868,1.005675196647644,1.132819414138794
1772024959826056200,0.25305615234375,1.2179396152496338,0.9595582485198975,0.6567456126213074
1772024959836053200,0.26305322265625,1.2706859111785889,0.5850376486778259,0.022860251367092133
1772024959846050300,0.27305029296875,1.4146850109100342,0.09161205589771271,-0.6304306387901306
1772024959856047000,0.283047119140625,1.4772748947143555,-0.4919946491718292,-1.16041100025177
1772024959866045200,0.293045166015625,1.4320913553237915,-1.2113087177276611,-1.3421677350997925
1772024959876042200,0.303042236328125,1.2848942279815674,-1.632651448249817,-1.1563299894332886
1772024959886039300,0.313039306640625,1.2103042602539062,-2.0342161655426025,-0.8233196139335632
1772024959896036000,0.3230361328125,1.505541443824768,-2.759514331817627,-0.5371174216270447
1772024959906033200,0.333033203125,1.6983091831207275,-2.9801676273345947,-0.18290743231773376
1772024959916030200,0.3430302734375,1.7819864749908447,-2.8995168209075928,0.0670909509062767
1772024959926027300,0.35302734375,1.6665054559707642,-2.8245627880096436,0.20087625086307526
1772024959936024000,0.363024169921875,1.4631414413452148,-2.703511953353882,0.296177476644516
1772024959946022400,0.3730224609375,1.111580729484558,-2.412660837173462,0.3987102508544922
1772024959956019200,0.383019287109375,0.6055466532707214,-1.7922204732894897,0.6466050148010254
1772024959966016300,0.393016357421875,-0.2269044816493988,-0.5935994386672974,0.9738829731941223
1772024959976013000,0.403012939453125,-0.9624991416931152,0.8530921936035156,1.1372872591018677
1772024959986010400,0.41301025390625,-1.1446175575256348,1.142921805381775,0.9103085398674011
1772024959996007200,0.423007080078125,-1.099867582321167,0.46901339292526245,0.5327800512313843
1772024960006004200,0.433004150390625,-1.2667808532714844,0.19138455390930176,0.30546820163726807
1772024960016001300,0.443001220703125,-1.4571292400360107,1.1294095516204834,0.3679978847503662
1772024960025999400,0.452999267578125,-1.316622257232666,2.659674644470215,0.4933475852012634
1772024960035996200,0.46299609375,-1.0845469236373901,4.150735855102539,0.7013044953346252
1772024960045993200,0.4729931640625,-0.9270740151405334,5.880887031555176,1.1029462814331055
1772024960055990300,0.482990234375,-0.8215891122817993,5.63994836807251,0.6943760514259338
1772024960065987300,0.4929873046875,-0.6641592979431152,3.8462984561920166,-0.7989023923873901
1772024960075984100,0.502984130859375,-0.3992576003074646,3.1635332107543945,-1.5932046175003052
1772024960085981200,0.512981201171875,-0.28309696912765503,2.109614372253418,-1.7548973560333252
1772024960095978200,0.522978271484375,-0.37724611163139343,0.850954532623291,-1.2863621711730957
1772024960105976300,0.532976318359375,-0.4290218651294708,-0.5447839498519897,-0.3973936140537262
1772024960115973000,0.54297314453125,-0.5640012621879578,-1.6327056884765625,0.05839921534061432
1772024960125970200,0.55297021484375,-0.8006168007850647,-1.82032310962677,-0.3137211799621582
1772024960135967200,0.56296728515625,-1.014883041381836,-1.1963039636611938,-1.1816812753677368
1772024960145964000,0.572964111328125,-1.1573495864868164,-0.5874754190444946,-1.7586954832077026
1772024960155961300,0.58296142578125,-1.2955796718597412,-0.6390067934989929,-1.9132027626037598
1772024960165958100,0.592958251953125,-1.4626002311706543,-0.8083590865135193,-1.7100815773010254
1772024960175955200,0.602955078125,-1.6062397956848145,-0.6830523014068604,-1.5121983289718628
1772024960185952300,0.6129521484375,-1.5822561979293823,-0.5978406071662903,-1.2841994762420654
1772024960195950300,0.622950439453125,-1.29437255859375,-0.021006865426898003,-1.1433587074279785
1772024960205947100,0.632947021484375,-0.9364673495292664,0.7458174228668213,-1.5351448059082031
1772024960215944200,0.642944091796875,-0.8260124325752258,1.2135894298553467,-2.4304161071777344
1772024960225941200,0.652941162109375,-0.6803156733512878,1.8868180513381958,-3.1064181327819824
1772024960235938300,0.662938232421875,-0.65683513879776,2.4130537509918213,-3.337085247039795
1772024960245935000,0.67293505859375,-0.8385862708091736,2.673652410507202,-3.2822957038879395
1772024960255932400,0.682932373046875,-1.0762592554092407,2.5126700401306152,-3.000446081161499
1772024960265929200,0.69292919921875,-1.133466362953186,1.9566700458526611,-2.442091941833496
1772024960275927300,0.70292724609375,-0.9872502088546753,1.3751887083053589,-1.6389272212982178
1772024960285924000,0.712924072265625,-0.7853862643241882,0.9822287559509277,-0.768894374370575
1772024960295921400,0.72292138671875,-0.6242181062698364,0.7499595284461975,0.079041488468647
1772024960305918200,0.732918212890625,-0.48692822456359863,0.593117356300354,0.8489994406700134
1772024960315915300,0.742915283203125,-0.3860474228858948,0.3112089931964874,1.4419996738433838
1772024960325912300,0.752912353515625,-0.30202311277389526,-0.34797361493110657,1.8270008563995361
1772024960335909000,0.7629091796875,-0.21192626655101776,-0.9746412634849548,2.1276979446411133
1772024960345907200,0.7729072265625,-0.15350863337516785,-1.3557945489883423,2.426875114440918
1772024960355904300,0.782904296875,-0.1326662003993988,-1.6128902435302734,2.7187159061431885
1772024960365901300,0.7929013671875,-0.13098998367786407,-1.724342703819275,3.009613037109375
1772024960375898000,0.802898193359375,-0.12245908379554749,-1.4465065002441406,3.2367587089538574
1772024960385895200,0.812895263671875,-0.08085058629512787,-1.0710198879241943,3.2790844440460205
1772024960395892200,0.822892333984375,-0.020651694387197495,-1.315679907798767,3.1854405403137207
1772024960405889300,0.83288916015625,-0.07446575909852982,-1.8578178882598877,2.934220790863037
1772024960415886000,0.842885986328125,-0.32309848070144653,-2.0058586597442627,2.6405913829803467
1772024960425883400,0.85288330078125,-0.7146449089050293,-1.5862040519714355,2.3229434490203857
1772024960435881200,0.862881103515625,-0.989023745059967,-1.1100369691848755,1.853859782218933
1772024960445878300,0.872878173828125,-0.8039867281913757,-0.8078799843788147,1.1548333168029785
1772024960455879000,0.88287890625,-0.23219144344329834,-0.3753652572631836,0.5380952954292297
1772024960465876000,0.8928759765625,0.4967619776725769,0.6814925670623779,0.1829342097043991
1772024960475872800,0.902872802734375,1.153298258781433,0.5994791984558105,0.35324519872665405
1772024960485869800,0.912869873046875,1.4337102174758911,0.6000505685806274,0.9792422652244568
1772024960495867000,0.922866943359375,1.0626716613769531,0.3888232409954071,1.532804250717163
1772024960505864000,0.932864013671875,0.18673108518123627,-0.45729419589042664,1.630313754081726
1772024960515861800,0.94286181640625,-0.5107915997505188,-1.8290860652923584,1.214376449584961
1772024960525858800,0.95285888671875,-0.8548292517662048,-2.9718246459960938,0.43395495414733887
1772024960535855900,0.96285595703125,-1.0053192377090454,-3.155233144760132,-0.5739497542381287
1772024960545853000,0.97285302734375,-0.8036460280418396,-2.329371690750122,-1.502941370010376
1772024960555849700,0.982849609375,-0.5218716263771057,-0.756635844707489,-1.93430757522583
1772024960565847000,0.992846923828125,-0.3238866627216339,0.25219792127609253,-1.9014086723327637
1772024960575843800,1.00284375,-0.373531699180603,0.4654849171638489,-1.5739037990570068
1772024960585841000,1.0128408203125,-0.46264445781707764,0.03900820016860962,-1.132735252380371
1772024960595838700,1.022838623046875,-0.5796818733215332,-1.1382801532745361,-0.8420576453208923
1772024960605836000,1.0328359375,-0.6607327461242676,-2.676589250564575,-0.560499370098114
1772024960615832800,1.042832763671875,-0.5506632328033447,-3.893559694290161,-0.10237442702054977
1772024960625830000,1.052829833984375,-0.32004061341285706,-4.396942138671875,0.141868457198143
1772024960635827000,1.062826904296875,-0.12468577921390533,-3.986065149307251,-0.2571968734264374
1772024960645824000,1.072823974609375,-0.07898709923028946,-2.928802967071533,-0.9253333210945129
1772024960655820800,1.08282080078125,-0.13587434589862823,-2.1738479137420654,-1.415826439857483
1772024960665817900,1.09281787109375,-0.38052046298980713,-1.3497099876403809,-1.8603962659835815
1772024960675816000,1.10281591796875,-0.7051160931587219,-0.1618465930223465,-2.1424050331115723
1772024960685813000,1.11281298828125,-0.7385833859443665,0.8511444330215454,-1.8670283555984497
1772024960695809800,1.122809814453125,-0.5955138802528381,1.2754709720611572,-1.2459334135055542
1772024960705806800,1.132806884765625,-0.38787317276000977,1.2402113676071167,-0.6317033767700195
1772024960715804000,1.142803955078125,-0.0826653242111206,1.02806556224823,-0.2329309731721878
1772024960725800700,1.15280078125,0.27736496925354004,0.8066322803497314,-0.027932504191994667
1772024960735797800,1.1627978515625,0.5710016489028931,0.5335019826889038,0.12847255170345306
1772024960745794800,1.172794921875,0.7191361784934998,0.10998829454183578,0.28101590275764465
1772024960755793000,1.18279296875,0.7119911909103394,-0.4726892411708832,0.4389687776565552
1772024960765789700,1.192789794921875,0.5923833847045898,-1.0170797109603882,0.610159695148468
1772024960775786800,1.202786865234375,0.45743435621261597,-1.2414939403533936,0.8034689426422119
1772024960785783800,1.21278369140625,0.37732625007629395,-1.0848709344863892,1.0838946104049683
1772024960795780900,1.22278076171875,0.326322466135025,-0.6582440137863159,1.336390495300293
1772024960805777700,1.232777587890625,0.31195488572120667,-0.011073850095272064,1.4274624586105347
1772024960815775000,1.24277490234375,0.30016186833381653,0.6824092864990234,1.3663192987442017
1772024960825771800,1.252771728515625,0.28770312666893005,1.2954658269882202,1.2179566621780396
1772024960835769900,1.262769775390625,0.24261552095413208,1.6792339086532593,1.0705565214157104
1772024960845766700,1.2727666015625,0.1511777639389038,1.7952784299850464,0.9713667035102844
1772024960855764000,1.282763916015625,0.03438429906964302,1.7041056156158447,0.9221547245979309
1772024960865760800,1.2927607421875,-0.08977587521076202,1.4709171056747437,0.9033412933349609
1772024960875757800,1.3027578125,-0.16149400174617767,1.2214335203170776,0.9228372573852539
1772024960885755000,1.3127548828125,-0.09196668118238449,1.095674991607666,0.973865270614624
1772024960895752000,1.322751953125,0.061269473284482956,1.0660955905914307,1.031176209449768
1772024960905748700,1.332748779296875,0.18923905491828918,0.9707512855529785,1.150850534439087
1772024960915746800,1.342746826171875,0.2055080384016037,0.8161859512329102,1.293253779411316
1772024960925743900,1.352743896484375,0.10551553964614868,0.5597774982452393,1.293578863143921
1772024960935741000,1.362740966796875,-0.02878926694393158,0.22135578095912933,1.1806504726409912
1772024960945737700,1.37273779296875,-0.05808563530445099,0.07068318128585815,1.1779215335845947
1772024960955735000,1.382735107421875,0.060182951390743256,0.16222454607486725,1.3725440502166748
1772024960965731800,1.39273193359375,0.26164716482162476,0.36363106966018677,1.6385908126831055
1772024960975728600,1.402728759765625,0.4025520980358124,0.3523395359516144,1.6635692119598389
1772024960985726000,1.412725830078125,0.3427172899246216,0.049376219511032104,1.3727418184280396
1772024960995724000,1.42272412109375,0.18753226101398468,-0.4782559275627136,0.9082918167114258
1772024961005720800,1.432720947265625,-0.04607028886675835,-0.44449833035469055,0.3924805819988251
1772024961015717600,1.442717529296875,-0.37126514315605164,0.4172137677669525,0.13715587556362152
1772024961025715000,1.45271484375,-0.5582963824272156,1.1416730880737305,-0.01576158031821251
1772024961035711700,1.462711669921875,-0.6286957263946533,1.4772793054580688,-0.4133715331554413
1772024961045708800,1.472708740234375,-0.5914666652679443,1.5856226682662964,-0.8848719000816345
1772024961055705900,1.482705810546875,-0.5065829753875732,1.0988659858703613,-1.5377721786499023
1772024961065703000,1.492702880859375,-0.5234835743904114,0.07584497332572937,-2.256385087966919
1772024961075700700,1.50270068359375,-0.5156504511833191,-1.032595157623291,-2.6748170852661133
1772024961085697800,1.51269775390625,-0.41735023260116577,-1.9107494354248047,-2.774824619293213
1772024961095694800,1.52269482421875,-0.3468230962753296,-2.4167897701263428,-2.619279146194458
1772024961105692000,1.53269189453125,-0.3422837555408478,-2.4541819095611572,-2.3107593059539795
1772024961115688700,1.542688720703125,-0.39030027389526367,-1.9834522008895874,-2.0468406677246094
1772024961125686000,1.55268603515625,-0.47196710109710693,-1.0853147506713867,-1.9284733533859253
1772024961135682800,1.562682861328125,-0.45079657435417175,0.06981191784143448,-1.8265608549118042
1772024961145680000,1.572679931640625,-0.31674814224243164,1.157153606414795,-1.6322894096374512
1772024961155677700,1.582677734375,-0.15964506566524506,1.8248704671859741,-1.3221806287765503
1772024961165675000,1.592675048828125,-0.016177281737327576,2.060499906539917,-0.8590476512908936
1772024961175671800,1.602671875,0.14651763439178467,1.9141916036605835,-0.24939681589603424
1772024961185668900,1.6126689453125,0.3278316259384155,1.4603532552719116,0.3988942801952362
1772024961195666000,1.622666015625,0.5066751837730408,0.8440154790878296,0.9640729427337646
1772024961205663000,1.6326630859375,0.6729143261909485,0.1918967366218567,1.3884698152542114
1772024961215659800,1.64265966796875,0.815436840057373,-0.36525893211364746,1.676592469215393
1772024961225656800,1.65265673828125,0.9098368883132935,-0.7010856866836548,1.8328486680984497
1772024961235654000,1.66265380859375,0.9302918314933777,-0.797308087348938,1.848127007484436
1772024961245652000,1.67265185546875,0.8727928400039673,-0.6928901672363281,1.7524710893630981
1772024961255648800,1.682648681640625,0.7509239315986633,-0.4697346091270447,1.5540368556976318
1772024961265645800,1.692645751953125,0.5935352444648743,-0.15408258140087128,1.2881579399108887
1772024961275643000,1.702642822265625,0.4130285978317261,0.19266285002231598,1.0049934387207031
1772024961285639700,1.7126396484375,0.21295204758644104,0.5465621948242188,0.7097427248954773
1772024961295637000,1.722636962890625,0.03347683697938919,0.8504030108451843,0.4078686535358429
1772024961305633800,1.7326337890625,-0.10693741589784622,1.0527112483978271,0.12052922695875168
1772024961315631900,1.7426318359375,-0.19833897054195404,1.1514692306518555,-0.11783620715141296
1772024961325628700,1.752628662109375,-0.2195342779159546,1.1687119007110596,-0.2609395682811737
1772024961335626000,1.7626259765625,-0.18203137814998627,1.1398208141326904,-0.27152377367019653
1772024961345622800,1.772622802734375,-0.15795044600963593,1.0236845016479492,-0.190454363822937
1772024961355619800,1.782619873046875,-0.1444104015827179,0.7960023880004883,-0.04465535283088684
1772024961365617000,1.792616943359375,-0.13959389925003052,0.4488900899887085,0.18560703098773956
1772024961375614000,1.802614013671875,-0.10962454229593277,0.1505017876625061,0.48597589135169983
1772024961385610800,1.81261083984375,-0.1257968544960022,-0.006400736048817635,0.7251924872398376
1772024961395608800,1.82260888671875,-0.17026498913764954,0.1387290209531784,0.8253569006919861
1772024961405606000,1.83260595703125,-0.14049267768859863,0.6243133544921875,0.8281035423278809
1772024961415603000,1.84260302734375,-0.08850297331809998,1.0026837587356567,0.5686776041984558
1772024961425599700,1.852599853515625,-0.16385765373706818,0.6851545572280884,-0.07034818828105927
1772024961435597000,1.86259716796875,-0.4514862298965454,-0.12350655347108841,-0.8564576506614685
1772024961445593900,1.87259375,-0.7521588802337646,-0.944885790348053,-1.4929019212722778
1772024961455586600,1.882586669921875,-0.7803907990455627,-1.2143473625183105,-1.901391625404358
1772024961465583900,1.892583984375,-0.6464053392410278,-0.4169233441352844,-1.8541913032531738
1772024961475580700,1.90258056640625,-0.5067569017410278,0.5232800841331482,-1.3457629680633545
1772024961485578800,1.912578857421875,-0.4883078336715698,1.2348341941833496,-0.714114785194397
1772024961495575600,1.922575439453125,-0.47884058952331543,1.599627137184143,-0.19161537289619446
1772024961505572900,1.93257275390625,-0.40989845991134644,1.3523582220077515,0.11508671939373016
1772024961515569700,1.942569580078125,-0.43760597705841064,0.44585487246513367,0.12142530828714371
1772024961525566700,1.952566650390625,-0.4686054289340973,-0.7238643169403076,0.11813975870609283
1772024961535563800,1.962563720703125,-0.30359917879104614,-1.7383743524551392,0.3158470094203949
1772024961545560800,1.972560791015625,-0.04128547012805939,-2.2202630043029785,0.4726157784461975
1772024961555557600,1.9825576171875,0.044288549572229385,-2.0907607078552246,0.2696605324745178
1772024961565555700,1.9925556640625,-0.03732449188828468,-1.5217896699905396,-0.17692013084888458
1772024961575552800,2.002552734375,-0.13356606662273407,-0.6469932794570923,-0.624806821346283
1772024961585549800,2.0125498046875,-0.17401324212551117,0.3046635687351227,-0.9453990459442139
1772024961595546600,2.022546630859375,-0.17204169929027557,1.0798745155334473,-1.0514088869094849
1772024961605544000,2.0325439453125,-0.14733082056045532,1.5126937627792358,-0.8924674391746521
1772024961615540700,2.042540771484375,-0.08565548062324524,1.652919054031372,-0.5339159965515137
1772024961625537500,2.05253759765625,0.026395535096526146,1.5068624019622803,-0.08388710021972656
1772024961635534800,2.062534912109375,0.12298226356506348,1.112731695175171,0.3152006268501282
1772024961645533000,2.072532958984375,0.2651140093803406,0.5468577146530151,0.6287176012992859
1772024961655529700,2.08252978515625,0.42422428727149963,-0.09247484803199768,0.882524311542511
1772024961665526500,2.092526611328125,0.5639367699623108,-0.6745239496231079,1.040595531463623
1772024961675523800,2.10252392578125,0.6340226531028748,-1.1340981721878052,1.0576075315475464
1772024961685520600,2.112520751953125,0.6134800314903259,-1.3885552883148193,0.9676041007041931
1772024961695517700,2.122517578125,0.5426343679428101,-1.3381887674331665,0.8217946887016296
1772024961705514800,2.1325146484375,0.4516928493976593,-1.0862928628921509,0.6981619596481323
1772024961715511800,2.14251171875,0.3515116572380066,-0.7220067977905273,0.618544340133667
1772024961725509600,2.152509521484375,0.2478542923927307,-0.28057733178138733,0.5418316721916199
1772024961735506700,2.162506591796875,0.1489839106798172,0.09338720142841339,0.45306164026260376
1772024961745503700,2.172503662109375,0.059161461889743805,0.394367516040802,0.35355642437934875
1772024961755500800,2.182500732421875,0.013823541812598705,0.6087607741355896,0.26912835240364075
1772024961765497600,2.19249755859375,0.008394276723265648,0.7232593894004822,0.1965804547071457
1772024961775495000,2.202494873046875,0.028232162818312645,0.6887320280075073,0.14709198474884033
1772024961785491700,2.21249169921875,0.03290989249944687,0.48381415009498596,0.12250708043575287
1772024961795488800,2.22248876953125,0.03942025825381279,0.16335810720920563,0.15917934477329254
1772024961805486600,2.232486572265625,0.09904295206069946,-0.22473996877670288,0.29700878262519836
1772024961815484000,2.24248388671875,0.16178275644779205,-0.6778683066368103,0.5287277698516846
1772024961825480700,2.252480712890625,0.20506298542022705,-0.9869589805603027,0.8658083081245422
1772024961835477800,2.262477783203125,0.21994926035404205,-0.9886391758918762,1.2511154413223267
1772024961845474800,2.272474853515625,0.16326908767223358,-0.7401502132415771,1.4679909944534302
1772024961855471900,2.282471923828125,0.06528633087873459,-0.349615216255188,1.2786120176315308
1772024961865468700,2.29246875,0.0009664066601544619,-0.04478711262345314,0.7466821074485779
1772024961875465700,2.3024658203125,0.08724617213010788,0.20053449273109436,0.20285025238990784
1772024961885463800,2.3124638671875,0.1265014111995697,-0.00692027248442173,-0.36794546246528625
1772024961895460900,2.3224609375,-0.06421100348234177,-0.33698952198028564,-0.8606835603713989
1772024961905457700,2.332457763671875,-0.29297077655792236,-0.4941041171550751,-1.1217516660690308
1772024961915454700,2.342454833984375,-0.40088072419166565,-0.056849006563425064,-1.1063841581344604
1772024961925451800,2.35245166015625,-0.3747776448726654,0.6457239389419556,-0.8210681676864624
1772024961935448600,2.362448486328125,-0.25847819447517395,0.9843680262565613,-0.5113465189933777
1772024961945446000,2.37244580078125,-0.20534947514533997,1.1134432554244995,-0.3487350642681122
1772024961955442700,2.382442626953125,-0.16172291338443756,0.9793804287910461,-0.3277845084667206
1772024961965440800,2.392440673828125,-0.058571819216012955,0.3523205816745758,-0.45330750942230225
1772024961975437600,2.4024375,0.04042160511016846,-0.5484670400619507,-0.7123345136642456
1772024961985435000,2.412434814453125,0.09080714732408524,-1.403096318244934,-0.9674919247627258
1772024961995431700,2.422431640625,0.10850412398576736,-2.02382755279541,-1.0263701677322388
1772024962005428700,2.4324287109375,0.09835471212863922,-2.351123809814453,-0.8188205361366272
1772024962015425800,2.44242578125,0.04004320502281189,-2.3463118076324463,-0.5233681201934814
1772024962025422800,2.4524228515625,-0.02972468174993992,-1.9763038158416748,-0.27518001198768616
1772024962035419600,2.462419677734375,-0.036150623112916946,-1.3720680475234985,-0.11341188848018646
1772024962045416700,2.472416748046875,0.027817783877253532,-0.6461963057518005,-0.04611355811357498
1772024962055414800,2.482414794921875,0.10969747602939606,0.0899866595864296,-0.06834456324577332
1772024962065411800,2.492411865234375,0.1776525378227234,0.7109938859939575,-0.11922012269496918
1772024962075408600,2.50240869140625,0.2259785234928131,1.1202541589736938,-0.1487058401107788
1772024962085406000,2.512406005859375,0.243952676653862,1.270752191543579,-0.09764700382947922
1772024962095402800,2.52240283203125,0.21618469059467316,1.1487295627593994,0.014425208792090416
1772024962105399800,2.53239990234375,0.13531705737113953,0.8546364307403564,0.1583879142999649
1772024962115396900,2.54239697265625,0.023985210806131363,0.5539500713348389,0.2530020475387573
1772024962125393700,2.5523935546875,-0.05824735015630722,0.2772137224674225,0.2557399272918701
1772024962135391700,2.562391845703125,-0.06466503441333771,-0.007410803809762001,0.28827816247940063
1772024962145388800,2.572388916015625,-0.0497107170522213,-0.13466177880764008,0.31666725873947144
1772024962155385900,2.5823857421875,-0.03197672963142395,-0.10079994797706604,0.2565847337245941
1772024962165382700,2.592382568359375,-0.02596329338848591,0.0370955616235733,0.13278688490390778
1772024962175379700,2.602379638671875,-0.02513318508863449,0.24890154600143433,0.023926181718707085
1772024962185376800,2.612376708984375,-0.020930828526616096,0.47490739822387695,-0.02668686769902706
1772024962195373800,2.622373779296875,-0.014884655363857746,0.6399610638618469,-0.029160145670175552
1772024962205370600,2.63237060546875,-0.020428162068128586,0.7309536337852478,-0.0008990115020424128
1772024962215368700,2.64236865234375,-0.04200349375605583,0.7540680170059204,0.044363539665937424
1772024962225365800,2.65236572265625,-0.07286685705184937,0.7304898500442505,0.09768121689558029
1772024962235362800,2.66236279296875,-0.10248041152954102,0.6779108047485352,0.14756223559379578
1772024962245359600,2.672359619140625,-0.13121862709522247,0.6104768514633179,0.17583715915679932
1772024962255356700,2.682356689453125,-0.1426859200000763,0.47875502705574036,0.16108112037181854
1772024962265353700,2.692353759765625,-0.07468722015619278,0.326767235994339,0.16330486536026
1772024962275350800,2.702350830078125,0.058326493948698044,0.20993514358997345,0.2942311763763428
1772024962285347600,2.71234765625,0.19622424244880676,0.24542075395584106,0.5419389605522156
1772024962295345700,2.722345703125,0.30931246280670166,0.4098925292491913,0.8100169897079468
1772024962305342700,2.7323427734375,0.3365951180458069,0.509438693523407,0.9893868565559387
1772024962315339800,2.74233984375,0.248576819896698,0.5048317313194275,0.9434827566146851
1772024962325336600,2.752336669921875,0.06421832740306854,0.36493468284606934,0.6881873607635498
1772024962335334000,2.762333984375,-0.03239157050848007,0.28221794962882996,0.4369271695613861
1772024962345330700,2.77233056640625,-0.02536713145673275,0.04022933170199394,0.14336168766021729
1772024962355327700,2.78232763671875,-0.16709791123867035,-0.4980093836784363,-0.32496050000190735
1772024962365324800,2.79232470703125,-0.5448967218399048,-0.9531823992729187,-0.8118266463279724
1772024962375323000,2.802322998046875,-0.8908475041389465,-1.0577391386032104,-1.1730915307998657
1772024962385319700,2.812319580078125,-0.9120259881019592,-0.18663200736045837,-1.142492651939392
1772024962395316700,2.822316650390625,-0.7113368511199951,0.93958979845047,-0.75223708152771
1772024962405313800,2.832313720703125,-0.5413736701011658,1.5515739917755127,-0.44888582825660706
1772024962415310600,2.842310546875,-0.4733480215072632,1.6783679723739624,-0.35390979051589966
1772024962425307600,2.8523076171875,-0.3922538757324219,1.3670448064804077,-0.3361952602863312
1772024962435304700,2.8623046875,-0.22322623431682587,0.5680533051490784,-0.40621161460876465
1772024962445301800,2.8723017578125,-0.07628478109836578,-0.5707884430885315,-0.5176330804824829
1772024962455300000,2.882300048828125,-0.007021551486104727,-1.7771577835083008,-0.4628659784793854
1772024962465297000,2.892296875,0.05615781247615814,-2.743781328201294,-0.1533004641532898
1772024962475294000,2.9022939453125,0.13900290429592133,-3.369264602661133,0.30737659335136414
1772024962485291000,2.912291015625,0.20356836915016174,-3.4735844135284424,0.7644266486167908
1772024962495287800,2.922287841796875,0.2561362385749817,-3.1267130374908447,1.0409464836120605
1772024962505285000,2.93228515625,0.2883220911026001,-2.5003514289855957,1.0478143692016602
1772024962515282000,2.942281982421875,0.30505606532096863,-1.7226312160491943,0.8240898847579956
1772024962525279000,2.952279052734375,0.32678619027137756,-0.9194844365119934,0.5014129877090454
1772024962535276800,2.96227685546875,0.36851391196250916,-0.1824042946100235,0.17685887217521667
1772024962545274000,2.972274169921875,0.4235215187072754,0.42125043272972107,-0.05325421318411827
1772024962555271000,2.98227099609375,0.47716453671455383,0.8420583605766296,-0.16036537289619446
1772024962565268000,2.99226806640625,0.5349084138870239,1.0112533569335938,-0.16334684193134308
1772024962575265000,3.00226513671875,0.5647608041763306,0.9425240755081177,-0.12334136664867401
1772024962585262000,3.012261962890625,0.5186494588851929,0.7618218064308167,-0.14384524524211884
1772024962595259000,3.0222587890625,0.43811118602752686,0.4530740976333618,-0.12761461734771729
1772024962605256200,3.032256103515625,0.3636516332626343,0.08300402015447617,-0.04268472641706467
1772024962615254000,3.04225390625,0.2946496605873108,-0.2492402344942093,0.07175476849079132
1772024962625251000,3.0522509765625,0.20047935843467712,-0.42971789836883545,0.1775863766670227
1772024962635247900,3.062247802734375,0.11551466584205627,-0.4304707944393158,0.24643442034721375
1772024962645245200,3.0722451171875,0.05047612264752388,-0.3311174511909485,0.2885897755622864
1772024962655242000,3.082241943359375,-0.010220248252153397,-0.1817561686038971,0.3011623024940491
1772024962665239000,3.092239013671875,-0.07336318492889404,-0.022489622235298157,0.29538479447364807
1772024962675236000,3.102236083984375,-0.15436482429504395,0.12498025596141815,0.2526181638240814
1772024962685233000,3.11223291015625,-0.24922016263008118,0.24377958476543427,0.1802023947238922
1772024962695231000,3.12223095703125,-0.34844234585762024,0.3271421492099762,0.08384416997432709
1772024962705228000,3.13222802734375,-0.4303341805934906,0.436886191368103,-0.026470020413398743
1772024962715225000,3.14222509765625,-0.49227291345596313,0.5186840891838074,-0.09830079972743988
1772024962725222000,3.152221923828125,-0.5257604718208313,0.5484225153923035,-0.09872562438249588
1772024962735219000,3.162218994140625,-0.5205875635147095,0.5538577437400818,-0.05140019208192825
1772024962745216000,3.172216064453125,-0.45421919226646423,0.5016363859176636,0.040833327919244766
1772024962755213000,3.182213134765625,-0.3958035707473755,0.4194653034210205,0.19057674705982208
1772024962765209900,3.1922099609375,-0.34248480200767517,0.37401077151298523,0.4645349979400635
1772024962775208000,3.2022080078125,-0.28819653391838074,0.4360429644584656,0.8152549266815186
1772024962785205000,3.212205078125,-0.23151583969593048,0.6149864196777344,1.0117627382278442
1772024962795202000,3.2222021484375,-0.22750245034694672,0.6903666257858276,0.9017207026481628
1772024962805198800,3.23219873046875,-0.2648833692073822,0.24402745068073273,0.4656873345375061
1772024962815196200,3.242196044921875,-0.33003467321395874,-0.5090506076812744,-0.28923067450523376
1772024962825193000,3.25219287109375,-0.523960530757904,-1.1682934761047363,-1.0202285051345825
1772024962835190000,3.26218994140625,-0.562279999256134,-1.339186429977417,-1.5413907766342163
1772024962845187000,3.27218701171875,-0.4015364646911621,-0.3839876353740692,-1.6044002771377563
1772024962855185200,3.28218505859375,-0.21216894686222076,0.6862470507621765,-1.2905861139297485
1772024962865182000,3.292181884765625,-0.05895023047924042,1.2082960605621338,-0.9526271224021912
1772024962875179000,3.302178955078125,0.015606297180056572,1.351883053779602,-0.6702743172645569
1772024962885176000,3.312176025390625,0.1877666860818863,1.153139591217041,-0.38430559635162354
1772024962895173000,3.322173095703125,0.37333017587661743,0.34875765442848206,-0.2590329051017761
1772024962905170000,3.332169921875,0.38416972756385803,-0.8837239146232605,-0.186458557844162
1772024962915167000,3.3421669921875,0.3227796256542206,-2.0629656314849854,0.12239223718643188
1772024962925164000,3.3521640625,0.31689974665641785,-2.820324182510376,0.676215648651123
1772024962935162000,3.362162109375,0.37268656492233276,-3.074406862258911,1.1173715591430664
1772024962945159000,3.372158935546875,0.36790481209754944,-2.803584575653076,1.1755125522613525
1772024962955156000,3.382156005859375,0.32563671469688416,-2.067835807800293,0.8755542039871216
1772024962965153000,3.392153076171875,0.24475513398647308,-0.9595724940299988,0.3088761568069458
1772024962975149800,3.40214990234375,0.12270964682102203,0.2371184080839157,-0.37552589178085327
1772024962985147000,3.41214697265625,0.009580191224813461,1.2648420333862305,-0.986838698387146
1772024962995144000,3.42214404296875,-0.09114162623882294,2.0228431224823,-1.3905513286590576
1772024963005141000,3.43214111328125,-0.17260587215423584,2.5035653114318848,-1.554450511932373
1772024963015138800,3.442138916015625,-0.2172044962644577,2.6462819576263428,-1.5059806108474731
1772024963025135900,3.452135986328125,-0.2167186588048935,2.4489715099334717,-1.2735481262207031
1772024963035133000,3.4621328125,-0.15536582469940186,2.0059285163879395,-0.9149556159973145
1772024963045130000,3.4721298828125,-0.06060723960399628,1.4308983087539673,-0.4960152804851532
1772024963055126800,3.482126708984375,0.02897937037050724,0.8181025981903076,-0.08976950496435165
1772024963065124000,3.4921240234375,0.11007119715213776,0.22966071963310242,0.2664256989955902
1772024963075121000,3.502120849609375,0.19120468199253082,-0.21483685076236725,0.5385304689407349
1772024963085118000,3.512117919921875,0.26529833674430847,-0.503316342830658,0.7265281677246094
1772024963095115800,3.52211572265625,0.29353955388069153,-0.6339936852455139,0.8253647089004517
1772024963105113000,3.532113037109375,0.2620994448661804,-0.5844095945358276,0.847237229347229
1772024963115110000,3.54210986328125,0.1888105869293213,-0.41302794218063354,0.7857418656349182
1772024963125107000,3.55210693359375,0.09584363549947739,-0.1852022409439087,0.6462889313697815
1772024963135104000,3.56210400390625,0.013399887830018997,0.07065057009458542,0.4520629942417145
1772024963145101000,3.57210107421875,-0.04840880259871483,0.3588951826095581,0.24752403795719147
1772024963155097900,3.582097900390625,-0.0800948292016983,0.645423948764801,0.0654919296503067
1772024963165095200,3.59209521484375,-0.08473968505859375,0.8938164114952087,-0.0759822353720665
1772024963175093000,3.602093017578125,-0.0496610626578331,1.0832768678665161,-0.1663491576910019
1772024963185090000,3.612090087890625,0.015069490298628807,1.2012690305709839,-0.18067629635334015
1772024963195086800,3.6220869140625,0.07609689235687256,1.1959975957870483,-0.13350717723369598
1772024963205084200,3.632084228515625,0.12153059989213943,1.04806649684906,-0.022533604875206947
1772024963215081000,3.6420810546875,0.10457319021224976,0.7693815231323242,0.19242583215236664
1772024963225077800,3.652077880859375,0.038792066276073456,0.4904278814792633,0.5123162269592285
1772024963235075000,3.662074951171875,0.03798246383666992,0.38864850997924805,0.9102076292037964
1772024963245072000,3.67207177734375,0.20651836693286896,0.658663272857666,1.3572629690170288
1772024963255070000,3.682070068359375,0.5355886220932007,1.1757463216781616,1.6391836404800415
1772024963265067000,3.69206689453125,0.8981417417526245,1.2501224279403687,1.4178502559661865
1772024963275064000,3.70206396484375,1.0301405191421509,0.5591103434562683,0.5409543514251709
1772024963285060900,3.712060791015625,0.8809016346931458,-0.6662307381629944,-0.46817412972450256
1772024963295058000,3.722057861328125,0.742586076259613,-2.054978847503662,-1.1071891784667969
1772024963305055000,3.732054931640625,0.5548346042633057,-2.3523449897766113,-1.0334397554397583
1772024963315052000,3.742052001953125,0.3821038603782654,-1.919684886932373,-0.30369219183921814
1772024963325048800,3.752048828125,0.36503103375434875,-1.3356807231903076,0.4552198052406311
1772024963335047000,3.762046875,0.4632348418235779,-0.6470674872398376,0.8911601305007935
1772024963345044000,3.7720439453125,0.6674603223800659,-0.10672171413898468,0.9232356548309326
1772024963355041000,3.782041015625,0.9194067716598511,-0.05107070878148079,0.6375754475593567
1772024963365037800,3.792037841796875,1.219538688659668,-0.384133905172348,0.4440145790576935
1772024963375035100,3.80203515625,1.5769485235214233,-0.8856989741325378,0.45004504919052124
1772024963385032000,3.812031982421875,1.8019901514053345,-1.3905264139175415,0.41339558362960815
1772024963395029000,3.822029052734375,1.6223077774047852,-1.6307488679885864,0.12869486212730408
1772024963405026800,3.83202685546875,1.0783190727233887,-1.5366325378417969,-0.49673759937286377
1772024963415024000,3.842024169921875,0.45034220814704895,-1.0478001832962036,-1.37883460521698
1772024963425021000,3.85202099609375,-0.06731332838535309,-0.23407523334026337,-2.2931249141693115
1772024963435018000,3.86201806640625,-0.42013370990753174,0.6900498867034912,-3.042872428894043
1772024963445015000,3.87201513671875,-0.6373235583305359,1.5194504261016846,-3.48854398727417
1772024963455012000,3.88201220703125,-0.7176008224487305,2.2039153575897217,-3.539903402328491
1772024963465009700,3.892009765625,-0.6806841492652893,2.6913561820983887,-3.224275827407837
1772024963475006500,3.90200634765625,-0.549277663230896,2.924079179763794,-2.6210808753967285
1772024963485004500,3.912004638671875,-0.38867518305778503,2.8939270973205566,-1.859497308731079
1772024963495001600,3.922001708984375,-0.23986972868442535,2.6152448654174805,-1.0239462852478027
1772024963504998700,3.93199853515625,-0.10194304585456848,2.1210362911224365,-0.2096799910068512
1772024963514995500,3.941995361328125,0.0032608776818960905,1.468664526939392,0.5433024168014526
1772024963524992800,3.95199267578125,0.08358734101057053,0.7088567614555359,1.1813656091690063
1772024963534989600,3.961989501953125,0.10386224836111069,-0.022806286811828613,1.6414375305175781
1772024963544986600,3.971986572265625,0.08055643737316132,-0.5990028381347656,1.8756115436553955
1772024963554983700,3.981983642578125,0.05295144021511078,-0.8728599548339844,1.890198826789856
1772024963564981800,3.991981689453125,0.054647866636514664,-0.9018291234970093,1.7295860052108765
1772024963574978600,4.001978515625,0.04360320419073105,-0.7769103646278381,1.4759875535964966
1772024963584975600,4.0119755859375,-0.00545060820877552,-0.5175832509994507,1.1814254522323608
1772024963594972700,4.02197265625,-0.05995273217558861,-0.17040610313415527,0.8937296867370605
1772024963604969500,4.031969482421875,-0.1222645491361618,0.16727159917354584,0.6537732481956482
1772024963614966500,4.041966552734375,-0.19163884222507477,0.4506676495075226,0.49271854758262634
1772024963624963600,4.051963623046875,-0.25916221737861633,0.6724457740783691,0.381937175989151
1772024963634960600,4.061960693359375,-0.31906309723854065,0.7446728348731995,0.2798811197280884
1772024963644958500,4.07195849609375,-0.3816729784011841,0.5744321942329407,0.22695453464984894
1772024963654955500,4.08195556640625,-0.38916951417922974,0.16674193739891052,0.28445619344711304
1772024963664952600,4.09195263671875,-0.30163344740867615,-0.3699486255645752,0.4898173213005066
1772024963674949600,4.10194970703125,-0.1350761502981186,-0.798551082611084,0.8141543865203857
1772024963684946400,4.111946533203125,0.0971807986497879,-0.8669079542160034,1.178504228591919
1772024963694943700,4.12194384765625,0.2620363235473633,-0.6096073985099792,1.3603408336639404
1772024963704940500,4.1319404296875,0.37033432722091675,-0.13701526820659637,1.3015389442443848
1772024963714938600,4.141938720703125,0.532611608505249,0.6894956827163696,1.0903571844100952
1772024963724935400,4.151935302734375,0.7319313883781433,1.0719722509384155,0.6980244517326355
1772024963734932700,4.1619326171875,0.7192925214767456,0.6164603233337402,0.2172061651945114
1772024963744929500,4.171929443359375,0.39733684062957764,0.03259805962443352,0.006754293572157621
1772024963754926600,4.181926513671875,0.06084642931818962,-0.5156083106994629,-0.011308862827718258
1772024963764923600,4.191923583984375,-0.059072528034448624,-0.3291946351528168,0.22241534292697906
1772024963774920700,4.201920654296875,0.0340409055352211,0.132644921541214,0.6332646608352661
1772024963784917500,4.21191748046875,0.17956677079200745,0.3981117308139801,0.850004255771637
1772024963794915600,4.22191552734375,0.2796070873737335,0.5520333647727966,0.8677656650543213
1772024963804912600,4.23191259765625,0.4396611750125885,0.37529435753822327,0.7035684585571289
1772024963814909700,4.24190966796875,0.5668820142745972,-0.21585361659526825,0.296987920999527
1772024963824906500,4.251906494140625,0.5433816909790039,-0.9340527057647705,-0.1668352484703064
1772024963834903800,4.26190380859375,0.4741857945919037,-1.418618083000183,-0.38736653327941895
1772024963844900600,4.271900634765625,0.4359755516052246,-1.603897213935852,-0.3444567918777466
1772024963854897400,4.2818974609375,0.38165000081062317,-1.5255358219146729,-0.1782536804676056
1772024963864894700,4.291894775390625,0.2824084758758545,-1.2126978635787964,-0.023520849645137787
1772024963874892800,4.301892822265625,0.16451407968997955,-0.7252077460289001,0.009686904959380627
1772024963884889600,4.3118896484375,0.08629564195871353,-0.12423882633447647,-0.12201052904129028
1772024963894886400,4.321886474609375,0.0705060213804245,0.5333063006401062,-0.38940656185150146
1772024963904883700,4.3318837890625,0.08148670196533203,1.1675912141799927,-0.6957889199256897
1772024963914880500,4.341880615234375,0.0978694036602974,1.6605732440948486,-0.9185362458229065
1772024963924877600,4.351877685546875,0.1382327377796173,1.9549696445465088,-0.9872598648071289
1772024963934874600,4.36187451171875,0.18338929116725922,2.0107030868530273,-0.9169593453407288
1772024963944871700,4.37187158203125,0.14360006153583527,1.8400895595550537,-0.7836943864822388
1772024963954869500,4.381869384765625,-0.0005057157250121236,1.5345304012298584,-0.6656758785247803
1772024963964866600,4.391866455078125,-0.16166627407073975,1.0903050899505615,-0.566942036151886
1772024963974863600,4.401863525390625,-0.23551785945892334,0.5657448768615723,-0.43674036860466003
1772024963984860700,4.411860595703125,-0.1707293540239334,0.1449853628873825,-0.3024548292160034
1772024963994857500,4.421857421875,-0.030312063172459602,-0.07445643097162247,-0.21407008171081543
1772024964004854800,4.431854736328125,0.1126454696059227,-0.12195432186126709,-0.1871032416820526
1772024964014851600,4.4418515625,0.24662509560585022,-0.041943375021219254,-0.19398032128810883
1772024964024849700,4.451849609375,0.3470335602760315,0.13540807366371155,-0.19371269643306732
1772024964034846500,4.461846435546875,0.3852701485157013,0.2732282280921936,-0.15637916326522827
1772024964044843800,4.47184375,0.3030211925506592,0.33011355996131897,-0.07723899930715561
1772024964054840600,4.481840576171875,0.11948893964290619,0.3709890842437744,-0.020235639065504074
1772024964064837600,4.491837646484375,-0.10659541189670563,0.37757059931755066,-0.034315355122089386
1772024964074834700,4.501834716796875,-0.3248545229434967,0.33306145668029785,-0.13249891996383667
1772024964084831700,4.511831787109375,-0.45511606335639954,0.3055052161216736,-0.23796449601650238
1772024964094828500,4.52182861328125,-0.4482264816761017,0.3444283902645111,-0.2788704037666321
1772024964104826600,4.53182666015625,-0.35457319021224976,0.4069989025592804,-0.21725402772426605
1772024964114823700,4.54182373046875,-0.20311202108860016,0.35656318068504333,-0.02102273516356945
1772024964124820700,4.55182080078125,0.05283566564321518,0.29070302844047546,0.3400327265262604
1772024964134817500,4.561817626953125,0.3359549939632416,0.3558814823627472,0.8054680824279785
1772024964144814600,4.571814697265625,0.5325543284416199,0.42818647623062134,1.1532773971557617
1772024964154811600,4.581811767578125,0.5582141280174255,0.2923530042171478,1.2216540575027466
1772024964164808400,4.591808349609375,0.49245405197143555,0.24699442088603973,1.113107681274414
1772024964174805800,4.6018056640625,0.5393504500389099,0.7206828594207764,0.888676106929779
1772024964184803800,4.611803955078125,0.6642830967903137,1.00394868850708,0.4519819915294647
1772024964194800600,4.621800537109375,0.6281312108039856,0.8587965965270996,-0.29207244515419006
1772024964204797400,4.63179736328125,0.29512202739715576,0.7428824305534363,-0.9927040338516235
1772024964214794800,4.641794677734375,-0.11707644909620285,0.025135764852166176,-1.5733660459518433
1772024964224791600,4.65179150390625,-0.29594311118125916,-0.24322356283664703,-1.6461784839630127
1772024964234788600,4.66178857421875,-0.2142232209444046,-0.1681128442287445,-1.1269757747650146
1772024964244785700,4.67178564453125,-0.00022127223201096058,-0.06578784435987473,-0.5777798295021057
1772024964254782700,4.68178271484375,0.11997517198324203,0.03346417471766472,-0.27912500500679016
1772024964264780500,4.691780517578125,0.1288246363401413,-0.1829177439212799,-0.24498087167739868
1772024964274777600,4.701777587890625,0.010027141310274601,-0.8322062492370605,-0.5255358219146729
1772024964284774700,4.711774658203125,-0.15482112765312195,-1.5155653953552246,-0.8970947861671448
1772024964294771700,4.721771728515625,-0.15584112703800201,-1.9077012538909912,-0.9444247484207153
1772024964304768500,4.7317685546875,-0.01991974748671055,-1.9642096757888794,-0.6658860445022583
1772024964314765600,4.741765625,0.10797297209501266,-1.7440516948699951,-0.29036039113998413
1772024964324762600,4.7517626953125,0.1999703347682953,-1.2968908548355103,-0.04717482253909111
1772024964334759700,4.761759765625,0.25906428694725037,-0.6557396054267883,-0.11827562749385834
1772024964344757500,4.771757568359375,0.2694796025753021,0.08994852751493454,-0.46891123056411743
1772024964354754600,4.781754638671875,0.2712852358818054,0.7621927261352539,-0.8943946361541748
1772024964364751600,4.791751708984375,0.3278457820415497,1.2425568103790283,-1.1529700756072998
1772024964374748700,4.801748779296875,0.4170137345790863,1.5127036571502686,-1.1414824724197388
1772024964384745500,4.811745361328125,0.4334603548049927,1.602036476135254,-0.8967995047569275
1772024964394742500,4.821742431640625,0.3415900766849518,1.521554946899414,-0.508757472038269
1772024964404739600,4.831739501953125,0.19128969311714172,1.236832618713379,-0.05004485324025154
1772024964414737700,4.841737548828125,0.05152247101068497,0.7965934872627258,0.4241371154785156
1772024964424734700,4.851734619140625,-0.05881097540259361,0.32766589522361755,0.8314141035079956
1772024964434731800,4.861731689453125,-0.09199023246765137,-0.16127558052539825,1.1493505239486694
1772024964444728600,4.871728515625,-0.023269370198249817,-0.614036500453949,1.3975615501403809
1772024964454725400,4.881725341796875,0.09527059644460678,-0.9494107365608215,1.5431424379348755
1772024964464722400,4.891722412109375,0.22780963778495789,-1.0829215049743652,1.5940853357315063
1772024964474719200,4.90171923828125,0.33032241463661194,-1.0355982780456543,1.5772392749786377
1772024964484716300,4.91171630859375,0.3824467658996582,-0.8779875636100769,1.552949070930481
1772024964494714400,4.92171435546875,0.3761614263057709,-0.6942374110221863,1.5186406373977661
1772024964504711400,4.93171142578125,0.2714972198009491,-0.5360068678855896,1.4400051832199097
1772024964514708200,4.941708251953125,0.09959043562412262,-0.3277668356895447,1.283148169517517
1772024964524705500,4.95170556640625,-0.028670234605669975,-0.060887474566698074,1.037441611289978
1772024964534702300,4.961702392578125,-0.09550812095403671,0.22530141472816467,0.7038636207580566
1772024964544699400,4.971699462890625,-0.12825678288936615,0.4205687344074249,0.3356555104255676
1772024964554696400,4.981696533203125,-0.12118581682443619,0.4871525466442108,0.029945923015475273
1772024964564693500,4.991693603515625,-0.02705661579966545,0.445401132106781,-0.0789996087551117
1772024964574691300,5.00169140625,0.1482265293598175,0.2771807014942169,0.048555951565504074
1772024964584688400,5.0116884765625,0.35661789774894714,-0.006490268744528294,0.41268831491470337
1772024964594685400,5.021685546875,0.5410812497138977,-0.25366970896720886,0.9358431696891785
1772024964604682500,5.0316826171875,0.6480645537376404,-0.3696759343147278,1.4041223526000977
1772024964614679300,5.04167919921875,0.6294964551925659,-0.37896662950515747,1.5358396768569946
1772024964624676400,5.05167626953125,0.4693382680416107,-0.2392413169145584,1.30410635471344
1772024964634673400,5.06167333984375,0.29962992668151855,-0.036299921572208405,0.8522642254829407
1772024964644671500,5.07167138671875,0.29147249460220337,-0.028607752174139023,0.2811517119407654
1772024964654668300,5.081668212890625,0.341528981924057,-0.1514601707458496,-0.3635460436344147
1772024964664665300,5.091665283203125,0.21380475163459778,-0.2585945129394531,-0.8058804273605347
1772024964674662400,5.101662353515625,0.05185527727007866,-0.013629233464598656,-1.0707945823669434
1772024964684659200,5.1116591796875,-0.008093682117760181,0.7454738020896912,-1.073932409286499
1772024964694656300,5.12165625,0.01895737648010254,1.3039442300796509,-1.007203221321106
1772024964704653300,5.1316533203125,0.11402810364961624,1.5730302333831787,-1.0797218084335327
1772024964714650400,5.141650390625,0.1978396326303482,1.6583137512207031,-1.193862795829773
1772024964724648400,5.1516484375,0.16193248331546783,1.1900800466537476,-1.3558375835418701
1772024964734645200,5.161645263671875,-0.03542320057749748,0.392085999250412,-1.6184519529342651
1772024964744642300,5.171642333984375,-0.26914945244789124,-0.17505736649036407,-1.8678396940231323
1772024964754639400,5.181639404296875,-0.4082660377025604,-0.4096168577671051,-1.8514431715011597
1772024964764636200,5.19163623046875,-0.44486305117607117,-0.42472654581069946,-1.475600004196167
1772024964774633500,5.201633544921875,-0.4142175316810608,-0.41238653659820557,-0.8656714558601379
1772024964784630300,5.21163037109375,-0.2955920100212097,-0.3820127844810486,-0.1738174557685852
1772024964794627300,5.22162744140625,-0.10376236587762833,-0.36635980010032654,0.42654454708099365
1772024964804625200,5.231625244140625,0.15578393638134003,-0.4143933355808258,0.8033003807067871
1772024964814622500,5.24162255859375,0.47591400146484375,-0.4333531856536865,0.9002658128738403
1772024964824619300,5.251619384765625,0.7201628684997559,-0.3913007974624634,0.7595555782318115
1772024964834616300,5.2616162109375,0.7189285159111023,-0.26015129685401917,0.5239297151565552
1772024964844613400,5.27161328125,0.5034444332122803,0.0043616765178740025,0.2754944860935211
1772024964854610400,5.2816103515625,0.22644531726837158,0.335750013589859,0.027321163564920425
1772024964864607200,5.291607177734375,0.03333991393446922,0.6317281723022461,-0.1819399893283844
1772024964874604500,5.3016044921875,-0.022062627598643303,0.8166149258613586,-0.28092992305755615
1772024964884602400,5.311602294921875,0.021102452650666237,0.8217377066612244,-0.26072925329208374
1772024964894599400,5.321599365234375,0.11343984305858612,0.6222739219665527,-0.1504243016242981
1772024964904595500,5.331595458984375,0.20770083367824554,0.2717142701148987,0.02715926431119442
1772024964914592300,5.34159228515625,0.2885667383670807,-0.1114882305264473,0.23027640581130981
1772024964924589300,5.35158935546875,0.33461642265319824,-0.43289145827293396,0.4234592020511627
1772024964934586400,5.36158642578125,0.3389744162559509,-0.6321739554405212,0.5887837409973145
1772024964944583400,5.37158349609375,0.2999798357486725,-0.7127039432525635,0.6873900890350342
1772024964954580200,5.381580322265625,0.21729561686515808,-0.6848704218864441,0.700547993183136
1772024964964577500,5.39157763671875,0.08513560146093369,-0.5214704275131226,0.6248900294303894
1772024964974574300,5.40157421875,-0.05780024826526642,-0.24568518996238708,0.48889732360839844
1772024964984572400,5.411572509765625,-0.1624341756105423,0.09876801073551178,0.32589635252952576
1772024964994569200,5.4215693359375,-0.198263019323349,0.4773872196674347,0.18658240139484406
1772024965004566500,5.43156640625,-0.16623833775520325,0.7630767822265625,0.11276350170373917
1772024965014563300,5.441563232421875,-0.07723283022642136,0.8630396127700806,0.13643181324005127
1772024965024560400,5.451560302734375,0.08638656884431839,0.7840554118156433,0.27887439727783203
1772024965034557400,5.461557373046875,0.25867924094200134,0.4978278875350952,0.5018278360366821
1772024965044554500,5.471554443359375,0.3031030297279358,0.08150612562894821,0.7596904635429382
1772024965054551300,5.48155126953125,0.2380358725786209,-0.24575988948345184,0.964577317237854
1772024965064549400,5.49154931640625,0.08912746608257294,-0.48203498125076294,0.967547595500946
1772024965074546400,5.50154638671875,-0.0014495740178972483,-0.7172512412071228,0.7977702617645264
1772024965084543500,5.51154345703125,0.20399564504623413,-0.8613281846046448,0.6122023463249207
1772024965094540300,5.521540283203125,0.6599575877189636,-0.8316661715507507,0.3102544844150543
1772024965104537300,5.531537353515625,0.9915634989738464,-0.9072573184967041,-0.39495882391929626
1772024965114534400,5.541534423828125,0.9033695459365845,-1.0281504392623901,-1.297298550605774
1772024965124531200,5.55153125,0.34241488575935364,-0.9140685200691223,-1.8219783306121826
1772024965134529300,5.561529296875,-0.3429722487926483,-0.23637685179710388,-1.9180848598480225
1772024965144526300,5.5715263671875,-0.7506840229034424,0.9773555397987366,-1.4758297204971313
1772024965154523400,5.5815234375,-0.5999525785446167,1.8587942123413086,-0.8760805130004883
1772024965164520200,5.591520263671875,-0.1688956320285797,2.153386354446411,-0.5603895783424377
1772024965174517500,5.601517578125,0.06707694381475449,2.001805543899536,-0.46720078587532043
1772024965184514300,5.611514404296875,0.036883700639009476,1.138909935951233,-0.4837169945240021
1772024965194511400,5.621511474609375,-0.12043055146932602,-0.18151724338531494,-0.6010378003120422
1772024965204508400,5.63150830078125,-0.32328498363494873,-1.2542595863342285,-0.6648334264755249
1772024965214506500,5.641506591796875,-0.40175318717956543,-1.751074194908142,-0.5175086855888367
1772024965224503300,5.65150341796875,-0.33710992336273193,-1.7558015584945679,-0.15504345297813416
1772024965234500400,5.661500244140625,-0.18641921877861023,-1.4289437532424927,0.3558030426502228
1772024965244497400,5.671497314453125,-0.024872615933418274,-1.0319290161132812,0.824351966381073
1772024965254494500,5.681494384765625,0.08318088203668594,-0.6734431385993958,1.0659114122390747
1772024965264491300,5.6914912109375,0.09769745916128159,-0.31303849816322327,0.9869375824928284
1772024965274488600,5.701488525390625,0.00018954335246235132,0.0456719845533371,0.6268537044525146
1772024965284485400,5.7114853515625,-0.17085500061511993,0.3865770697593689,0.1686219871044159
1772024965294483500,5.7214833984375,-0.33261245489120483,0.7712549567222595,-0.2031526267528534
1772024965304480300,5.731480224609375,-0.45993146300315857,1.1992995738983154,-0.38379302620887756
1772024965314477600,5.7414775390625,-0.536296010017395,1.5589956045150757,-0.3965173363685608
1772024965324474400,5.751474365234375,-0.5466886162757874,1.7350690364837646,-0.3094157874584198
1772024965334471400,5.761471435546875,-0.5107990503311157,1.7139389514923096,-0.19719788432121277
1772024965344468500,5.771468505859375,-0.47899678349494934,1.463552713394165,-0.12439911812543869
1772024965354465300,5.78146533203125,-0.45546483993530273,1.0458407402038574,-0.10370182245969772
1772024965364462300,5.79146240234375,-0.4082058370113373,0.5557123422622681,-0.09919316321611404
1772024965374460400,5.80146044921875,-0.3447490930557251,0.0699847936630249,-0.06615398824214935
1772024965384457500,5.81145751953125,-0.26860034465789795,-0.4135500490665436,0.01650921441614628
1772024965394454300,5.821454345703125,-0.24039611220359802,-0.8680315613746643,0.12757182121276855
1772024965404451300,5.831451416015625,-0.2935940623283386,-1.1771279573440552,0.24739009141921997
1772024965414448400,5.841448486328125,-0.34751588106155396,-1.2692066431045532,0.36506158113479614
1772024965424445400,5.851445556640625,-0.3385666608810425,-1.1208844184875488,0.4785318672657013
1772024965434442200,5.861442138671875,-0.22606836259365082,-0.732018768787384,0.5737193822860718
1772024965444439300,5.871439208984375,-0.0502503477036953,-0.2769155204296112,0.5897523760795593
1772024965454437400,5.881437255859375,0.11224721372127533,0.1300266534090042,0.4930327236652374
1772024965464434000,5.891433837890625,0.2566738426685333,0.37964755296707153,0.31471946835517883
1772024965474430700,5.9014306640625,0.3492008447647095,0.37041357159614563,0.11030001938343048
1772024965484428000,5.911427978515625,0.44050589203834534,0.13243508338928223,-0.10654368251562119
1772024965494424800,5.9214248046875,0.5558692216873169,-0.2795521914958954,-0.3024684488773346
1772024965504422000,5.931421875,0.7187491059303284,-0.3449045717716217,-0.33787670731544495
1772024965514419000,5.9414189453125,0.944733202457428,0.04300934076309204,-0.13273340463638306
1772024965524416000,5.951416015625,1.0962804555892944,0.6050328612327576,0.12753039598464966
1772024965534413800,5.961413818359375,0.9662518501281738,1.1662425994873047,0.230856791138649
1772024965544411000,5.971410888671875,0.6109431385993958,1.4291048049926758,0.13972894847393036
1772024965554408700,5.98140869140625,0.3646361827850342,1.027563452720642,-0.030299777165055275
1772024965564406000,5.991406005859375,0.4222901463508606,0.07785679399967194,-0.08440082520246506
1772024965574402800,6.00140283203125,0.5621843934059143,-0.8876121044158936,0.06824544072151184
1772024965584400000,6.01139990234375,0.5321616530418396,-1.469976544380188,0.5088750720024109
1772024965594397000,6.02139697265625,0.32684364914894104,-1.6970906257629395,1.156806230545044
1772024965604394000,6.03139404296875,0.26271647214889526,-1.5745216608047485,1.669285535812378
1772024965614390800,6.041390869140625,0.43023115396499634,-1.3542015552520752,1.9814754724502563
1772024965624387800,6.051387939453125,0.5931782126426697,-1.0982978343963623,1.8515998125076294
1772024965634386000,6.061385986328125,0.4707929193973541,0.24486877024173737,0.8750863075256348
1772024965644383000,6.071383056640625,-0.1882847249507904,1.5202038288116455,-0.0851253941655159
1772024965654379800,6.0813798828125,-0.42308950424194336,0.5144453644752502,-1.258065104484558
1772024965664377000,6.091377197265625,-0.4651434123516083,-0.4805601239204407,-1.694838047027588
1772024965674374000,6.101373779296875,-0.3246917724609375,-0.7066504955291748,-1.7856744527816772
1772024965684370700,6.11137060546875,-0.1237095519900322,-0.6985394358634949,-2.015428066253662
1772024965694368000,6.121367919921875,-0.0071128979325294495,-0.5788559317588806,-2.369394540786743
1772024965704364800,6.13136474609375,0.21626156568527222,0.06955622136592865,-2.671872138977051
1772024965714363000,6.14136279296875,0.27996626496315,0.7477783560752869,-2.573086738586426
1772024965724359700,6.151359619140625,-0.08679215610027313,1.2398321628570557,-2.1121509075164795
1772024965734357000,6.16135693359375,-0.6553991436958313,1.2269848585128784,-1.3441903591156006
1772024965744353800,6.171353759765625,-1.1165038347244263,1.140620231628418,-0.30325573682785034
1772024965754350800,6.181350830078125,-1.280125617980957,0.8858975172042847,0.6833993792533875
1772024965764348000,6.191347900390625,-1.0156971216201782,0.4303247034549713,1.5543413162231445
1772024965774345000,6.201344970703125,-0.7436333894729614,0.00015841703861951828,2.2980141639709473
1772024965784341800,6.211341796875,-0.44507041573524475,-0.5350886583328247,2.5070581436157227
1772024965794339800,6.22133984375,-0.25385943055152893,-0.9820768237113953,2.186696767807007
1772024965804337000,6.2313369140625,-0.16444581747055054,-1.0305448770523071,1.626741647720337
1772024965814334000,6.241333984375,-0.14627933502197266,-0.744675874710083,1.0737214088439941
1772024965824330800,6.251330810546875,-0.12296836078166962,-0.34121906757354736,0.6225201487541199
1772024965834328000,6.261328125,-0.05071866139769554,0.08466379344463348,0.34877386689186096
1772024965844324900,6.271324951171875,0.02309100143611431,0.36550742387771606,0.24432158470153809
1772024965854322000,6.281322021484375,0.09112890809774399,0.6288615465164185,0.24521906673908234
1772024965864318700,6.291318603515625,0.0994885116815567,0.8878264427185059,0.2796976864337921
1772024965874317000,6.301317138671875,0.017849581316113472,1.222359299659729,0.3279919922351837
1772024965884313900,6.31131396484375,-0.011609968729317188,1.4001662731170654,0.38071200251579285
1772024965894311000,6.321310791015625,0.04580192640423775,1.7306021451950073,0.3308829367160797
1772024965904308000,6.331307861328125,0.04307172819972038,1.9347161054611206,0.16984117031097412
1772024965914305000,6.341304931640625,0.07134970277547836,1.7673557996749878,0.1071532815694809
1772024965924301800,6.3513017578125,0.06256626546382904,1.6073483228683472,0.1029774621129036
1772024965934299000,6.361298828125,0.007322451565414667,1.291619896888733,0.09704899787902832
1772024965944297000,6.371296875,-0.024889232590794563,0.7451367378234863,0.031713660806417465
1772024965954294000,6.3812939453125,-0.019487809389829636,0.2844708561897278,-0.147771418094635
1772024965964290800,6.391290771484375,-0.01954229176044464,0.07427937537431717,-0.4184602200984955
1772024965974288000,6.401287841796875,-0.1275140345096588,0.028163280338048935,-0.6475600004196167
1772024965984285000,6.411284912109375,-0.2622472941875458,0.25468167662620544,-0.6856451630592346
1772024965994281700,6.42128173828125,-0.2802257537841797,0.5514369010925293,-0.5534879565238953
1772024966004278800,6.43127880859375,-0.06758319586515427,0.6055238842964172,-0.3682469129562378
1772024966014275800,6.44127587890625,0.16431981325149536,0.4784442186355591,-0.21816474199295044
1772024966024274000,6.45127392578125,0.13160747289657593,0.1311858594417572,-0.5398054718971252
1772024966034270700,6.461270751953125,-0.10109688341617584,-0.0885118693113327,-1.3096486330032349
1772024966044267800,6.471267822265625,-0.3051360845565796,-0.32064417004585266,-1.959240436553955
1772024966054264800,6.481264892578125,-0.15383444726467133,-0.7508708834648132,-1.7937686443328857
1772024966064262000,6.491261962890625,-0.04017390310764313,-0.7121734023094177,-1.0760687589645386
1772024966074258700,6.5012587890625,-0.05545645207166672,-0.6444380283355713,-0.5352281928062439
1772024966084256000,6.511256103515625,-0.005664704367518425,-0.584295928478241,-0.2257186621427536
1772024966094252800,6.521252685546875,-0.03462498262524605,-0.540441632270813,-0.18845731019973755
1772024966104251000,6.5312509765625,-0.125685915350914,-0.4683402478694916,-0.5802943110466003
1772024966114247700,6.54124755859375,-0.2245405912399292,-0.40746596455574036,-1.1012866497039795
1772024966124245000,6.551244873046875,-0.34312617778778076,-0.34437549114227295,-1.4910366535186768
1772024966134241800,6.56124169921875,-0.3892601430416107,-0.25748613476753235,-1.5996241569519043
1772024966144238800,6.57123876953125,-0.4009331166744232,-0.05186773091554642,-1.3924771547317505
1772024966154236000,6.58123583984375,-0.4520447552204132,0.1244356632232666,-1.015342354774475
1772024966164233000,6.59123291015625,-0.5142152309417725,0.17213241755962372,-0.6903282999992371
1772024966174229800,6.601229736328125,-0.6005716919898987,-0.0007978043868206441,-0.5528524518013
1772024966184227800,6.611227783203125,-0.6629011034965515,-0.42992785573005676,-0.491285502910614
1772024966194225000,6.621224853515625,-0.7007294297218323,-0.8595545887947083,-0.2995200753211975
1772024966204222000,6.631221923828125,-0.7132158279418945,-1.0828487873077393,0.07226581871509552
1772024966214218800,6.64121875,-0.6917270421981812,-1.1756782531738281,0.5209195017814636
1772024966224215800,6.6512158203125,-0.6452746987342834,-1.0073541402816772,0.901371955871582
1772024966234212900,6.661212890625,-0.5685386657714844,-0.8733361959457397,1.183878779411316
1772024966244209700,6.671209716796875,-0.42084774374961853,-0.8419462442398071,1.4115853309631348
1772024966254207000,6.68120703125,-0.27682238817214966,-0.7914841175079346,1.5760834217071533
1772024966264204800,6.691204833984375,-0.20851479470729828,-0.8064295053482056,1.4243210554122925
1772024966274201900,6.701201904296875,-0.1608242392539978,-0.8778426647186279,1.2271599769592285
1772024966284198700,6.71119873046875,-0.11473628878593445,-0.758698046207428,0.9884349703788757
1772024966294196000,6.721196044921875,-0.12215212732553482,-0.5097734332084656,0.5980562567710876
1772024966304192800,6.73119287109375,-0.1467348039150238,-0.1651242971420288,0.25795602798461914
1772024966314189800,6.74118994140625,-0.12038470059633255,0.08729678392410278,0.02493158169090748
1772024966324187000,6.751186767578125,-0.04672197252511978,0.17587268352508545,-0.1451510488986969
1772024966334184000,6.761183837890625,0.02092444896697998,0.07842390239238739,-0.26978060603141785
1772024966344181800,6.771181640625,0.1258765161037445,-0.27180248498916626,-0.2903998792171478
1772024966354178800,6.7811787109375,0.26219308376312256,-0.62650465965271,-0.22717909514904022
1772024966364176000,6.79117578125,0.34482866525650024,-0.8492969274520874,-0.15485288202762604
1772024966374173000,6.8011728515625,0.3868940770626068,-0.8758489489555359,-0.06344494968652725
1772024966384169700,6.811169677734375,0.4121851325035095,-0.8430646657943726,-0.01941310055553913
1772024966394167000,6.8211669921875,0.41636762022972107,-0.7641221880912781,-0.059324029833078384
1772024966404163800,6.831163818359375,0.40840649604797363,-0.6644309759140015,-0.14086951315402985
1772024966414161000,6.841160888671875,0.38407397270202637,-0.4898397624492645,-0.20515716075897217
1772024966424158700,6.85115869140625,0.3285258114337921,-0.278105765581131,-0.17171815037727356
1772024966434156000,6.861156005859375,0.2634333670139313,-0.05496348813176155,-0.025038961321115494
1772024966444152800,6.87115283203125,0.24091166257858276,0.11090678721666336,0.22519931197166443
1772024966454150000,6.88114990234375,0.2546767294406891,0.014393294230103493,0.48868873715400696
1772024966464147500,6.8911474609375,0.21615546941757202,-0.20062294602394104,0.5955570936203003
1772024966474144800,6.901144775390625,0.10046403110027313,-0.26422351598739624,0.47468554973602295
1772024966484141600,6.9111416015625,0.012310011312365532,-0.058315787464380264,0.07118770480155945
1772024966494138600,6.921138671875,-0.10916342586278915,0.5283998847007751,-0.6999249458312988
1772024966504136400,6.931136474609375,-0.33190882205963135,0.8713008761405945,-1.603839635848999
1772024966514133800,6.9411337890625,-0.4873170554637909,0.3368324339389801,-2.1434507369995117
1772024966524130600,6.951130615234375,-0.38285768032073975,0.041310328990221024,-1.6192755699157715
1772024966534127600,6.961127685546875,-0.4313943088054657,-0.04934793338179588,-0.1354285031557083
1772024966544124700,6.971124755859375,-0.5181546807289124,0.1076677218079567,1.3022335767745972
1772024966554121500,6.98112158203125,-0.5517022609710693,0.35870155692100525,2.000931978225708
1772024966564118500,6.991118408203125,-0.6803247928619385,0.4783093333244324,1.7537109851837158
1772024966574115600,7.001115478515625,-0.8228830099105835,0.6535927057266235,0.7034407258033752
1772024966584113700,7.01111376953125,-0.8367698192596436,0.7421756386756897,-0.48947110772132874
1772024966594110500,7.0211103515625,-0.8900080323219299,0.8398494720458984,-1.2917813062667847
1772024966604107500,7.031107421875,-0.9092221260070801,0.9999486804008484,-1.5074725151062012
1772024966614104600,7.0411044921875,-0.8712052702903748,1.0816746950149536,-1.2046198844909668
1772024966624101600,7.0511015625,-0.8528781533241272,1.097648024559021,-0.6484401822090149
1772024966634098400,7.061098388671875,-0.8514618873596191,1.0826988220214844,-0.17052258551120758
1772024966644095700,7.071095703125,-0.8242752552032471,0.9963783025741577,-0.018703367561101913
1772024966654092500,7.081092529296875,-0.7677430510520935,0.7093547582626343,-0.16195985674858093
1772024966664090600,7.091090576171875,-0.6657403707504272,0.29302921891212463,-0.4355355501174927
1772024966674087400,7.10108740234375,-0.5033879280090332,-0.1005745381116867,-0.7082831859588623
1772024966684084700,7.111084716796875,-0.31147196888923645,-0.4067193269729614,-0.7972884178161621
1772024966694081500,7.12108154296875,-0.1466662734746933,-0.6135824918746948,-0.6411496996879578
1772024966704078600,7.13107861328125,-0.004495043773204088,-0.7253118753433228,-0.3307497501373291
1772024966714075600,7.14107568359375,0.11453734338283539,-0.7460004091262817,0.06843332946300507
1772024966724072700,7.15107275390625,0.19105324149131775,-0.6401716470718384,0.434575617313385
1772024966734069500,7.161069580078125,0.2138909101486206,-0.4556654095649719,0.6921573281288147
1772024966744067600,7.171067626953125,0.20187883079051971,-0.2628369927406311,0.8080351948738098
1772024966754064600,7.181064697265625,0.21571075916290283,-0.09295128285884857,0.7757390141487122
1772024966764061700,7.191061767578125,0.24082733690738678,0.06435302644968033,0.6224110126495361
1772024966774058500,7.20105859375,0.2235996127128601,0.16687914729118347,0.41067245602607727
1772024966784055800,7.211055908203125,0.20065751671791077,0.221605584025383,0.22744660079479218
1772024966794052600,7.221052490234375,0.23776119947433472,0.20961762964725494,0.09102005511522293
1772024966804049400,7.23104931640625,0.2933029234409332,0.14834600687026978,0.020920349285006523
1772024966814047500,7.241047607421875,0.36434033513069153,0.0439588837325573,0.04660600423812866
1772024966824044800,7.251044921875,0.43734845519065857,-0.1115284189581871,0.12021370232105255
1772024966834041600,7.26104150390625,0.48480039834976196,-0.2843089997768402,0.21025437116622925
1772024966844038700,7.27103857421875,0.4897930324077606,-0.4476723372936249,0.28002360463142395
1772024966854035700,7.28103564453125,0.4599147439002991,-0.5425645112991333,0.3267980217933655
1772024966864032500,7.291032470703125,0.4186876118183136,-0.56463623046875,0.337047815322876
1772024966874029600,7.301029541015625,0.3531637489795685,-0.5603141784667969,0.33105728030204773
1772024966884026600,7.311026611328125,0.267975389957428,-0.48720747232437134,0.322904497385025
1772024966894024700,7.321024658203125,0.2278820127248764,-0.2959059476852417,0.3379276394844055
1772024966904021500,7.331021484375,0.22292859852313995,-0.12446550279855728,0.3994925916194916
1772024966914018600,7.3410185546875,0.2625551223754883,-0.021648576483130455,0.48287245631217957
1772024966924015600,7.351015625,0.3304625451564789,-0.017077147960662842,0.5361559987068176
1772024966934012700,7.3610126953125,0.38670477271080017,-0.11787779629230499,0.46347835659980774
1772024966944009500,7.371009521484375,0.33536872267723083,-0.25226324796676636,0.22293974459171295
1772024966954006800,7.3810068359375,0.1938166618347168,-0.22900423407554626,-0.21922995150089264
1772024966964003600,7.391003662109375,0.04369330033659935,0.15967148542404175,-0.7030888199806213
1772024966974001700,7.401001708984375,-0.10423464328050613,0.5827646851539612,-1.0352097749710083
1772024966983998500,7.41099853515625,-0.2322167158126831,0.2694986164569855,-1.1237009763717651
1772024966993995800,7.420995849609375,-0.10715761035680771,0.0393969863653183,-0.5996316075325012
1772024967003992600,7.43099267578125,-0.005868831183761358,-0.05911261588335037,0.4672228693962097
1772024967013989600,7.44098974609375,-0.1350763440132141,-0.08450212329626083,1.278001308441162
1772024967023986700,7.450986572265625,-0.2611212730407715,0.23928458988666534,1.6042733192443848
1772024967033983700,7.460983642578125,-0.3409460484981537,0.5249570608139038,1.5330321788787842
1772024967043980500,7.47098046875,-0.2651046812534332,0.8026435971260071,0.8882969617843628
1772024967053978600,7.480978515625,-0.09430922567844391,1.102622389793396,-0.2193892002105713
1772024967063975700,7.4909755859375,-0.013156355358660221,1.198236107826233,-1.1328758001327515
1772024967073972700,7.50097265625,-0.07669751346111298,1.2187610864639282,-1.5527652502059937
1772024967083969500,7.510969482421875,-0.21467739343643188,1.1333625316619873,-1.4809587001800537
1772024967093966800,7.520966796875,-0.3562401235103607,1.0267785787582397,-1.041141390800476
1772024967103963600,7.530963623046875,-0.441512793302536,0.8549686670303345,-0.5519519448280334
1772024967113960400,7.54096044921875,-0.46692946553230286,0.6205742359161377,-0.26945391297340393
1772024967123958500,7.55095849609375,-0.48110780119895935,0.3432883620262146,-0.24196122586727142
1772024967133955800,7.560955810546875,-0.43550756573677063,-0.005941271316260099,-0.37145528197288513
1772024967143952600,7.57095263671875,-0.33609330654144287,-0.3677409589290619,-0.4356898069381714
1772024967153949400,7.580949462890625,-0.25022077560424805,-0.6137707233428955,-0.28134843707084656
1772024967163946800,7.59094677734375,-0.19244243204593658,-0.7733334302902222,0.07170256227254868
1772024967173943600,7.600943603515625,-0.17109772562980652,-0.837965726852417,0.48713570833206177
1772024967183940600,7.610940673828125,-0.1326567828655243,-0.7804213166236877,0.8281947374343872
1772024967193937700,7.620937744140625,-0.06176744028925896,-0.5721224546432495,0.9804969429969788
1772024967203935700,7.630935791015625,0.0020747326780110598,-0.2584543228149414,0.9456968307495117
1772024967213932500,7.6409326171875,0.05989675223827362,0.048710137605667114,0.7872328758239746
1772024967223929600,7.6509296875,0.13463304936885834,0.304826557636261,0.5651846528053284
1772024967233926700,7.6609267578125,0.19369611144065857,0.503438413143158,0.37916654348373413
1772024967243923700,7.670923828125,0.2002200484275818,0.5695976614952087,0.2699539363384247
1772024967253920500,7.68092041015625,0.16547325253486633,0.5162755846977234,0.23567424714565277
1772024967263917600,7.69091748046875,0.10427260398864746,0.3990946114063263,0.2146366834640503
1772024967273914600,7.70091455078125,0.05150099843740463,0.2720474302768707,0.19889020919799805
1772024967283912700,7.71091259765625,0.017334194853901863,0.1661118119955063,0.20204730331897736
1772024967293909500,7.720909423828125,0.013891259208321571,0.11367309838533401,0.20982426404953003
1772024967303906600,7.730906494140625,0.02037419192492962,0.08423531800508499,0.21173402667045593
1772024967313903600,7.740903564453125,0.02820122241973877,0.045143574476242065,0.1764705777168274
1772024967323900700,7.750900634765625,0.062153831124305725,-0.0017713865963742137,0.10919752717018127
1772024967333897500,7.7608974609375,0.10860175639390945,-0.009974189102649689,0.019954467192292213
1772024967343894800,7.770894775390625,0.16739559173583984,-0.005659952759742737,-0.07428069412708282
1772024967353891600,7.7808916015625,0.19126950204372406,-0.0144068393856287,-0.12459339946508408
1772024967363889700,7.7908896484375,0.1948484480381012,-0.07204797118902206,-0.11907820403575897
1772024967373886500,7.800886474609375,0.21369591355323792,-0.1495123952627182,-0.07752782851457596
1772024967383883800,7.8108837890625,0.25614655017852783,-0.21617311239242554,-0.016482828184962273
1772024967393880600,7.820880615234375,0.2928782105445862,-0.2755730450153351,0.04393790662288666
1772024967403877400,7.83087744140625,0.3609764575958252,-0.2693626880645752,0.05801517143845558
1772024967413874700,7.840874755859375,0.3493403196334839,-0.22956015169620514,0.03430185094475746
1772024967423871500,7.85087158203125,0.1150084137916565,-0.30816540122032166,-0.08294455707073212
1772024967433869600,7.86086962890625,-0.1293022483587265,-0.3042713403701782,-0.3848298490047455
1772024967443866400,7.870866455078125,-0.28884807229042053,-0.13681864738464355,-0.8529039025306702
1772024967453863700,7.88086376953125,-0.3566726744174957,-0.18683308362960815,-1.4068734645843506
1772024967463859700,7.890859619140625,-0.2440652698278427,-0.7009251117706299,-1.699347972869873
1772024967473856800,7.900856689453125,-0.028497299179434776,-0.8168021440505981,-1.0279451608657837
1772024967483853800,7.910853759765625,-0.10582569241523743,-0.6835323572158813,0.2602929472923279
1772024967493850600,7.9208505859375,-0.1933741718530655,-0.29120373725891113,1.3733329772949219
1772024967503848000,7.930847900390625,-0.27737659215927124,0.21138913929462433,1.9861279726028442
1772024967513845800,7.940845703125,-0.29989680647850037,0.463754802942276,2.015922784805298
1772024967523842800,7.9508427734375,-0.2572450041770935,0.7548500299453735,1.3123682737350464
1772024967533839600,7.960839599609375,-0.15679988265037537,0.9821431040763855,0.21627406775951385
1772024967543837000,7.9708369140625,-0.12995730340480804,0.8619731068611145,-0.668818473815918
1772024967553833700,7.980833740234375,-0.19698001444339752,0.6409217119216919,-1.0768789052963257
1772024967563830800,7.990830810546875,-0.2877291142940521,0.38243550062179565,-1.008452296257019
1772024967573827800,8.000827880859376,-0.3922933340072632,0.1799769252538681,-0.6366540193557739
1772024967583825000,8.010824951171875,-0.411540687084198,0.03726847469806671,-0.16870644688606262
1772024967593822700,8.02082275390625,-0.32214075326919556,0.0020335218869149685,0.15684235095977783
1772024967603819800,8.03081982421875,-0.19089055061340332,-0.06900520622730255,0.25291332602500916
1772024967613816800,8.04081689453125,-0.0704626813530922,-0.26317521929740906,0.15318915247917175
1772024967623814000,8.05081396484375,0.013728590682148933,-0.4919094443321228,-0.000440170057117939
1772024967633810700,8.060810791015625,0.09700696915388107,-0.6788569688796997,-0.07407790422439575
1772024967643808000,8.07080810546875,0.13333763182163239,-0.7471639513969421,0.02579457126557827
1772024967653804800,8.0808046875,0.09684060513973236,-0.7171211242675781,0.28433001041412354
1772024967663803000,8.090802978515624,0.015212591737508774,-0.633449912071228,0.5981428027153015
1772024967673799700,8.100799560546875,-0.03929942101240158,-0.4703405201435089,0.8680474758148193
1772024967683797000,8.110796875,-0.03131946921348572,-0.28095024824142456,1.0178884267807007
1772024967693793800,8.120793701171875,0.009655127301812172,-0.11440439522266388,0.9887179732322693
1772024967703790600,8.13079052734375,0.051884282380342484,0.04862859472632408,0.762863039970398
1772024967713788000,8.140787841796875,0.08349360525608063,0.23105965554714203,0.4258703589439392
1772024967723784700,8.15078466796875,0.08296215534210205,0.3277036249637604,0.0908459946513176
1772024967733781800,8.16078173828125,0.05253874137997627,0.3018243610858917,-0.16919490694999695
1772024967743779600,8.170779541015625,0.005827627144753933,0.21988490223884583,-0.3305080533027649
1772024967753777000,8.18077685546875,-0.007977667264640331,0.13162854313850403,-0.3707321882247925
1772024967763773700,8.190773681640625,0.02368992753326893,0.0758892372250557,-0.29254263639450073
1772024967773770800,8.200770751953126,0.08598659187555313,0.0366574190557003,-0.14982330799102783
1772024967783767800,8.210767822265625,0.16649016737937927,-0.003211952280253172,-0.04208286106586456
1772024967793764900,8.220764892578124,0.2500995695590973,-0.03424736484885216,-0.039331283420324326
1772024967803761700,8.23076171875,0.35039904713630676,-0.030472952872514725,-0.128066748380661
1772024967813759700,8.240759765625,0.43211013078689575,0.008521052077412605,-0.2386483997106552
1772024967823756800,8.2507568359375,0.453514963388443,0.008684561587870121,-0.3175089359283447
1772024967833753900,8.26075390625,0.43673092126846313,-0.040672868490219116,-0.33504316210746765
1772024967843750700,8.270750732421876,0.4198254346847534,-0.1321086585521698,-0.2903949022293091
1772024967853748000,8.280748046875,0.42353975772857666,-0.17861303687095642,-0.2105889916419983
1772024967863744800,8.290744873046876,0.4243279993534088,-0.16390331089496613,-0.1259622573852539
1772024967873741800,8.300741943359375,0.4018421471118927,-0.19146515429019928,-0.12520965933799744
1772024967883739600,8.31073974609375,0.40578600764274597,-0.2169421911239624,-0.3192283809185028
1772024967893737000,8.320737060546875,0.3316800892353058,-0.27827584743499756,-0.5899227261543274
1772024967903733800,8.330733642578124,0.12402158975601196,-0.3661348223686218,-0.7812958359718323
1772024967913730800,8.340730712890625,-0.14168918132781982,-0.17011658847332,-0.7405717968940735
1772024967923728000,8.350727783203125,-0.3210182785987854,0.4965646266937256,-0.40550774335861206
1772024967933725000,8.360724853515626,-0.33471089601516724,1.1421806812286377,0.036442749202251434
1772024967943721700,8.3707216796875,-0.2440056949853897,1.1482641696929932,0.4092235863208771
1772024967953718800,8.38071875,-0.05392258241772652,1.2979767322540283,0.9086121320724487
1772024967963716900,8.390716796875,-0.07143442332744598,1.2737451791763306,1.4218212366104126
1772024967973714000,8.4007138671875,-0.2902330756187439,0.894593358039856,1.9288498163223267
1772024967983710700,8.410710693359375,-0.4121187627315521,0.5553524494171143,2.246018648147583
1772024967993707800,8.420707763671874,-0.6403820514678955,0.47275930643081665,1.745619535446167
1772024968003704800,8.430704833984375,-0.7618741989135742,0.510635256767273,0.2203838974237442
1772024968013701600,8.44070166015625,-0.6954605579376221,0.4015849530696869,-1.3582104444503784
1772024968023698700,8.45069873046875,-0.6674753427505493,0.05594639480113983,-1.9868866205215454
1772024968033696800,8.46069677734375,-0.6177507042884827,-0.21452930569648743,-1.8772512674331665
1772024968043693800,8.47069384765625,-0.5235809683799744,-0.3949007987976074,-1.3421168327331543
1772024968053690600,8.480690673828125,-0.486924409866333,-0.5803923606872559,-0.6216586828231812
1772024968063687700,8.490687744140626,-0.5152835249900818,-0.8069831728935242,-0.05564529076218605
1772024968073684700,8.500684814453125,-0.547114908695221,-1.0129648447036743,0.13297387957572937
1772024968083681800,8.510681884765624,-0.5469633340835571,-1.1413826942443848,0.04637950658798218
1772024968093678600,8.5206787109375,-0.5286386609077454,-1.1986202001571655,-0.04406117647886276
1772024968103676000,8.530676025390624,-0.4439508616924286,-1.2081488370895386,-0.02017112448811531
1772024968113673700,8.540673828125,-0.29238370060920715,-1.1213122606277466,0.18828220665454865
1772024968123670800,8.5506708984375,-0.10406170040369034,-0.858964204788208,0.5791550874710083
1772024968133667600,8.56066748046875,0.07757972925901413,-0.5431103706359863,1.077757716178894
1772024968143665000,8.570664794921875,0.2565517723560333,-0.22134137153625488,1.530540108680725
1772024968153661700,8.58066162109375,0.40364882349967957,0.09427651762962341,1.7597157955169678
1772024968163658800,8.59065869140625,0.5052700042724609,0.3711818754673004,1.6744927167892456
1772024968173655800,8.60065576171875,0.5536718964576721,0.5553863048553467,1.327481746673584
1772024968183654000,8.61065380859375,0.5682508945465088,0.6271519064903259,0.8585509657859802
1772024968193650700,8.620650634765624,0.5419838428497314,0.5539003014564514,0.4264126420021057
1772024968203647700,8.630647705078125,0.5026990175247192,0.31283217668533325,0.14263656735420227
1772024968213644800,8.640644775390625,0.46569493412971497,0.021094851195812225,0.025678526610136032
1772024968223641900,8.650641845703126,0.4400344491004944,-0.22510263323783875,0.017645563930273056
1772024968233638700,8.660638671875,0.42505577206611633,-0.3960573375225067,0.049402959644794464
1772024968243636000,8.670635986328126,0.42541590332984924,-0.4941481053829193,0.06078219413757324
1772024968253633800,8.6806337890625,0.44495657086372375,-0.5292267799377441,0.014001641422510147
1772024968263630800,8.690630859375,0.45101720094680786,-0.5021297335624695,-0.062384266406297684
1772024968273627600,8.700627685546875,0.4530036747455597,-0.4264477491378784,-0.13976241648197174
1772024968283625000,8.710625,0.43529263138771057,-0.2935783565044403,-0.19564206898212433
1772024968293621800,8.720621826171875,0.3810725212097168,-0.1438612937927246,-0.210331529378891
1772024968303618600,8.73061865234375,0.3079732358455658,-0.05062709376215935,-0.183128222823143
1772024968313616000,8.740615966796875,0.2689707279205322,-0.010130532085895538,-0.12476184964179993
1772024968323612700,8.75061279296875,0.2660044729709625,0.04232712462544441,-0.029894724488258362
1772024968333610800,8.76061083984375,0.312144011259079,0.08229957520961761,0.04998945817351341
1772024968343607600,8.770607666015625,0.3974216878414154,0.06228495016694069,0.016986748203635216
1772024968353604900,8.78060498046875,0.45190173387527466,-0.009883517399430275,-0.14935562014579773
1772024968363601700,8.7906015625,0.41819873452186584,-0.19788743555545807,-0.47109556198120117
1772024968373598700,8.8005986328125,0.2874939739704132,-0.518183708190918,-0.9442369937896729
1772024968383595800,8.810595703125,0.11768696457147598,-0.5629672408103943,-1.3670952320098877
1772024968393592800,8.8205927734375,0.009592458605766296,0.03953889012336731,-1.6656601428985596
1772024968403590700,8.830590576171875,0.032998375594615936,0.8449294567108154,-1.870882272720337
1772024968413587700,8.840587646484375,0.07744227349758148,1.0079271793365479,-1.7612718343734741
1772024968423584800,8.850584716796876,0.2622157633304596,1.250140905380249,-0.9625978469848633
1772024968433581800,8.860581787109375,0.22047443687915802,1.4945281744003296,0.15795379877090454
1772024968443578600,8.87057861328125,-0.10772465169429779,1.5031148195266724,1.1741244792938232
1772024968453576000,8.880575927734375,-0.30183982849121094,1.2846722602844238,1.9278725385665894
1772024968463574000,8.890573974609374,-0.49623140692710876,1.1406151056289673,1.886065125465393
1772024968473571800,8.90057177734375,-0.6399275660514832,1.017743706703186,0.7699223160743713
1772024968483569000,8.91056884765625,-0.6350425481796265,0.7957166433334351,-0.7328617572784424
1772024968493565700,8.920565673828126,-0.609679639339447,0.46488064527511597,-1.627016544342041
1772024968503563000,8.93056298828125,-0.53884357213974,0.12746500968933105,-1.788885235786438
1772024968513559800,8.940559814453126,-0.4146651327610016,-0.10330747812986374,-1.4865659475326538
1772024968523556900,8.950556884765625,-0.34158235788345337,-0.22657564282417297,-0.8967444896697998
1772024968533554000,8.960553955078124,-0.28909412026405334,-0.3009641170501709,-0.24399755895137787
1772024968543551000,8.970551025390625,-0.24436433613300323,-0.2682307958602905,0.1896166056394577
1772024968553548800,8.980548828125,-0.20584410429000854,-0.3183365762233734,0.30240336060523987
1772024968563545900,8.9905458984375,-0.17099274694919586,-0.5365472435951233,0.12765729427337646
1772024968573543000,9.00054296875,-0.12326596677303314,-0.7424461245536804,-0.11825740337371826
1772024968583540000,9.0105400390625,-0.07609616219997406,-0.9614169001579285,-0.2298070341348648
1772024968593536800,9.020536865234375,-0.030346518382430077,-1.2100692987442017,-0.1375969499349594
1772024968603533800,9.030533935546876,0.012981662526726723,-1.3104076385498047,0.15394587814807892
1772024968613531000,9.04053076171875,0.06837701052427292,-1.1819322109222412,0.5790181159973145
1772024968623529000,9.050529052734374,0.13310697674751282,-0.8794450163841248,1.0521444082260132
1772024968633525800,9.06052587890625,0.210163414478302,-0.4834750294685364,1.4206550121307373
1772024968643522800,9.070522705078124,0.2933028042316437,-0.0758359283208847,1.5450425148010254
1772024968653520000,9.080519775390625,0.37509885430336,0.2293548882007599,1.4167932271957397
1772024968663516700,9.0905166015625,0.4487393796443939,0.36772459745407104,1.078728437423706
1772024968673514000,9.100513916015625,0.47797369956970215,0.45762544870376587,0.6561785936355591
1772024968683510800,9.1105107421875,0.432264119386673,0.40222835540771484,0.2892468571662903
1772024968693508900,9.1205087890625,0.3502717614173889,0.12999843060970306,0.042549192905426025
1772024968703505700,9.130505615234375,0.2776449918746948,-0.1885794848203659,-0.08774983137845993
1772024968713503000,9.1405029296875,0.2426087111234665,-0.44263359904289246,-0.1445244401693344
1772024968723499800,9.150499755859375,0.2467712163925171,-0.5970593690872192,-0.15611529350280762
1772024968733496800,9.160496826171874,0.2945701479911804,-0.6252606511116028,-0.14276327192783356
1772024968743494000,9.170493896484375,0.37359535694122314,-0.5263916254043579,-0.10268130898475647
1772024968753491000,9.180490966796874,0.45613816380500793,-0.36188897490501404,-0.028752753511071205
1772024968763488800,9.19048876953125,0.5271210074424744,-0.16906215250492096,0.0682586133480072
1772024968773485800,9.20048583984375,0.5529387593269348,0.02596326358616352,0.1557314693927765
1772024968783483000,9.21048291015625,0.5387961268424988,0.2428017556667328,0.23830071091651917
1772024968793480000,9.22047998046875,0.5095764994621277,0.4244668781757355,0.3244113624095917
1772024968803476700,9.230476806640626,0.478510320186615,0.4975760579109192,0.40552636981010437
1772024968813474000,9.24047412109375,0.46439024806022644,0.48594552278518677,0.421842485666275
1772024968823470800,9.250470947265624,0.47119423747062683,0.39604201912879944,0.3506108820438385
1772024968833468000,9.260468017578125,0.4879803955554962,0.232895165681839,0.16025583446025848
1772024968843465700,9.2704658203125,0.47963085770606995,0.12846685945987701,-0.16537587344646454
1772024968853463000,9.280463134765625,0.3593670129776001,0.1491449773311615,-0.5251864790916443
1772024968863459800,9.2904599609375,0.19231483340263367,0.41273584961891174,-0.7545331716537476
1772024968873457000,9.300456787109376,0.06352490931749344,0.9891719818115234,-0.8842373490333557
1772024968883454000,9.310453857421875,-0.09603776782751083,1.5301487445831299,-1.1719045639038086
1772024968893451000,9.320450927734376,-0.17670758068561554,1.375688910484314,-1.5779460668563843
1772024968903447800,9.33044775390625,-0.1236865445971489,0.883952260017395,-1.5831823348999023
1772024968913444900,9.34044482421875,-0.20814229547977448,0.39141157269477844,-1.0323569774627686
1772024968923442000,9.35044189453125,-0.2987898886203766,-0.007992967031896114,-0.162658229470253
1772024968933438700,9.360438720703126,-0.33519211411476135,-0.11621078103780746,0.8394927382469177
1772024968943436000,9.37043603515625,-0.41685882210731506,-0.21705487370491028,1.3909517526626587
1772024968953432800,9.380432861328124,-0.4609202742576599,-0.2551790773868561,0.9317111968994141
1772024968963431000,9.390430908203125,-0.43341392278671265,-0.10686296224594116,-0.2075762301683426
1772024968973427700,9.400427734375,-0.4781568944454193,-0.1546158492565155,-1.1743353605270386
1772024968983425000,9.410425048828126,-0.5442925691604614,-0.3917462229728699,-1.589577317237854
1772024968993421800,9.420421875,-0.5147680044174194,-0.43674272298812866,-1.5595203638076782
1772024969003419000,9.4304189453125,-0.46654677391052246,-0.33913227915763855,-1.1075053215026855
1772024969013416000,9.440416015625,-0.4365193843841553,-0.18611717224121094,-0.38322120904922485
1772024969023413000,9.4504130859375,-0.40271639823913574,0.06190362200140953,0.2965233325958252
1772024969033410800,9.460410888671875,-0.34957781434059143,0.3498794734477997,0.6558940410614014
1772024969043408000,9.470407958984374,-0.3323071300983429,0.396445631980896,0.5450491309165955
1772024969053405000,9.480405029296875,-0.34320878982543945,0.15891429781913757,0.08876627683639526
1772024969063402000,9.490402099609375,-0.3359609544277191,-0.23353153467178345,-0.42434579133987427
1772024969073398800,9.500398681640625,-0.31102150678634644,-0.644882321357727,-0.751545786857605
1772024969083395800,9.510395751953125,-0.2958863079547882,-0.8603455424308777,-0.7327947020530701
1772024969093393000,9.520392822265626,-0.26889199018478394,-0.8578352332115173,-0.3271518349647522
1772024969103391000,9.530390869140625,-0.23944370448589325,-0.6786953806877136,0.34990981221199036
1772024969113387800,9.5403876953125,-0.18162274360656738,-0.38537129759788513,1.0852628946304321
1772024969123384800,9.550384765625,-0.0980565994977951,-0.01790565811097622,1.6851617097854614
1772024969133382000,9.5603818359375,-0.005167405121028423,0.3181155025959015,1.989673376083374
1772024969143379000,9.57037890625,0.0679672360420227,0.568816602230072,1.9078439474105835
1772024969153375700,9.580375732421874,0.12184058129787445,0.7519904375076294,1.4993083477020264
1772024969163372800,9.590372802734375,0.1304049789905548,0.8103232979774475,0.9193962812423706
1772024969173371000,9.600370849609375,0.10874973982572556,0.7039188146591187,0.369253545999527
1772024969183368000,9.610367919921876,0.10852409899234772,0.4060329794883728,-0.0300496406853199
1772024969193364700,9.62036474609375,0.10668092221021652,0.05874454230070114,-0.2306935340166092
1772024969203361800,9.63036181640625,0.1118473932147026,-0.26403573155403137,-0.26269546151161194
1772024969213358800,9.64035888671875,0.14367562532424927,-0.485821396112442,-0.20330913364887238
1772024969223355600,9.650355712890626,0.18607904016971588,-0.5777945518493652,-0.13020828366279602
1772024969233353000,9.66035302734375,0.22775591909885406,-0.5700087547302246,-0.07479322701692581
1772024969243349800,9.670349853515624,0.27010422945022583,-0.5431668162345886,-0.06685919314622879
1772024969253347800,9.680347900390625,0.323064923286438,-0.469479501247406,-0.08977436274290085
1772024969263344600,9.6903447265625,0.34790700674057007,-0.3771311640739441,-0.13461939990520477
1772024969273342000,9.700342041015626,0.3324612081050873,-0.3395664691925049,-0.13467106223106384
1772024969283338800,9.7103388671875,0.3089164197444916,-0.2929712235927582,-0.09249719232320786
1772024969293335800,9.720335693359376,0.29546213150024414,-0.20803901553153992,-0.07200336456298828
1772024969303332900,9.730332763671875,0.2746509313583374,-0.18241794407367706,-0.09534283727407455
1772024969313330000,9.740329833984376,0.2391885668039322,-0.197161465883255,-0.11265525221824646
1772024969323327700,9.75032763671875,0.21837502717971802,-0.1396188884973526,-0.0789526104927063
1772024969333324800,9.76032470703125,0.2149648517370224,0.032183222472667694,-0.017803773283958435
1772024969343321900,9.77032177734375,0.2226037085056305,0.29781341552734375,0.07630402594804764
1772024969353319000,9.78031884765625,0.2009466141462326,0.5617275834083557,0.09974756091833115
1772024969363315700,9.790315673828125,0.08695739507675171,0.8125053644180298,-0.06770183145999908
1772024969373313000,9.80031298828125,-0.03115646354854107,0.9326367974281311,-0.5427335500717163
1772024969383309800,9.810309814453126,-0.12190436571836472,0.6004434823989868,-1.057092547416687
1772024969393308000,9.820307861328125,-0.123600535094738,-0.054015010595321655,-1.2170451879501343
1772024969403304700,9.8303046875,-0.19358791410923004,-0.5135721564292908,-0.7768020629882812
1772024969413302000,9.840302001953125,-0.4004356265068054,-0.6272584795951843,-0.11027198284864426
1772024969423298800,9.850298828125,-0.4492943584918976,-0.7659384608268738,0.5178162455558777
1772024969433296000,9.8602958984375,-0.4439012110233307,-0.5749104619026184,0.4465223550796509
1772024969443293000,9.87029296875,-0.40764299035072327,-0.10239963978528976,-0.47197115421295166
1772024969453289700,9.880289794921875,-0.3679419159889221,0.3815593123435974,-1.3367804288864136
1772024969463286800,9.890286865234375,-0.3559519946575165,0.7349147200584412,-1.4501676559448242
1772024969473284900,9.900284912109376,-0.3321380019187927,1.0651471614837646,-1.0703686475753784
1772024969483282000,9.910281982421875,-0.3520776927471161,1.2592967748641968,-0.4681214690208435
1772024969493279000,9.920279052734376,-0.42230579257011414,1.1931759119033813,0.19942328333854675
1772024969503275800,9.93027587890625,-0.4977741241455078,1.0540974140167236,0.718376874923706
1772024969513273000,9.940273193359374,-0.6240556240081787,0.9061974883079529,0.9034316539764404
1772024969523271700,9.950271728515625,-0.7912424206733704,0.6126608848571777,0.7168462872505188
1772024969533269000,9.96026904296875,-0.9093829393386841,0.14442498981952667,0.33270126581192017
1772024969543265800,9.970265869140626,-0.9270887970924377,-0.4259434640407562,-0.039381299167871475
1772024969553262800,9.980262939453125,-0.8520243763923645,-0.9869405031204224,-0.19451788067817688
1772024969563260000,9.990260009765626,-0.7085644602775574,-1.4897241592407227,-0.0697593092918396
1772024969573257000,10.000257080078125,-0.5256289839744568,-1.7027653455734253,0.3128352165222168
1772024969583253800,10.010253662109376,-0.3446961045265198,-1.5907429456710815,0.8400559425354004
1772024969593251800,10.020251953125,-0.18822605907917023,-1.221441388130188,1.3659074306488037
1772024969603249000,10.030248779296874,-0.04240690916776657,-0.6694542765617371,1.7559025287628174
1772024969613246000,10.040245849609375,0.05622272938489914,0.006184344179928303,1.863904356956482
1772024969623242800,10.05024267578125,0.09144073724746704,0.6268380284309387,1.7106353044509888
1772024969633240000,10.060239990234376,0.11593009531497955,1.0279268026351929,1.409819483757019
1772024969643236900,10.07023681640625,0.11119798570871353,1.2039848566055298,1.0602562427520752
1772024969653234000,10.08023388671875,0.07936788350343704,1.1674330234527588,0.7520374059677124
1772024969663231700,10.090231689453125,0.0729680061340332,0.9013145565986633,0.5669870972633362
1772024969673229000,10.10022900390625,0.11779645830392838,0.4351857304573059,0.48552846908569336
1772024969683225900,10.110225830078125,0.2032553106546402,-0.0632435753941536,0.4426545798778534
1772024969693223000,10.120222900390624,0.27068254351615906,-0.430589884519577,0.37614956498146057
1772024969703220000,10.130219970703125,0.3195275366306305,-0.6826162934303284,0.2661283314228058
1772024969713216800,10.140216796875,0.3365510106086731,-0.9055891633033752,0.09741708636283875
1772024969723213800,10.1502138671875,0.3200837969779968,-1.0574514865875244,-0.07725351303815842
1772024969733211000,10.1602109375,0.3007279634475708,-1.1483664512634277,-0.23252460360527039
1772024969743209000,10.170208984375,0.3023303747177124,-1.1595520973205566,-0.35390985012054443
1772024969753206000,10.1802060546875,0.2910902500152588,-1.0826120376586914,-0.4018979072570801
1772024969763202800,10.190202880859376,0.273142546415329,-0.9202314019203186,-0.35497480630874634
1772024969773200000,10.200199951171875,0.271719366312027,-0.7338295578956604,-0.2190265655517578
1772024969783197000,10.210197021484374,0.31084251403808594,-0.5460469126701355,-0.07564783096313477
1772024969793193700,10.22019384765625,0.37783515453338623,-0.35918304324150085,-0.008691701106727123
1772024969803191000,10.23019091796875,0.436919242143631,-0.22668026387691498,-0.1351909190416336
1772024969813188900,10.24018896484375,0.40929028391838074,-0.019899118691682816,-0.45116060972213745
1772024969823186000,10.25018603515625,0.2247055023908615,0.15023735165596008,-0.8273588418960571
1772024969833182700,10.2601826171875,-0.0407959446310997,0.28215569257736206,-1.099086046218872
1772024969843180000,10.270179931640625,-0.2785401940345764,0.5815020799636841,-1.1798715591430664
1772024969853176800,10.2801767578125,-0.45023152232170105,0.9005735516548157,-1.2180250883102417
1772024969863174000,10.290173828125,-0.4014381170272827,0.5490777492523193,-1.2762502431869507
1772024969873171000,10.3001708984375,-0.04088820889592171,0.033156298100948334,-1.0945477485656738
1772024969883169000,10.3101689453125,0.17116640508174896,-0.0779225155711174,-0.43192219734191895
1772024969893165800,10.320165771484374,0.13565422594547272,0.11398220807313919,0.27732765674591064
1772024969903163000,10.330162841796875,-0.02346007712185383,0.5181159377098083,0.7370370626449585
1772024969913160000,10.340159912109375,-0.11092548072338104,0.8262415528297424,0.8949073553085327
1772024969923157000,10.350156982421876,-0.12611965835094452,0.9852338433265686,0.5414913892745972
1772024969933153800,10.36015380859375,-0.10815956443548203,0.9598853588104248,-0.17413032054901123
1772024969943151000,10.370151123046876,-0.1017163023352623,0.7836348414421082,-0.7034441232681274
1772024969953148000,10.38014794921875,-0.148517906665802,0.6201228499412537,-0.8783717155456543
1772024969963146000,10.39014599609375,-0.1878310739994049,0.5248496532440186,-0.7540714144706726
1772024969973142800,10.400142822265625,-0.2291223257780075,0.39470016956329346,-0.37187474966049194
1772024969983140000,10.41014013671875,-0.24890254437923431,0.2577694058418274,0.05940186604857445
1772024969993137000,10.420136962890625,-0.28711435198783875,0.17261908948421478,0.3559938669204712
1772024970003134000,10.430134033203124,-0.33808833360671997,0.08225803077220917,0.40588870644569397
1772024970013131000,10.440131103515625,-0.34555584192276,-0.10600375384092331,0.1796387881040573
1772024970023127800,10.4501279296875,-0.30809640884399414,-0.35678598284721375,-0.15656690299510956
1772024970033124900,10.460124755859376,-0.2638746201992035,-0.6581426858901978,-0.4137694239616394
1772024970043123000,10.470123046875,-0.2419717162847519,-0.9519376754760742,-0.467155784368515
1772024970053120000,10.4801201171875,-0.21204763650894165,-1.1163769960403442,-0.21619895100593567
1772024970063116800,10.49011669921875,-0.20247624814510345,-1.1380466222763062,0.2419438660144806
1772024970073113900,10.50011376953125,-0.18541258573532104,-0.9981837272644043,0.756462037563324
1772024970083111000,10.51011083984375,-0.14893029630184174,-0.6881706714630127,1.208166480064392
1772024970093108000,10.52010791015625,-0.09161347895860672,-0.24190688133239746,1.499398112297058
1772024970103104800,10.530104736328125,-0.027087360620498657,0.22393855452537537,1.555981159210205
1772024970113102800,10.540102783203125,0.008230149745941162,0.5964508652687073,1.3492426872253418
1772024970123100000,10.550099853515626,0.03536330908536911,0.8174622654914856,0.9782533645629883
1772024970133097000,10.560096923828125,0.043035876005887985,0.821082592010498,0.5661526322364807
1772024970143093800,10.57009375,0.03166252374649048,0.5996626019477844,0.24593526124954224
1772024970153091000,10.580091064453125,0.028925061225891113,0.2767287492752075,0.04989704489707947
1772024970163088000,10.590087890625,0.05568224564194679,-0.02900514379143715,-0.05135094374418259
1772024970173085000,10.6000849609375,0.11506114900112152,-0.26325225830078125,-0.07764539867639542
1772024970183082800,10.610082763671874,0.1836245208978653,-0.440418541431427,-0.0704261064529419
1772024970193080000,10.620080078125,0.2545658051967621,-0.5121766328811646,-0.06476688385009766
1772024970203076900,10.630076904296875,0.31754764914512634,-0.47297531366348267,-0.06383610516786575
1772024970213074000,10.640073974609376,0.38093674182891846,-0.37383222579956055,-0.04755166918039322
1772024970223071000,10.650071044921875,0.4248583912849426,-0.2708331346511841,-0.020466258749365807
1772024970233068000,10.660068115234376,0.4355567693710327,-0.19238044321537018,-0.002946463879197836
1772024970243064800,10.67006494140625,0.4209994971752167,-0.14033237099647522,-0.025160662829875946
1772024970253063000,10.68006298828125,0.429188996553421,-0.09372597187757492,-0.033458538353443146
1772024970263060000,10.69006005859375,0.4542447328567505,-0.10901767760515213,-0.008749543689191341
1772024970273057000,10.70005712890625,0.47565415501594543,-0.23692263662815094,-0.008458992466330528
1772024970283053800,10.7100537109375,0.45008328557014465,-0.3503776788711548,-0.10536392033100128
1772024970293051000,10.72005078125,0.36207619309425354,-0.29109251499176025,-0.3562166690826416
1772024970303048000,10.7300478515625,0.1891888529062271,-0.004320444539189339,-0.6721380352973938
1772024970313044700,10.740044677734375,-0.013094478286802769,0.45204442739486694,-0.9478500485420227
1772024970323041800,10.750041748046876,-0.20604096353054047,0.9573653936386108,-1.1987698078155518
1772024970333039900,10.760039794921875,-0.3345315754413605,0.9768690466880798,-1.3128840923309326
1772024970343037000,10.770036865234376,-0.2544860243797302,0.3153441846370697,-1.029496669769287
1772024970353033700,10.78003369140625,-0.1314040571451187,0.02533179335296154,-0.07911240309476852
1772024970363030800,10.79003076171875,-0.21131227910518646,0.055166978389024734,0.947228193283081
1772024970373027800,10.80002783203125,-0.21854275465011597,0.10099625587463379,1.6395635604858398
1772024970383025000,10.81002490234375,-0.3191719353199005,0.3487413227558136,1.6048623323440552
1772024970393021700,10.820021728515625,-0.3611004650592804,0.5189085006713867,0.7104854583740234
1772024970403020000,10.83002001953125,-0.3729383945465088,0.6782472729682922,-0.3344986140727997
1772024970413016800,10.840016845703126,-0.46124267578125,0.8491654992103577,-0.7762213945388794
1772024970423014000,10.850013916015625,-0.6149701476097107,0.8742848634719849,-0.7949610352516174
1772024970433011000,10.860010986328126,-0.6363100409507751,0.7893361449241638,-0.7007314562797546
1772024970443008000,10.870008056640625,-0.5591353178024292,0.7193232178688049,-0.46392539143562317
1772024970453004800,10.8800048828125,-0.45186716318130493,0.6696293950080872,-0.1882418692111969
1772024970463000800,10.890000732421875,-0.35132113099098206,0.6063135266304016,-0.00028316047973930836
1772024970472997600,10.89999755859375,-0.31245920062065125,0.43741530179977417,0.13788536190986633
1772024970482995700,10.90999560546875,-0.3064705431461334,0.21764299273490906,0.2672303020954132
1772024970492992500,10.919992431640624,-0.29220160841941833,-0.0365179181098938,0.4143126904964447
1772024970502989800,10.92998974609375,-0.2917204797267914,-0.2308294177055359,0.6267491579055786
1772024970512986600,10.939986572265624,-0.2795916497707367,-0.31249043345451355,0.927834153175354
1772024970522983700,10.949983642578125,-0.24532824754714966,-0.3059970438480377,1.2289550304412842
1772024970532980700,10.959980712890625,-0.1917411834001541,-0.23929817974567413,1.4492263793945312
1772024970542977800,10.969977783203126,-0.12411070615053177,-0.07176987081766129,1.594411849975586
1772024970552975600,10.9799755859375,-0.03650815784931183,0.3027573823928833,1.7057490348815918
1772024970562972700,10.98997265625,0.0027610294055193663,0.6898941397666931,1.664775013923645
1772024970572969700,10.9999697265625,0.09367042779922485,0.6650034785270691,1.3996062278747559
1772024970582966800,11.009966796875,0.190883070230484,0.40530911087989807,1.1174179315567017
1772024970592963600,11.019963623046875,0.2690652310848236,0.10010417550802231,0.9711406230926514
1772024970602961000,11.0299609375,0.3148579001426697,-0.20629045367240906,0.8730642199516296
1772024970612957700,11.039957763671875,0.2981787919998169,-0.5350411534309387,0.749064028263092
1772024970622954800,11.049954833984375,0.21735815703868866,-0.8390946388244629,0.6572981476783752
1772024970632952600,11.05995263671875,0.20215363800525665,-0.9741196036338806,0.5676752924919128
1772024970642950000,11.069949951171875,0.21267038583755493,-1.1314244270324707,0.399420827627182
1772024970652946700,11.07994677734375,0.24986222386360168,-1.3800182342529297,0.2158842831850052
