time,seconds_elapsed,z,y,x
1772025092980055000,0.069054931640625,0.6528841853141785,0.39211347699165344,1.0986474752426147
1772025092990052000,0.079052001953125,0.6091225743293762,-0.27355870604515076,1.0730454921722412
1772025093000049200,0.089049072265625,0.3413257300853729,-1.158457636833191,0.7740086317062378
1772025093010046000,0.0990458984375,-0.15438267588615417,-1.5029828548431396,0.468038409948349
1772025093020044000,0.1090439453125,-0.7312795519828796,-1.1230626106262207,0.3515453338623047
1772025093030041000,0.119041015625,-1.0391751527786255,-0.5718355774879456,0.44550415873527527
1772025093040038100,0.1290380859375,-0.9945624470710754,-0.2718126177787781,0.739577054977417
1772025093050035000,0.139034912109375,-0.8032576441764832,-0.3588320314884186,1.0330867767333984
1772025093060032300,0.1490322265625,-0.5842653512954712,-0.7686826586723328,1.0136315822601318
1772025093070029000,0.159029052734375,-0.34928902983665466,-1.4279491901397705,0.4964691400527954
1772025093080026000,0.169026123046875,-0.04545192793011665,-2.146611213684082,-0.3467539846897125
1772025093090023200,0.179023193359375,0.3614102303981781,-2.792670726776123,-1.1335453987121582
1772025093100020200,0.189020263671875,0.6770896911621094,-3.432856321334839,-1.6593899726867676
1772025093110018000,0.19901806640625,0.6685912013053894,-3.7885801792144775,-1.961651086807251
1772025093120015000,0.20901513671875,0.39690643548965454,-3.445516586303711,-2.188128709793091
1772025093130012200,0.21901220703125,0.08618225902318954,-2.518078327178955,-2.533174514770508
1772025093140009200,0.22900927734375,-0.1934078335762024,-1.2366352081298828,-2.9930520057678223
1772025093150006000,0.239006103515625,-0.41522544622421265,0.07777869701385498,-3.471428394317627
1772025093160003000,0.249003173828125,-0.5557466149330139,1.2311983108520508,-3.877960443496704
1772025093170000100,0.259000244140625,-0.5726093649864197,2.112375497817993,-4.061271667480469
1772025093179997200,0.2689970703125,-0.44507959485054016,2.646965265274048,-3.988234758377075
1772025093189994000,0.278993896484375,-0.18615521490573883,2.842989444732666,-3.677900791168213
1772025093199992000,0.288991943359375,0.1524321585893631,2.7150473594665527,-3.1762101650238037
1772025093209989000,0.298989013671875,0.48616182804107666,2.285670280456543,-2.536717653274536
1772025093219986200,0.308986083984375,0.7281006574630737,1.587788462638855,-1.8105829954147339
1772025093229983000,0.31898291015625,0.8111034631729126,0.7305731773376465,-1.0419732332229614
1772025093239980000,0.32897998046875,0.7384862899780273,-0.14504863321781158,-0.24525319039821625
1772025093249977000,0.33897705078125,0.5623229742050171,-0.9516863822937012,0.5421059727668762
1772025093259974000,0.348973876953125,0.36236193776130676,-1.611971378326416,1.260600209236145
1772025093269971200,0.35897119140625,0.17269255220890045,-2.056713342666626,1.882175087928772
1772025093279968000,0.368968017578125,0.0014707368100062013,-2.3000946044921875,2.3910903930664062
1772025093289965000,0.378965087890625,-0.11638723313808441,-2.2631914615631104,2.743492364883423
1772025093299963000,0.388962890625,-0.1756417602300644,-1.9163614511489868,2.9145195484161377
1772025093309960200,0.398960205078125,-0.19256839156150818,-1.389984130859375,2.884100914001465
1772025093319957000,0.40895703125,-0.16145308315753937,-0.831515371799469,2.661482810974121
1772025093329954000,0.4189541015625,-0.12096605449914932,-0.30830779671669006,2.287034511566162
1772025093339951000,0.428951171875,-0.08733539283275604,0.13773278892040253,1.821646809577942
1772025093349948200,0.4389482421875,-0.058606889098882675,0.4690757691860199,1.329935073852539
1772025093359945000,0.448945068359375,-0.030772598460316658,0.6738512516021729,0.8395792245864868
1772025093369942300,0.4589423828125,0.01797846518456936,0.8123979568481445,0.3703567385673523
1772025093379939000,0.46893896484375,0.057308826595544815,1.0097863674163818,-0.06889253854751587
1772025093389937200,0.478937255859375,0.05236661806702614,1.236881136894226,-0.4498080015182495
1772025093399934000,0.488933837890625,0.027056999504566193,1.362715482711792,-0.8094585537910461
1772025093409931300,0.49893115234375,-0.010683450847864151,1.4583669900894165,-1.1364508867263794
1772025093419928000,0.508927978515625,-0.07080377638339996,1.616287350654602,-1.397733449935913
1772025093429925000,0.518925048828125,-0.09576341509819031,1.7226061820983887,-1.4706754684448242
1772025093439922200,0.528922119140625,0.07381495833396912,1.747090220451355,-1.225230097770691
1772025093449919000,0.5389189453125,0.43828755617141724,1.5222580432891846,-0.7162485122680664
1772025093459916000,0.548916015625,0.6521093249320984,0.8626609444618225,-0.221552774310112
1772025093469913000,0.5589130859375,0.49472859501838684,-0.14844965934753418,0.043843939900398254
1772025093479911200,0.5689111328125,0.13178659975528717,-1.2680338621139526,-0.06851402670145035
1772025093489908000,0.578907958984375,-0.010173835791647434,-1.6000465154647827,-0.31578925251960754
1772025093499905000,0.588905029296875,0.14790022373199463,-1.2073261737823486,-0.46014857292175293
1772025093509902000,0.598902099609375,0.36442068219184875,-0.7665634155273438,-0.5484855771064758
1772025093519899100,0.608899169921875,0.5512328743934631,-0.5018105506896973,-0.6821935772895813
1772025093529896000,0.61889599609375,0.7351055145263672,-0.4979809820652008,-0.9449466466903687
1772025093539893200,0.628893310546875,0.9034503102302551,-0.8328468203544617,-1.3941335678100586
1772025093549890000,0.63889013671875,0.9351085424423218,-1.3526910543441772,-1.8884855508804321
1772025093559887000,0.64888720703125,0.7878046035766602,-1.8082375526428223,-2.218472957611084
1772025093569884200,0.65888427734375,0.5307878255844116,-2.1700804233551025,-2.261430501937866
1772025093579882200,0.66888232421875,0.20335718989372253,-2.3296282291412354,-2.047994375228882
1772025093589879000,0.678879150390625,-0.18134891986846924,-2.202355146408081,-1.809299349784851
1772025093599875800,0.688875732421875,-0.5777623653411865,-1.749652624130249,-1.857395052909851
1772025093609873000,0.698872802734375,-0.9328243732452393,-0.8092971444129944,-2.3270087242126465
1772025093619870000,0.708869873046875,-1.2009961605072021,0.47304287552833557,-3.05808162689209
1772025093629866800,0.71886669921875,-1.3639514446258545,1.7723393440246582,-3.7735483646392822
1772025093639864000,0.728864013671875,-1.423929214477539,2.8119637966156006,-4.231728553771973
1772025093649860900,0.73886083984375,-1.4004396200180054,3.4172208309173584,-4.291131496429443
1772025093659858000,0.74885791015625,-1.268350601196289,3.544142961502075,-3.9626219272613525
1772025093669855000,0.75885498046875,-1.023167610168457,3.232499837875366,-3.3455631732940674
1772025093679853000,0.76885302734375,-0.7363256812095642,2.5832207202911377,-2.5270156860351562
1772025093689849900,0.778849853515625,-0.45765629410743713,1.729544758796692,-1.566152811050415
1772025093699847000,0.788846923828125,-0.2162918597459793,0.781174898147583,-0.5221332311630249
1772025093709844000,0.798843994140625,-0.018397793173789978,-0.17853929102420807,0.533173143863678
1772025093719841000,0.808841064453125,0.14762473106384277,-1.034263014793396,1.5259116888046265
1772025093729837800,0.818837890625,0.3114727735519409,-1.6602184772491455,2.4300858974456787
1772025093739835100,0.828835205078125,0.4745410680770874,-2.0668528079986572,3.1844964027404785
1772025093749832000,0.83883203125,0.6283300518989563,-2.2543423175811768,3.740163564682007
1772025093759829000,0.8488291015625,0.7678642272949219,-2.2326643466949463,4.083811283111572
1772025093769826000,0.858825927734375,0.8695663809776306,-2.027970552444458,4.171387195587158
1772025093779824000,0.86882421875,0.9014108180999756,-1.6904499530792236,3.9964375495910645
1772025093789821000,0.878821044921875,0.824737012386322,-1.2729194164276123,3.611114740371704
1772025093799818000,0.88881787109375,0.7021418809890747,-0.8252180814743042,3.1097683906555176
1772025093809815000,0.89881494140625,0.5811598896980286,-0.41609904170036316,2.5954794883728027
1772025093819811800,0.908811767578125,0.462281197309494,-0.11909344792366028,2.0680601596832275
1772025093829809000,0.918808837890625,0.29648327827453613,0.08542557805776596,1.4769885540008545
1772025093839806000,0.928805908203125,0.07388428598642349,0.297330379486084,0.8364786505699158
1772025093849803000,0.938802978515625,-0.17410767078399658,0.5626249313354492,0.21984699368476868
1772025093859799800,0.9487998046875,-0.3617265820503235,0.7968100309371948,-0.37589043378829956
1772025093869796900,0.958796875,-0.4221320152282715,0.9822387099266052,-0.9079358577728271
1772025093879795000,0.968794921875,-0.3851585388183594,1.173298954963684,-1.38324773311615
1772025093889792000,0.9787919921875,-0.26152822375297546,1.4751211404800415,-1.7117793560028076
1772025093899788800,0.988788818359375,0.014105760492384434,1.5928959846496582,-1.7095143795013428
1772025093909786000,0.9987861328125,0.4370739459991455,1.297268271446228,-1.1813795566558838
1772025093919783000,1.008782958984375,0.7271584868431091,0.5556274056434631,-0.3351183533668518
1772025093929780000,1.018780029296875,0.5984666347503662,-0.28758105635643005,0.41024675965309143
1772025093939777000,1.028777099609375,0.2177506685256958,-0.8719619512557983,0.8939785361289978
1772025093949774000,1.038774169921875,-0.010980000719428062,-0.9650944471359253,1.0736087560653687
1772025093959771000,1.04877099609375,-0.09947124868631363,-0.6228742599487305,1.0985811948776245
1772025093969768000,1.058767822265625,-0.14661969244480133,-0.4637889266014099,0.9947419762611389
1772025093979766000,1.06876611328125,-0.15949687361717224,-0.6556130051612854,0.6305983662605286
1772025093989763000,1.07876318359375,-0.12254514545202255,-0.9875271916389465,-0.007092278450727463
1772025093999760000,1.088759765625,0.009041915647685528,-1.3456339836120605,-0.8036959171295166
1772025094009757000,1.0987568359375,0.28637802600860596,-1.572595238685608,-1.4730722904205322
1772025094019754000,1.10875390625,0.5710055232048035,-1.7638267278671265,-1.8128035068511963
1772025094029750800,1.118750732421875,0.650397002696991,-1.9159010648727417,-1.7748794555664062
1772025094039747800,1.128747802734375,0.5063796639442444,-1.8587192296981812,-1.5573492050170898
1772025094049745000,1.138744873046875,0.2904582917690277,-1.4454882144927979,-1.4765360355377197
1772025094059742000,1.148741943359375,0.09655672311782837,-0.770693302154541,-1.6282694339752197
1772025094069738800,1.15873876953125,-0.059939417988061905,-0.05097860470414162,-1.9771391153335571
1772025094079736800,1.16873681640625,-0.14397867023944855,0.6454023122787476,-2.3980798721313477
1772025094089734000,1.17873388671875,-0.14394511282444,1.28446364402771,-2.7265641689300537
1772025094099731000,1.18873095703125,-0.06539303064346313,1.7327247858047485,-2.8553645610809326
1772025094109727700,1.198727783203125,0.059602249413728714,1.910127878189087,-2.742737054824829
1772025094119725000,1.20872509765625,0.19089102745056152,1.86673104763031,-2.389312982559204
1772025094129721900,1.218721923828125,0.2996353805065155,1.6982892751693726,-1.8438639640808105
1772025094139719000,1.228718994140625,0.38507333397865295,1.4427051544189453,-1.1713849306106567
1772025094149716000,1.238716064453125,0.45135340094566345,1.1084647178649902,-0.4495511054992676
1772025094159713000,1.248713134765625,0.480793297290802,0.7152972221374512,0.2466212809085846
1772025094169709800,1.258709716796875,0.5086588859558105,0.31494420766830444,0.8700569868087769
1772025094179708000,1.2687080078125,0.58782958984375,0.00644095242023468,1.3664934635162354
1772025094189705000,1.278705078125,0.7270265221595764,-0.17557477951049805,1.701277256011963
1772025094199702000,1.288701904296875,0.8637220859527588,-0.22175079584121704,1.8527549505233765
1772025094209698800,1.29869873046875,0.9518680572509766,-0.18534062802791595,1.8500956296920776
1772025094219696000,1.308696044921875,0.9554992318153381,-0.13940748572349548,1.6947954893112183
1772025094229693000,1.31869287109375,0.878775954246521,-0.1952054351568222,1.4226418733596802
1772025094239689700,1.328689697265625,0.7336477637290955,-0.22880680859088898,1.1156339645385742
1772025094249687000,1.33868701171875,0.5713293552398682,-0.14885123074054718,0.8318579792976379
1772025094259683800,1.348683837890625,0.45398378372192383,0.07793689519166946,0.5719550251960754
1772025094269681000,1.358680908203125,0.3298080563545227,0.2863706052303314,0.3358584940433502
1772025094279678000,1.368677978515625,0.24402818083763123,0.44143450260162354,0.17304480075836182
1772025094289676000,1.378676025390625,0.21475762128829956,0.5822879672050476,0.08594853430986404
1772025094299672800,1.3886728515625,0.19418255984783173,0.638454020023346,0.10061642527580261
1772025094309670000,1.398669921875,0.142146036028862,0.5145969986915588,0.22230501472949982
1772025094319667000,1.4086669921875,0.13322710990905762,0.5952995419502258,0.360123872756958
1772025094329664000,1.4186640625,0.09580929577350616,0.5700955390930176,0.523930549621582
1772025094339660800,1.428660888671875,-0.08821193873882294,0.20136518776416779,0.7079190611839294
1772025094349658000,1.438658203125,-0.20796151459217072,0.24974562227725983,0.8587502837181091
1772025094359655000,1.448655029296875,-0.035417698323726654,0.35557883977890015,1.1176472902297974
1772025094369652000,1.45865185546875,0.22514024376869202,0.4962158203125,1.4012728929519653
1772025094379649000,1.46864892578125,0.23469460010528564,0.37908199429512024,1.2999411821365356
1772025094389647000,1.478647216796875,0.1168782114982605,-0.018448539078235626,0.7602272033691406
1772025094399644000,1.488643798828125,0.05452216416597366,-0.4469660520553589,-0.026620233431458473
1772025094409641000,1.498640869140625,-0.11333849281072617,-0.41095080971717834,-0.6690480709075928
1772025094419638000,1.508637939453125,-0.35189300775527954,-0.21836189925670624,-1.1111841201782227
1772025094429635000,1.518635009765625,-0.5556488037109375,-0.20024597644805908,-1.501156210899353
1772025094439632000,1.5286318359375,-0.7107158899307251,-0.23630811274051666,-1.895047903060913
1772025094449629000,1.53862890625,-0.7881876230239868,-0.37516069412231445,-2.3492414951324463
1772025094459626000,1.5486259765625,-0.7348080277442932,-0.6784278750419617,-2.8108890056610107
1772025094469622800,1.558622802734375,-0.6037184596061707,-1.0071375370025635,-3.0836684703826904
1772025094479620000,1.5686201171875,-0.4641996920108795,-1.257619857788086,-3.020814895629883
1772025094489617000,1.578616943359375,-0.3447660803794861,-1.3775315284729004,-2.5674543380737305
1772025094499615000,1.588614990234375,-0.2682747542858124,-1.3945850133895874,-1.8495067358016968
1772025094509611800,1.59861181640625,-0.24620996415615082,-1.3773283958435059,-1.1043076515197754
1772025094519609000,1.608609130859375,-0.24312148988246918,-1.3969292640686035,-0.4766005873680115
1772025094529606000,1.61860595703125,-0.23461493849754333,-1.3516945838928223,-0.09027319401502609
1772025094539603000,1.62860302734375,-0.19592319428920746,-1.1489888429641724,-0.024395639076828957
1772025094549600000,1.63860009765625,-0.13280977308750153,-0.7210371494293213,-0.2305663675069809
1772025094559597000,1.64859716796875,-0.014067679643630981,-0.13462208211421967,-0.5310319066047668
1772025094569593900,1.65859375,0.1396045684814453,0.4566305875778198,-0.7559081315994263
1772025094579591000,1.6685908203125,0.24509583413600922,0.8396442532539368,-0.802469789981842
1772025094589588500,1.67858837890625,0.2826557159423828,0.9286478161811829,-0.6502197980880737
1772025094599585500,1.68858544921875,0.28123387694358826,0.8162389993667603,-0.3125778138637543
1772025094609583400,1.698583251953125,0.2455754429101944,0.591244637966156,0.16017763316631317
1772025094619580400,1.708580322265625,0.19521985948085785,0.32263579964637756,0.6796221137046814
1772025094629577500,1.718577392578125,0.1407337635755539,-2.2258609533309937e-7,1.1877715587615967
1772025094639574500,1.728574462890625,0.07089049369096756,-0.3551223874092102,1.626786708831787
1772025094649571300,1.7385712890625,-0.02019217051565647,-0.6647427082061768,1.9389488697052002
1772025094659568600,1.748568603515625,-0.0865141972899437,-0.8416389226913452,2.0894320011138916
1772025094669565400,1.7585654296875,-0.10439703613519669,-0.8499868512153625,2.117236614227295
1772025094679562500,1.7685625,-0.08870463073253632,-0.7243391871452332,2.049281358718872
1772025094689559600,1.7785595703125,-0.07013043016195297,-0.5200247764587402,1.8904379606246948
1772025094699556600,1.788556640625,-0.055876925587654114,-0.24743826687335968,1.656349778175354
1772025094709554400,1.798554443359375,-0.06902322918176651,0.03769107162952423,1.3859667778015137
1772025094719551500,1.808551513671875,-0.12155275046825409,0.27631163597106934,1.137263536453247
1772025094729548500,1.818548583984375,-0.2178584784269333,0.44292357563972473,0.9235527515411377
1772025094739545600,1.828545654296875,-0.3190905749797821,0.5201981067657471,0.7406250238418579
1772025094749542400,1.83854248046875,-0.3901406526565552,0.5423872470855713,0.6181614995002747
1772025094759539500,1.84853955078125,-0.41470563411712646,0.5277968645095825,0.5773780941963196
1772025094769536500,1.85853662109375,-0.3831601142883301,0.5078063011169434,0.5390685796737671
1772025094779533300,1.868533203125,-0.3247372806072235,0.620579719543457,0.4564671814441681
1772025094789530600,1.878530517578125,-0.232391357421875,0.8790823221206665,0.33173659443855286
1772025094799527400,1.88852734375,-0.02524377591907978,1.0953240394592285,0.22086600959300995
1772025094809524500,1.8985244140625,0.3144063651561737,1.0850203037261963,0.2554500102996826
1772025094819522300,1.908522216796875,0.6100603938102722,0.8161341547966003,0.46547672152519226
1772025094829519600,1.91851953125,0.5938704609870911,0.3107074201107025,0.6536728739738464
1772025094839516400,1.928516357421875,0.285358726978302,-0.13607244193553925,0.663044273853302
1772025094849513500,1.938513427734375,0.02227233536541462,-0.34655800461769104,0.4506186544895172
1772025094859510500,1.948510498046875,-0.15745136141777039,0.09673954546451569,0.25345417857170105
1772025094869507600,1.958507568359375,-0.25591349601745605,0.8586898446083069,0.20294293761253357
1772025094879504400,1.96850439453125,-0.21971315145492554,1.1083823442459106,0.1025438979268074
1772025094889501700,1.978501708984375,-0.12475599348545074,0.6860902309417725,-0.1558324098587036
1772025094899498500,1.98849853515625,-0.016351226717233658,0.05633118003606796,-0.5162824988365173
1772025094909495300,1.998495361328125,0.10533512383699417,-0.609237015247345,-0.9676889777183533
1772025094919492600,2.00849267578125,0.24127750098705292,-1.145550012588501,-1.3715603351593018
1772025094929490700,2.01849072265625,0.4236198961734772,-1.4231113195419312,-1.4803783893585205
1772025094939487500,2.028487548828125,0.637748122215271,-1.475571632385254,-1.1730983257293701
1772025094949484500,2.038484619140625,0.7790359258651733,-1.419170618057251,-0.5120010375976562
1772025094959481600,2.048481689453125,0.7977907061576843,-1.3907874822616577,0.23099718987941742
1772025094969478400,2.058478515625,0.7271022796630859,-1.454735279083252,0.7971138954162598
1772025094979475500,2.068475341796875,0.6458444595336914,-1.512333869934082,1.0795656442642212
1772025094989472500,2.078472412109375,0.6005699038505554,-1.428142786026001,1.0408729314804077
1772025094999469600,2.088469482421875,0.6107354164123535,-1.1467479467391968,0.7492645382881165
1772025095009466400,2.09846630859375,0.6351111531257629,-0.679421603679657,0.3108137845993042
1772025095019463400,2.10846337890625,0.6374038457870483,-0.04355756193399429,-0.16174869239330292
1772025095029460500,2.11846044921875,0.6197949051856995,0.5708534121513367,-0.5735006332397461
1772025095039457500,2.12845751953125,0.5522571206092834,1.0758498907089233,-0.8384768962860107
1772025095049455400,2.138455322265625,0.4570261836051941,1.470770001411438,-0.9149539470672607
1772025095059452400,2.148452392578125,0.3533746302127838,1.7329978942871094,-0.8257787823677063
1772025095069449500,2.158449462890625,0.215155228972435,1.830936312675476,-0.6045199036598206
1772025095079446500,2.168446533203125,0.07972843199968338,1.7626802921295166,-0.29702600836753845
1772025095089443300,2.178443359375,-0.009784800000488758,1.5856157541275024,0.04300019517540932
1772025095099440600,2.188440673828125,-0.051662739366292953,1.3444201946258545,0.3798397183418274
1772025095109437400,2.1984375,-0.0705297514796257,1.0396394729614258,0.6652028560638428
1772025095119434200,2.208434326171875,-0.0675070658326149,0.6923037171363831,0.8867024779319763
1772025095129431600,2.218431640625,-0.029171541333198547,0.3088463544845581,1.0495843887329102
1772025095139428400,2.228428466796875,0.0013413612032309175,-0.03724314644932747,1.1498974561691284
1772025095149425400,2.23842529296875,-0.00539179053157568,-0.29617223143577576,1.1749746799468994
1772025095159423500,2.248423583984375,-0.06357626616954803,-0.46971046924591064,1.12465238571167
1772025095169420500,2.258420654296875,-0.1336984783411026,-0.5480531454086304,0.9960116744041443
1772025095179417300,2.268417236328125,-0.18250276148319244,-0.5179056525230408,0.7969105839729309
1772025095189414400,2.278414306640625,-0.20115859806537628,-0.3528194725513458,0.514421820640564
1772025095199411500,2.288411376953125,-0.23503480851650238,-0.1432207226753235,0.21581490337848663
1772025095209408500,2.298408447265625,-0.31325945258140564,-0.02938038483262062,-0.06755201518535614
1772025095219405300,2.3084052734375,-0.4616403877735138,0.04913066700100899,-0.24615904688835144
1772025095229402600,2.318402587890625,-0.549706220626831,0.06263790279626846,-0.34093329310417175
1772025095239399400,2.3283994140625,-0.498794823884964,0.207301065325737,-0.4058595597743988
1772025095249396500,2.338396484375,-0.38268741965293884,0.7314801216125488,-0.2858312726020813
1772025095259393500,2.3483935546875,-0.22498194873332977,1.0946199893951416,0.008977731689810753
1772025095269391600,2.3583916015625,-0.08878614753484726,0.9585561752319336,0.23850658535957336
1772025095279388400,2.368388427734375,-0.11020461469888687,0.641286313533783,0.19543421268463135
1772025095289385500,2.378385498046875,-0.19821837544441223,0.2798789441585541,-0.08091534674167633
1772025095299382500,2.388382568359375,-0.11679568141698837,0.11626418679952621,-0.45609694719314575
1772025095309379600,2.398379638671875,0.06868376582860947,0.4043722152709961,-0.7745884656906128
1772025095319376400,2.40837646484375,0.1494465172290802,0.7224026918411255,-1.0235724449157715
1772025095329373400,2.41837353515625,0.09071863442659378,0.7854057550430298,-1.3237289190292358
1772025095339370500,2.42837060546875,0.04262274503707886,0.8014039397239685,-1.651273488998413
1772025095349367300,2.4383671875,0.0905628502368927,0.8487721085548401,-1.926997184753418
1772025095359364600,2.448364501953125,0.20352455973625183,0.6886059045791626,-2.0929923057556152
1772025095369361400,2.458361328125,0.31557387113571167,0.2143375128507614,-2.0991499423980713
1772025095379358500,2.4683583984375,0.39061135053634644,-0.4519960284233093,-1.8794307708740234
1772025095389356300,2.478356201171875,0.4156794250011444,-1.189832329750061,-1.444626808166504
1772025095399353600,2.488353515625,0.3477365970611572,-1.8822402954101562,-0.8720796704292297
1772025095409350400,2.498350341796875,0.20392698049545288,-2.4305150508880615,-0.25656643509864807
1772025095419347500,2.508347412109375,0.024948714300990105,-2.7157044410705566,0.26903799176216125
1772025095429344500,2.518344482421875,-0.13387666642665863,-2.652941942214966,0.6025230288505554
1772025095439341600,2.528341552734375,-0.234379842877388,-2.213564872741699,0.6786140203475952
1772025095449338400,2.53833837890625,-0.23879456520080566,-1.4329396486282349,0.5066906213760376
1772025095459335700,2.548335693359375,-0.1812252700328827,-0.3885205090045929,0.16535407304763794
1772025095469332500,2.55833251953125,-0.09608905762434006,0.7148727178573608,-0.20298121869564056
1772025095479329500,2.56832958984375,0.009112725965678692,1.6481877565383911,-0.4630892276763916
1772025095489326600,2.57832666015625,0.1240311786532402,2.2907814979553223,-0.5222282409667969
1772025095499323400,2.588323486328125,0.20379525423049927,2.5814788341522217,-0.37888145446777344
1772025095509321500,2.598321533203125,0.24568890035152435,2.494605779647827,-0.06877007335424423
1772025095519318500,2.608318603515625,0.2500245273113251,2.105006217956543,0.34620848298072815
1772025095529315600,2.618315673828125,0.22177757322788239,1.5280261039733887,0.8087521195411682
1772025095539312400,2.6283125,0.18239927291870117,0.8455401659011841,1.2488540410995483
1772025095549309400,2.638309326171875,0.15175214409828186,0.1520378738641739,1.6120517253875732
1772025095559306500,2.648306396484375,0.1439938247203827,-0.4816184341907501,1.871320366859436
1772025095569303600,2.658303466796875,0.13141067326068878,-1.0039340257644653,2.010774612426758
1772025095579300400,2.66830029296875,0.09575734287500381,-1.3458894491195679,2.019789695739746
1772025095589296600,2.678296630859375,0.03165929764509201,-1.4677437543869019,1.887047529220581
1772025095599293400,2.68829345703125,-0.04975060746073723,-1.3826009035110474,1.637894868850708
1772025095609290200,2.698290283203125,-0.1270175725221634,-1.1592905521392822,1.3136500120162964
1772025095619288300,2.708288330078125,-0.21060992777347565,-0.7999347448348999,0.9615706205368042
1772025095629285600,2.71828564453125,-0.28734955191612244,-0.3587057590484619,0.6139135956764221
1772025095639282400,2.728282470703125,-0.3330501914024353,0.05630446970462799,0.3005375862121582
1772025095649279200,2.738279296875,-0.34508663415908813,0.38585567474365234,0.02648301236331463
1772025095659276500,2.748276611328125,-0.35459864139556885,0.6055246591567993,-0.19081762433052063
1772025095669273300,2.7582734375,-0.3608144521713257,0.6572725176811218,-0.3329645097255707
1772025095679270400,2.7682705078125,-0.33842071890830994,0.4801979064941406,-0.4050573408603668
1772025095689267500,2.778267333984375,-0.27319395542144775,0.1859593689441681,-0.41615042090415955
1772025095699264500,2.788264404296875,-0.11329428851604462,0.004709418397396803,-0.41787800192832947
1772025095709261300,2.79826123046875,0.2090764343738556,0.04851532354950905,-0.5013357996940613
1772025095719258600,2.808258544921875,0.6391854882240295,0.17349080741405487,-0.6930487751960754
1772025095729255400,2.81825537109375,0.932013213634491,0.020221929997205734,-1.0208756923675537
1772025095739252500,2.82825244140625,0.9521983861923218,-0.28427058458328247,-1.3941696882247925
1772025095749250300,2.838250244140625,0.8973125219345093,-0.5652356147766113,-1.7021199464797974
1772025095759247600,2.84824755859375,0.8740503191947937,-0.37086132168769836,-1.8695478439331055
1772025095769244400,2.858244384765625,0.7849141359329224,0.28033366799354553,-1.8716380596160889
1772025095779241500,2.868241455078125,0.55959153175354,0.76129150390625,-1.832477331161499
1772025095789238500,2.878238525390625,0.2497788667678833,0.9689799547195435,-1.8882297277450562
1772025095799235600,2.888235595703125,0.027061350643634796,1.099057674407959,-1.9859226942062378
1772025095809232400,2.898232421875,-0.05583552271127701,1.0797010660171509,-2.0415291786193848
1772025095819229400,2.9082294921875,-0.06236585974693298,0.8029690384864807,-2.022589921951294
1772025095829226500,2.9182265625,-0.019435442984104156,0.42281264066696167,-1.904416561126709
1772025095839223300,2.928223388671875,0.030392032116651535,0.0717741847038269,-1.6724307537078857
1772025095849220600,2.938220703125,0.0460548922419548,-0.19419847428798676,-1.2990097999572754
1772025095859217400,2.948217529296875,0.03531515970826149,-0.38941723108291626,-0.8176414966583252
1772025095869215500,2.958215576171875,0.033504076302051544,-0.5268547534942627,-0.2877432405948639
1772025095879212300,2.96821240234375,0.05400242656469345,-0.628082275390625,0.2294037640094757
1772025095889209600,2.978209716796875,0.091338612139225,-0.6639885306358337,0.6664443612098694
1772025095899206400,2.988206298828125,0.1386944055557251,-0.6256731152534485,0.9732229113578796
1772025095909203500,2.998203369140625,0.15994802117347717,-0.45383962988853455,1.142423391342163
1772025095919200500,3.008200439453125,0.1641680747270584,-0.16386613249778748,1.166929841041565
1772025095929197600,3.018197509765625,0.17903131246566772,0.22806435823440552,1.1139614582061768
1772025095939194400,3.0281943359375,0.23480242490768433,0.6721962690353394,1.0631389617919922
1772025095949191700,3.038191650390625,0.32413244247436523,1.1090301275253296,1.0748722553253174
1772025095959188500,3.0481884765625,0.387508749961853,1.468419075012207,1.1533390283584595
1772025095969185300,3.058185302734375,0.3901815116405487,1.6475778818130493,1.299853801727295
1772025095979182600,3.0681826171875,0.34578609466552734,1.602104902267456,1.511592984199524
1772025095989180700,3.0781806640625,0.25630292296409607,1.3449552059173584,1.782317042350769
1772025095999177500,3.088177490234375,0.1313071995973587,0.8828813433647156,2.078254222869873
1772025096009174500,3.098174560546875,-0.019005071371793747,0.26937878131866455,2.353580951690674
1772025096019171600,3.108171630859375,-0.18684761226177216,-0.4081762433052063,2.558387041091919
1772025096029168400,3.11816845703125,-0.33519431948661804,-1.0257724523544312,2.6415982246398926
1772025096039165400,3.12816552734375,-0.4471365511417389,-1.46431565284729,2.576430320739746
1772025096049162500,3.13816259765625,-0.49201110005378723,-1.6453773975372314,2.384690523147583
1772025096059159600,3.14815966796875,-0.4842783510684967,-1.5998327732086182,2.089855194091797
1772025096069156400,3.15815625,-0.4446977972984314,-1.4126719236373901,1.7397884130477905
1772025096079153700,3.168153564453125,-0.38115930557250977,-1.1576886177062988,1.3747156858444214
1772025096089150500,3.178150390625,-0.3257754147052765,-0.887671947479248,1.02800452709198
1772025096099147500,3.1881474609375,-0.28994497656822205,-0.6635333895683289,0.7308087944984436
1772025096109145300,3.198145263671875,-0.27017536759376526,-0.5299509763717651,0.4677627980709076
1772025096119142700,3.208142578125,-0.2858981490135193,-0.4951895475387573,0.2216814011335373
1772025096129139500,3.218139404296875,-0.3247973322868347,-0.6011423468589783,-0.021122317761182785
1772025096139136500,3.228136474609375,-0.3092503547668457,-0.8370046615600586,-0.23415762186050415
1772025096149133600,3.238133544921875,-0.2387923002243042,-1.069935917854309,-0.3739885687828064
1772025096159130600,3.248130615234375,-0.07704467326402664,-1.1970502138137817,-0.3646624684333801
1772025096169127400,3.25812744140625,0.25065797567367554,-1.0690433979034424,-0.07556651532649994
1772025096179124500,3.26812451171875,0.6610622406005859,-0.5419774651527405,0.6635091304779053
1772025096189121500,3.27812158203125,1.0201637744903564,0.14888648688793182,1.4411823749542236
1772025096199118300,3.288118408203125,1.1726230382919312,0.7356293201446533,1.586321473121643
1772025096209115400,3.298115478515625,1.0790419578552246,1.2629766464233398,1.1654555797576904
1772025096219112400,3.308112548828125,0.8199781179428101,1.4989923238754272,0.377772718667984
1772025096229110500,3.318110595703125,0.601639986038208,1.636021614074707,-0.5184778571128845
1772025096239107300,3.328107421875,0.4099879562854767,1.4606415033340454,-1.247221827507019
1772025096249104400,3.3381044921875,0.1956636756658554,0.6893762946128845,-1.8953078985214233
1772025096259101400,3.348101318359375,0.03954066336154938,0.06310120970010757,-2.459869861602783
1772025096269098500,3.358098388671875,0.07658722996711731,-0.11300278455018997,-2.869119644165039
1772025096279095300,3.36809521484375,0.2508080303668976,0.05366501957178116,-3.020897388458252
1772025096289092600,3.378092529296875,0.41279879212379456,0.4409715533256531,-2.7487711906433105
1772025096299089400,3.38808935546875,0.46545958518981934,0.7806969285011292,-2.0574798583984375
1772025096309086500,3.39808642578125,0.3694687783718109,0.8682158589363098,-1.0817121267318726
1772025096319083500,3.40808349609375,0.12399297207593918,0.635678231716156,-0.09513476490974426
1772025096329080600,3.41808056640625,-0.22076523303985596,0.04035856947302818,0.7026349902153015
1772025096339077400,3.428077392578125,-0.6494739651679993,-0.8003606200218201,1.19917631149292
1772025096349074400,3.438074462890625,-1.0739670991897583,-1.5654964447021484,1.2588481903076172
1772025096359072500,3.448072509765625,-1.3561921119689941,-1.876569390296936,0.9018368124961853
1772025096369069600,3.458069580078125,-1.3422609567642212,-1.6296716928482056,0.3284823000431061
1772025096379066400,3.46806640625,-1.0948985815048218,-0.9287242889404297,-0.27343499660491943
1772025096389063400,3.4780634765625,-0.755168080329895,-0.025225689634680748,-0.7431254982948303
1772025096399060500,3.488060546875,-0.44268789887428284,0.8411967158317566,-1.0100327730178833
1772025096409057300,3.498057373046875,-0.22705747187137604,1.494550347328186,-1.046174168586731
1772025096419054600,3.5080546875,-0.12651915848255157,1.7672852277755737,-0.8826457262039185
1772025096429051400,3.518051513671875,-0.14148958027362823,1.6824673414230347,-0.5949286222457886
1772025096439048400,3.52804833984375,-0.24061936140060425,1.338317632675171,-0.22747203707695007
1772025096449045500,3.53804541015625,-0.3947093188762665,0.8248433470726013,0.14075592160224915
1772025096459042600,3.54804248046875,-0.5568298101425171,0.29552435874938965,0.46292251348495483
1772025096469039400,3.558039306640625,-0.6777685880661011,-0.16293928027153015,0.7231072783470154
1772025096479036700,3.56803662109375,-0.7299681305885315,-0.5142552256584167,0.9304248094558716
1772025096489034500,3.578034423828125,-0.7128622531890869,-0.7434104681015015,1.0935982465744019
1772025096499031600,3.588031494140625,-0.6328507661819458,-0.830111026763916,1.2140405178070068
1772025096509028400,3.5980283203125,-0.5290022492408752,-0.7598674893379211,1.2725595235824585
1772025096519025700,3.608025634765625,-0.4191274642944336,-0.5776838064193726,1.2834209203720093
1772025096529022500,3.6180224609375,-0.30404800176620483,-0.35004162788391113,1.2537137269973755
1772025096539019500,3.62801953125,-0.2065904289484024,-0.12067262828350067,1.190016508102417
1772025096549016600,3.6380166015625,-0.15326407551765442,0.09743025153875351,1.0995440483093262
1772025096559013400,3.648013427734375,-0.12945808470249176,0.3013492822647095,0.97328120470047
1772025096569010400,3.658010498046875,-0.14652042090892792,0.3920307159423828,0.8011623024940491
1772025096579007500,3.668007568359375,-0.23239459097385406,0.3842465579509735,0.5735243558883667
1772025096589004300,3.67800439453125,-0.32492130994796753,0.27892768383026123,0.3125375807285309
1772025096599001300,3.68800146484375,-0.36571961641311646,0.18844462931156158,0.028753554448485374
1772025096608998400,3.697998291015625,-0.2822335362434387,0.16450165212154388,-0.2225031554698944
1772025096618996500,3.70799658203125,-0.01645483449101448,0.2955310344696045,-0.2955739200115204
1772025096628993300,3.7179931640625,0.3561928868293762,0.5563722848892212,-0.17602187395095825
1772025096638990300,3.727990234375,0.6437146663665771,0.7078246474266052,-0.020986750721931458
1772025096648987400,3.7379873046875,0.6997883319854736,0.6831632256507874,-0.05414324998855591
1772025096658984400,3.747984375,0.43405094742774963,0.594719648361206,-0.2576497495174408
1772025096668981200,3.757981201171875,0.014557010494172573,0.5153458714485168,-0.4317804276943207
1772025096678978300,3.767978271484375,-0.2688286304473877,0.540219783782959,-0.5725098252296448
1772025096688975400,3.777975341796875,-0.38669201731681824,0.6247890591621399,-0.741589367389679
1772025096698972200,3.78797216796875,-0.44599953293800354,0.5199012756347656,-1.0030680894851685
1772025096708969500,3.797969482421875,-0.45774155855178833,0.280215322971344,-1.357497215270996
1772025096718966300,3.80796630859375,-0.3870522081851959,0.03228835016489029,-1.6779342889785767
1772025096728963300,3.81796337890625,-0.2570742070674896,-0.2811508774757385,-1.903364896774292
1772025096738961200,3.827961181640625,-0.07696517556905746,-0.5464903712272644,-1.9286186695098877
1772025096748958500,3.83795849609375,0.16607557237148285,-0.7700434327125549,-1.7048285007476807
1772025096758955300,3.847955322265625,0.4014095067977905,-1.0171046257019043,-1.2468010187149048
1772025096768952300,3.857952392578125,0.5280634760856628,-1.2653776407241821,-0.6293297410011292
1772025096778949400,3.867949462890625,0.4665186107158661,-1.4919668436050415,0.03496706113219261
1772025096788946400,3.877946533203125,0.2705983817577362,-1.617777705192566,0.5564895272254944
1772025096798943200,3.887943115234375,0.0008872750913724303,-1.6099892854690552,0.8390913605690002
1772025096808940300,3.897940185546875,-0.262570858001709,-1.5141688585281372,0.8340715169906616
1772025096818937300,3.907937255859375,-0.39852604269981384,-1.2704640626907349,0.5768434405326843
1772025096828934100,3.91793408203125,-0.398664653301239,-0.8297966718673706,0.1642741858959198
1772025096838931200,3.92793115234375,-0.29020023345947266,-0.2917819321155548,-0.2608321011066437
1772025096848928300,3.93792822265625,-0.12195635586977005,0.23335283994674683,-0.5902277231216431
1772025096858925300,3.94792529296875,0.08287028968334198,0.669823408126831,-0.7173600792884827
1772025096868923100,3.957923095703125,0.29682493209838867,0.9763076305389404,-0.6090207099914551
1772025096878920200,3.967920166015625,0.43856608867645264,1.042237401008606,-0.32688888907432556
1772025096888917200,3.977917236328125,0.44549041986465454,0.8470176458358765,0.05950828641653061
1772025096898914300,3.987914306640625,0.34159302711486816,0.4840778410434723,0.48883169889450073
1772025096908911000,3.9979111328125,0.169350728392601,0.043134015053510666,0.8696534633636475
1772025096918908400,4.007908447265625,-0.0035946951247751713,-0.37045755982398987,1.1604341268539429
1772025096928905200,4.0179052734375,-0.1339200735092163,-0.647347629070282,1.3560000658035278
1772025096938902300,4.02790234375,-0.18931008875370026,-0.7730182409286499,1.4843002557754517
1772025096948899300,4.0378994140625,-0.1904982626438141,-0.7444291114807129,1.5333725214004517
1772025096958896400,4.047896484375,-0.12737920880317688,-0.5493912100791931,1.4840264320373535
1772025096968893200,4.05789306640625,-0.03455260396003723,-0.22777090966701508,1.3588893413543701
1772025096978890500,4.067890380859375,0.04764612764120102,0.13538998365402222,1.1787011623382568
1772025096988887300,4.07788720703125,0.09845896810293198,0.43013110756874084,0.9729525446891785
1772025096998885400,4.087885498046875,0.09746960550546646,0.6109794974327087,0.7680166959762573
1772025097008882200,4.097882080078125,0.03764103353023529,0.679013729095459,0.582648754119873
1772025097018879500,4.10787939453125,-0.09614498913288116,0.627079427242279,0.42085400223731995
1772025097028876300,4.117876220703125,-0.2783759534358978,0.4393993318080902,0.30433720350265503
1772025097038873000,4.127873046875,-0.45214933156967163,0.19696776568889618,0.23274478316307068
1772025097048870400,4.137870361328125,-0.5711944699287415,-0.004451834596693516,0.17214630544185638
1772025097058867200,4.1478671875,-0.5748230218887329,-0.06167677417397499,0.05073358491063118
1772025097068864300,4.1578642578125,-0.4118638336658478,0.3222609758377075,-0.05318276956677437
1772025097078861300,4.167861328125,-0.07443225383758545,1.0934109687805176,0.005778018850833178
1772025097088858400,4.1778583984375,0.34169015288352966,1.776186227798462,0.1647133231163025
1772025097098855200,4.187855224609375,0.5643892884254456,1.7759205102920532,0.1767934262752533
1772025097108852500,4.1978525390625,0.2970816493034363,1.165850043296814,-0.05796128138899803
1772025097118849300,4.207849365234375,-0.38564953207969666,0.5713778138160706,-0.19207647442817688
1772025097128847400,4.217847412109375,-1.0060406923294067,-0.03483527526259422,-0.19640998542308807
1772025097138844200,4.22784423828125,-1.2963998317718506,-0.30693283677101135,-0.24407337605953217
1772025097148841500,4.237841552734375,-1.2832701206207275,-0.17032849788665771,-0.3395470082759857
1772025097158838300,4.24783837890625,-1.128804087638855,-0.026016592979431152,-0.5252044796943665
1772025097168835300,4.25783544921875,-0.9040980339050293,0.052310146391391754,-0.7691712379455566
1772025097178832400,4.267832275390625,-0.5723541378974915,0.018742598593235016,-0.9757755398750305
1772025097188829400,4.277829345703125,-0.18888704478740692,-0.3114076554775238,-1.1303150653839111
1772025097198826200,4.287826171875,0.12306124716997147,-0.8421487808227539,-1.1709424257278442
1772025097208823300,4.2978232421875,0.32284465432167053,-1.4008080959320068,-0.9892802834510803
1772025097218820400,4.3078203125,0.4286661744117737,-1.8627212047576904,-0.5678169131278992
1772025097228817200,4.317817138671875,0.3599390387535095,-2.0929782390594482,0.00005719531327486038
1772025097238814500,4.327814453125,0.12880942225456238,-2.0640933513641357,0.48634961247444153
1772025097248811300,4.337811279296875,-0.1235961988568306,-1.880852460861206,0.7087206840515137
1772025097258809300,4.347809326171875,-0.25945308804512024,-1.5779037475585938,0.6063732504844666
1772025097268806100,4.35780615234375,-0.2794097661972046,-1.1778150796890259,0.24144721031188965
1772025097278803500,4.367803466796875,-0.224727600812912,-0.7354682087898254,-0.26663655042648315
1772025097288800300,4.37780029296875,-0.11444118618965149,-0.2859027683734894,-0.7614010572433472
1772025097298797300,4.38779736328125,0.015662221238017082,0.15268684923648834,-1.1167597770690918
1772025097308794400,4.39779443359375,0.1352156400680542,0.5357073545455933,-1.2716238498687744
1772025097318791400,4.40779150390625,0.2435423880815506,0.7946292161941528,-1.2113008499145508
1772025097328788200,4.417788330078125,0.3278183937072754,0.842949628829956,-0.9577689170837402
1772025097338785500,4.42778564453125,0.3798232674598694,0.6969963908195496,-0.5620743036270142
1772025097348782300,4.4377822265625,0.3865858316421509,0.45235443115234375,-0.09191399812698364
1772025097358779100,4.447779052734375,0.33984413743019104,0.13517621159553528,0.4022027850151062
1772025097368776400,4.4577763671875,0.2521425485610962,-0.2543294429779053,0.8656004071235657
1772025097378773200,4.467773193359375,0.151738703250885,-0.6836197972297668,1.2273486852645874
1772025097388771300,4.477771240234375,0.04860672354698181,-1.0536004304885864,1.4290356636047363
1772025097398768000,4.48776806640625,-0.031956564635038376,-1.2655497789382935,1.462536096572876
1772025097408765400,4.497765380859375,-0.0625271201133728,-1.288317322731018,1.3665165901184082
1772025097418762200,4.50776220703125,-0.03393356129527092,-1.1434621810913086,1.1657298803329468
1772025097428759300,4.51775927734375,0.015937458723783493,-0.8116017580032349,0.8827191591262817
1772025097438756400,4.52775634765625,0.0505598820745945,-0.3581131100654602,0.5566753149032593
1772025097448753400,4.53775341796875,0.03412925824522972,0.10696852207183838,0.24410301446914673
1772025097458750200,4.547750244140625,-0.04291092976927757,0.47032222151756287,-0.019671369343996048
1772025097468747300,4.557747314453125,-0.17459000647068024,0.652441680431366,-0.21552027761936188
1772025097478744300,4.567744384765625,-0.34106579422950745,0.6748220920562744,-0.34588921070098877
1772025097488741400,4.577741455078125,-0.48309779167175293,0.580638587474823,-0.43598222732543945
1772025097498738200,4.58773828125,-0.5429895520210266,0.39666125178337097,-0.48633167147636414
1772025097508735500,4.597735595703125,-0.44985058903694153,0.20359767973423004,-0.5489501953125
1772025097518733300,4.6077333984375,-0.16974304616451263,0.16150908172130585,-0.6198233366012573
1772025097528730400,4.61773046875,0.23805227875709534,0.34796831011772156,-0.6412138938903809
1772025097538727200,4.62772705078125,0.5940434336662292,0.5324292778968811,-0.5680360794067383
1772025097548724500,4.637724365234375,0.7277461886405945,0.37901610136032104,-0.4469517767429352
1772025097558721300,4.64772119140625,0.6108731031417847,-0.11980593949556351,-0.4773871600627899
1772025097568718000,4.657718017578125,0.3033420741558075,-0.3995574712753296,-0.6072945594787598
1772025097578715400,4.66771533203125,0.020566033199429512,-0.21620787680149078,-0.6575379967689514
1772025097588712400,4.67771240234375,-0.045748140662908554,0.45318296551704407,-0.7154884338378906
1772025097598709500,4.68770947265625,0.07052627205848694,1.357211947441101,-0.7360443472862244
1772025097608706600,4.69770654296875,0.1797395646572113,1.6601386070251465,-0.8432511687278748
1772025097618703600,4.70770361328125,0.08089449256658554,1.484438419342041,-1.1539603471755981
1772025097628700400,4.717700439453125,-0.03501959890127182,1.1601718664169312,-1.513343334197998
1772025097638697700,4.72769775390625,-0.014871185645461082,0.7513121962547302,-1.7841228246688843
1772025097648694500,4.737694580078125,0.08972260355949402,0.3408645987510681,-1.9156149625778198
1772025097658692600,4.747692626953125,0.1806059032678604,-0.10431022197008133,-1.8703292608261108
1772025097668689400,4.757689453125,0.20144927501678467,-0.5920650959014893,-1.6695311069488525
1772025097678686700,4.767686767578125,0.13447104394435883,-0.8732067346572876,-1.3206716775894165
1772025097688683500,4.77768359375,0.04256307706236839,-0.6824138760566711,-0.9326025247573853
1772025097698680600,4.7876806640625,-0.06393753737211227,-0.20674027502536774,-0.6404699683189392
1772025097708677600,4.797677734375,-0.15373213589191437,0.2907467782497406,-0.5203065872192383
1772025097718674700,4.8076748046875,-0.18702484667301178,0.7238467931747437,-0.5758917927742004
1772025097728671500,4.81767138671875,-0.13615965843200684,1.0876429080963135,-0.7390726804733276
1772025097738668500,4.82766845703125,-0.02457055263221264,1.3401886224746704,-0.9305134415626526
1772025097748665600,4.83766552734375,0.13603191077709198,1.4979817867279053,-1.0563851594924927
1772025097758662400,4.847662353515625,0.32686150074005127,1.5942411422729492,-1.06540846824646
1772025097768659700,4.85765966796875,0.519575297832489,1.606318473815918,-0.9299015998840332
1772025097778656500,4.867656494140625,0.6887310147285461,1.5141490697860718,-0.6633479595184326
1772025097788654600,4.877654541015625,0.798316240310669,1.307808518409729,-0.30790960788726807
1772025097798651400,4.8876513671875,0.8392682075500488,0.9870906472206116,0.10654056817293167
1772025097808648700,4.897648681640625,0.792526125907898,0.5789621472358704,0.5371713638305664
1772025097818645500,4.9076455078125,0.670810878276825,0.10482169687747955,0.9553779363632202
1772025097828642600,4.917642578125,0.5075076222419739,-0.3977676033973694,1.3153568506240845
1772025097838639600,4.9276396484375,0.34734535217285156,-0.8570049405097961,1.597393274307251
1772025097848636700,4.93763671875,0.2188563495874405,-1.1962262392044067,1.7722276449203491
1772025097858633500,4.947633544921875,0.11790071427822113,-1.3619781732559204,1.8214426040649414
1772025097868630500,4.957630615234375,0.05199173465371132,-1.3414592742919922,1.7475191354751587
1772025097878627600,4.967627685546875,0.02960120514035225,-1.1694939136505127,1.5623106956481934
1772025097888624600,4.977624755859375,0.040701791644096375,-0.868248462677002,1.2830229997634888
1772025097898621400,4.987621337890625,0.04789046198129654,-0.47664016485214233,0.946849524974823
1772025097908618500,4.997618408203125,0.03600650653243065,-0.05583877116441727,0.6186580061912537
1772025097918616600,5.007616455078125,0.018358537927269936,0.3381016254425049,0.3265449106693268
1772025097928613600,5.017613525390625,-0.025423165410757065,0.6510273814201355,0.07873904705047607
1772025097938610400,5.0276103515625,-0.09330234676599503,0.8347258567810059,-0.14571404457092285
1772025097948607500,5.037607421875,-0.18572787940502167,0.8971344828605652,-0.27949821949005127
1772025097958604500,5.0476044921875,-0.26457688212394714,0.8422771096229553,-0.31979531049728394
1772025097968601300,5.057601318359375,-0.3193887174129486,0.7009379267692566,-0.3260783851146698
1772025097978598700,5.0675986328125,-0.34592100977897644,0.5400403738021851,-0.3958742320537567
1772025097988595500,5.077595458984375,-0.32654333114624023,0.5234898328781128,-0.46225082874298096
1772025097998592500,5.087592529296875,-0.16495096683502197,0.5859888792037964,-0.3621812164783478
1772025098008589600,5.097589599609375,0.12008156627416611,0.4849086403846741,-0.11535279452800751
1772025098018586600,5.107586669921875,0.29531410336494446,0.060390375554561615,0.029895741492509842
1772025098028583400,5.11758349609375,0.193171888589859,-0.48657655715942383,-0.03817792609333992
1772025098038580700,5.127580810546875,-0.001926227705553174,-0.9062212705612183,-0.2277396023273468
1772025098048577500,5.13757763671875,-0.09523326903581619,-1.0100398063659668,-0.43154850602149963
1772025098058575600,5.14757568359375,-0.14882245659828186,-0.6608152389526367,-0.4385773837566376
1772025098068572400,5.157572509765625,-0.23789282143115997,-0.27418190240859985,-0.27963507175445557
1772025098078569700,5.16756982421875,-0.35626980662345886,-0.030422771349549294,-0.1699935495853424
1772025098088566500,5.17756640625,-0.4322708249092102,0.032029442489147186,-0.1659267693758011
1772025098098563600,5.1875634765625,-0.43389853835105896,-0.17100542783737183,-0.2801577150821686
1772025098108560600,5.197560546875,-0.3983815610408783,-0.6084964871406555,-0.5234379768371582
1772025098118557400,5.207557373046875,-0.3060782551765442,-1.068882942199707,-0.8306554555892944
1772025098128554500,5.217554443359375,-0.09128859639167786,-1.3238829374313354,-1.0267434120178223
1772025098138551600,5.227551513671875,0.1625593900680542,-1.3277146816253662,-1.0540698766708374
1772025098148548600,5.237548583984375,0.3005352318286896,-1.065185785293579,-0.9392713308334351
1772025098158545400,5.24754541015625,0.26584169268608093,-0.5956401228904724,-0.758548378944397
1772025098168542700,5.257542724609375,0.08713280409574509,-0.03701246529817581,-0.5853186249732971
1772025098178539500,5.26753955078125,-0.13340915739536285,0.4366365969181061,-0.4482814371585846
1772025098188537600,5.27753759765625,-0.3102703392505646,0.7358665466308594,-0.31098541617393494
1772025098198534400,5.287534423828125,-0.4119940400123596,0.9145691990852356,-0.15691755712032318
1772025098208531700,5.29753173828125,-0.39190512895584106,1.0199297666549683,0.0528823658823967
1772025098218528500,5.307528564453125,-0.2578442692756653,1.0723568201065063,0.3062576353549957
1772025098228525600,5.317525634765625,-0.030107531696558,1.0535989999771118,0.6078175902366638
1772025098238521600,5.327521484375,0.22886943817138672,0.9531445503234863,0.9209120869636536
1772025098248518400,5.337518310546875,0.4653766453266144,0.7578405141830444,1.2221649885177612
1772025098258515700,5.347515625,0.648421585559845,0.4984174370765686,1.4527193307876587
1772025098268512500,5.357512451171875,0.7724103927612305,0.2832939326763153,1.6107759475708008
1772025098278509600,5.367509521484375,0.8056053519248962,0.0896938294172287,1.6922551393508911
1772025098288506600,5.377506591796875,0.7634397149085999,-0.12140565365552902,1.6966545581817627
1772025098298503700,5.387503662109375,0.6595360040664673,-0.3238503634929657,1.638384222984314
1772025098308500500,5.39750048828125,0.5161852836608887,-0.448050320148468,1.5471683740615845
1772025098318497500,5.40749755859375,0.33977532386779785,-0.47865137457847595,1.4123469591140747
1772025098328494600,5.41749462890625,0.14715434610843658,-0.4402324855327606,1.2320669889450073
1772025098338491400,5.427491455078125,-0.02372819371521473,-0.33170974254608154,1.0067051649093628
1772025098348488400,5.437488525390625,-0.14398044347763062,-0.15402273833751678,0.7649557590484619
1772025098358486500,5.447486572265625,-0.22965380549430847,0.04988698288798332,0.5543774366378784
1772025098368483600,5.457483642578125,-0.2648906111717224,0.2438221573829651,0.3797605335712433
1772025098378480600,5.467480712890625,-0.2422015517950058,0.4099064767360687,0.2649165093898773
1772025098388477400,5.4774775390625,-0.21439066529273987,0.4785120487213135,0.20288950204849243
1772025098398474500,5.487474609375,-0.19506411254405975,0.413279265165329,0.19676609337329865
1772025098408471600,5.497471435546875,-0.1755712479352951,0.2507956326007843,0.2708752453327179
1772025098418468400,5.50746826171875,-0.16651809215545654,0.06771876662969589,0.3926698565483093
1772025098428465700,5.517465576171875,-0.15353666245937347,-0.03918303921818733,0.5432392358779907
1772025098438462500,5.52746240234375,-0.12359819561243057,-0.021151307970285416,0.6237977147102356
1772025098448459500,5.53745947265625,-0.07595863938331604,0.21353191137313843,0.5744062662124634
1772025098458456600,5.54745654296875,-0.006999282632023096,0.8009376525878906,0.4428902864456177
1772025098468453600,5.55745361328125,0.1268867552280426,1.4764801263809204,0.35541844367980957
1772025098478450400,5.567450439453125,0.34721407294273376,1.5978776216506958,0.1791350096464157
1772025098488447700,5.57744775390625,0.4806841015815735,1.010136365890503,-0.2130984663963318
1772025098498445600,5.587445556640625,0.4158952534198761,0.12860824167728424,-0.7228349447250366
1772025098508442600,5.597442626953125,0.2962503433227539,-0.6828259229660034,-1.2808513641357422
1772025098518439400,5.607439453125,0.2425903081893921,-0.8902896046638489,-1.5843256711959839
1772025098528436700,5.617436767578125,0.29815155267715454,-0.6416004300117493,-1.5050199031829834
1772025098538433500,5.62743359375,0.3861660957336426,-0.38787731528282166,-1.160597324371338
1772025098548430300,5.637430419921875,0.444449782371521,-0.2521834969520569,-0.8072981238365173
1772025098558427600,5.647427734375,0.4724105894565582,-0.2717140316963196,-0.6504680514335632
1772025098568424400,5.657424560546875,0.4275674819946289,-0.604143500328064,-0.7698561549186707
1772025098578421500,5.66742138671875,0.35834604501724243,-0.987662672996521,-1.0212647914886475
1772025098588418600,5.67741845703125,0.37123364210128784,-1.2123711109161377,-1.1671152114868164
1772025098598416100,5.687416015625,0.41786080598831177,-1.3267661333084106,-1.0474199056625366
1772025098608413000,5.697412841796875,0.4596179723739624,-1.3703770637512207,-0.6729400753974915
1772025098618410000,5.707409912109375,0.45129773020744324,-1.324424386024475,-0.17342695593833923
1772025098628407000,5.717406982421875,0.3728090524673462,-1.2200461626052856,0.32178357243537903
1772025098638404000,5.727404052734375,0.2310231477022171,-1.0836845636367798,0.7029471397399902
1772025098648402200,5.737402099609375,0.060886822640895844,-0.9020683169364929,0.9215984344482422
1772025098658399200,5.747399169921875,-0.09160791337490082,-0.5840160250663757,0.972427248954773
1772025098668396000,5.75739599609375,-0.15906645357608795,-0.09680472314357758,0.929256796836853
1772025098678393000,5.76739306640625,-0.1530437171459198,0.45391833782196045,0.8602604269981384
1772025098688390100,5.77739013671875,-0.1479974091053009,1.0110477209091187,0.8139005899429321
1772025098698387200,5.78738720703125,-0.20750707387924194,1.4983519315719604,0.8444744944572449
1772025098708384000,5.797384033203125,-0.3363761007785797,1.7319631576538086,0.9761502146720886
1772025098718381000,5.807381103515625,-0.4639519155025482,1.65811026096344,1.2080532312393188
1772025098728378000,5.817378173828125,-0.5905537009239197,1.3443883657455444,1.4847952127456665
1772025098738375200,5.827375244140625,-0.6889122128486633,0.8361935019493103,1.7375222444534302
1772025098748372000,5.8373720703125,-0.761896550655365,0.20376187562942505,1.8978203535079956
1772025098758369300,5.847369384765625,-0.8293701410293579,-0.44339028000831604,1.9374990463256836
1772025098768366000,5.857365966796875,-0.8571869730949402,-0.9715122580528259,1.8482344150543213
1772025098778363000,5.86736279296875,-0.8049468994140625,-1.2766660451889038,1.660356044769287
1772025098788361000,5.87736083984375,-0.7197902202606201,-1.3378840684890747,1.3814001083374023
1772025098798358300,5.887358154296875,-0.6326372027397156,-1.1769274473190308,1.006098985671997
1772025098808355000,5.89735498046875,-0.5653377771377563,-0.8754909634590149,0.5837255120277405
1772025098818351900,5.907351806640625,-0.5166704058647156,-0.506321132183075,0.14434361457824707
1772025098828349200,5.91734912109375,-0.49267691373825073,-0.12644976377487183,-0.254081666469574
1772025098838346000,5.927345947265625,-0.47584813833236694,0.19441160559654236,-0.561171293258667
1772025098848343000,5.937343017578125,-0.470170259475708,0.3937760591506958,-0.7394723296165466
1772025098858340000,5.947340087890625,-0.4656631350517273,0.45786502957344055,-0.8048151135444641
1772025098868337200,5.957337158203125,-0.4380544126033783,0.4461715817451477,-0.7962051033973694
1772025098878336300,5.967336181640625,-0.3646366596221924,0.4181160032749176,-0.7262781858444214
1772025098888333000,5.9773330078125,-0.22722911834716797,0.41397157311439514,-0.6346438527107239
1772025098898330000,5.987330078125,-0.0772569328546524,0.37960055470466614,-0.5817025899887085
1772025098908327200,5.9973271484375,0.0709688812494278,0.37619420886039734,-0.6001710295677185
1772025098918324000,6.007323974609375,0.19399334490299225,0.5715572834014893,-0.7275646328926086
1772025098928321000,6.017321044921875,0.3191898763179779,0.9723831415176392,-0.9369984269142151
1772025098938318000,6.027318115234375,0.45322197675704956,1.3081542253494263,-1.1813708543777466
1772025098948315100,6.037315185546875,0.5742732882499695,1.198745846748352,-1.4888516664505005
1772025098958312000,6.04731201171875,0.537623941898346,0.6121059656143188,-1.8632159233093262
1772025098968309200,6.057309326171875,0.3025225102901459,0.016430577263236046,-2.096973180770874
1772025098978306000,6.06730615234375,0.023987798020243645,-0.36927369236946106,-2.176894426345825
1772025098988303000,6.07730322265625,-0.07914217561483383,-0.021756412461400032,-2.0480704307556152
1772025098998300200,6.087300048828125,0.038884855806827545,0.7971181869506836,-1.6505640745162964
1772025099008297200,6.097297119140625,0.1801261305809021,1.4967403411865234,-1.2223211526870728
1772025099018294000,6.1072939453125,0.23978254199028015,1.9210034608840942,-0.9041160941123962
1772025099028292000,6.1172919921875,0.19152964651584625,1.8154405355453491,-0.7660834193229675
1772025099038289200,6.1272890625,-0.055519282817840576,1.217261552810669,-0.8222489356994629
1772025099048286200,6.1372861328125,-0.4391937255859375,0.5796074271202087,-1.019885778427124
1772025099058283000,6.147282958984375,-0.7135733366012573,0.2726704180240631,-1.2297405004501343
1772025099068280000,6.157280029296875,-0.7815943360328674,0.35130536556243896,-1.3451563119888306
1772025099078277000,6.167277099609375,-0.6901605725288391,0.746724009513855,-1.4001493453979492
1772025099088274000,6.17727392578125,-0.5258958339691162,1.2048492431640625,-1.479601263999939
1772025099098271200,6.187271240234375,-0.38124093413352966,1.4016081094741821,-1.5739468336105347
1772025099108268000,6.19726806640625,-0.2934862971305847,1.3124077320098877,-1.618441104888916
1772025099118265000,6.20726513671875,-0.2813659906387329,1.0232701301574707,-1.579208254814148
1772025099128262100,6.21726220703125,-0.30854088068008423,0.663688063621521,-1.461411714553833
1772025099138259200,6.22725927734375,-0.34999486804008484,0.3806220293045044,-1.288222074508667
1772025099148256000,6.237256103515625,-0.35390838980674744,0.2346682846546173,-1.0676531791687012
1772025099158253300,6.24725341796875,-0.28602999448776245,0.22416850924491882,-0.801347017288208
1772025099168251100,6.257251220703125,-0.18359188735485077,0.26439982652664185,-0.48735731840133667
1772025099178248200,6.267248291015625,-0.07299774140119553,0.19486095011234283,-0.12341611087322235
1772025099188245000,6.277244873046875,-0.0033566071651875973,-0.06896919757127762,0.2896733283996582
1772025099198242300,6.2872421875,0.01850714534521103,-0.5112350583076477,0.7360270619392395
1772025099208239000,6.297239013671875,0.019814753904938698,-1.0751917362213135,1.1575332880020142
1772025099218236200,6.307236083984375,0.04028913751244545,-1.5912550687789917,1.511845588684082
1772025099228233200,6.317233154296875,0.10939564555883408,-1.9199844598770142,1.7561253309249878
1772025099238230000,6.32722998046875,0.2153356671333313,-2.012446165084839,1.8065026998519897
1772025099248227000,6.33722705078125,0.3475308418273926,-1.8423093557357788,1.6438679695129395
1772025099258224000,6.34722412109375,0.45005136728286743,-1.4270464181900024,1.3395626544952393
1772025099268221200,6.35722119140625,0.484159916639328,-0.8521779179573059,0.9534798264503479
1772025099278218000,6.367218017578125,0.4330301582813263,-0.2709083557128906,0.5681223273277283
1772025099288215000,6.377215087890625,0.2927455008029938,0.2374221235513687,0.2111940234899521
1772025099298212000,6.387212158203125,0.09516290575265884,0.5460039377212524,-0.06761869043111801
1772025099308209200,6.397209228515625,-0.0962628498673439,0.609809160232544,-0.18877169489860535
1772025099318207000,6.40720703125,-0.21027331054210663,0.5009327530860901,-0.14052081108093262
1772025099328204000,6.4172041015625,-0.2611252963542938,0.29250961542129517,0.009565504267811775
1772025099338201000,6.427201171875,-0.2561001777648926,-0.008129860274493694,0.17858248949050903
1772025099348198100,6.4371982421875,-0.19712555408477783,-0.25142279267311096,0.3397758901119232
1772025099358195000,6.44719482421875,-0.07760979980230331,-0.32016509771347046,0.6111213564872742
1772025099368192300,6.457192138671875,0.11780709773302078,-0.25282877683639526,0.942356288433075
1772025099378189000,6.46718896484375,0.2297126054763794,-0.15711824595928192,1.1627986431121826
1772025099388185900,6.477185791015625,0.10000747442245483,0.006167953833937645,1.2167235612869263
1772025099398183200,6.48718310546875,-0.1477125734090805,0.14915600419044495,1.1430615186691284
1772025099408180000,6.497179931640625,-0.3422076404094696,0.22276806831359863,0.94129478931427
1772025099418177000,6.507177001953125,-0.45648521184921265,0.16366080939769745,0.679571807384491
1772025099428174000,6.517174072265625,-0.5678393840789795,-0.4184345602989197,0.13970084488391876
1772025099438171100,6.527171142578125,-0.7436767220497131,-0.5060666799545288,-0.5395349264144897
1772025099448168000,6.53716796875,-0.6947959065437317,0.13973066210746765,-1.0056301355361938
1772025099458165200,6.547165283203125,-0.3022709786891937,0.9223740696907043,-1.1695377826690674
1772025099468163000,6.5571630859375,0.047524817287921906,1.5934104919433594,-0.9064048528671265
1772025099478160100,6.56716015625,0.15166373550891876,1.6143008470535278,-0.46504899859428406
1772025099488157000,6.577156982421875,0.105853371322155,0.9743807315826416,-0.12452606111764908
1772025099498154200,6.587154296875,-0.05594565346837044,-0.0891323983669281,0.12801963090896606
1772025099508151000,6.597151123046875,-0.26959267258644104,-1.2630261182785034,0.27432507276535034
1772025099518148000,6.607148193359375,-0.4360296130180359,-2.069793939590454,0.4587023854255676
1772025099528145200,6.617145263671875,-0.45725858211517334,-2.526545763015747,0.7452882528305054
1772025099538142200,6.62714208984375,-0.2967871427536011,-2.6207802295684814,1.0504311323165894
1772025099548139000,6.637138916015625,-0.04057655110955238,-2.2577579021453857,1.3096519708633423
1772025099558136000,6.647135986328125,0.171559676527977,-1.684563159942627,1.401989459991455
1772025099568133000,6.657133056640625,0.3155301511287689,-1.1492406129837036,1.2631293535232544
1772025099578130000,6.6671298828125,0.4184786379337311,-0.7451502680778503,0.8627680540084839
1772025099588127200,6.677127197265625,0.46843409538269043,-0.3732583224773407,0.27921098470687866
1772025099598123300,6.687123291015625,0.43933558464050293,-0.045574456453323364,-0.313027560710907
1772025099608120300,6.697120361328125,0.33901074528694153,0.23948708176612854,-0.7549108266830444
1772025099618118400,6.707118408203125,0.22342313826084137,0.500326931476593,-0.972438633441925
1772025099628115500,6.717115478515625,0.1477745771408081,0.7767087817192078,-0.9417772889137268
1772025099638112500,6.727112548828125,0.12034375965595245,1.0243481397628784,-0.6257431507110596
1772025099648109300,6.737109375,0.12456393986940384,1.0529791116714478,-0.10688687115907669
1772025099658106400,6.7471064453125,0.12617355585098267,0.8210451602935791,0.47315549850463867
1772025099668103400,6.757103515625,0.10270550847053528,0.43657606840133667,0.9971894025802612
1772025099678100200,6.767100341796875,0.0689142569899559,-0.04632585868239403,1.406759262084961
1772025099688097500,6.77709765625,0.019495710730552673,-0.5725524425506592,1.6241652965545654
1772025099698094300,6.78709423828125,-0.05803290382027626,-0.9819636940956116,1.6252949237823486
1772025099708091400,6.79709130859375,-0.13827021420001984,-1.1641331911087036,1.4484660625457764
1772025099718088400,6.80708837890625,-0.19943717122077942,-1.0398129224777222,1.1386324167251587
1772025099728085500,6.81708544921875,-0.23409435153007507,-0.6278116703033447,0.7770093679428101
1772025099738082300,6.827082275390625,-0.22814138233661652,-0.14029927551746368,0.46843475103378296
1772025099748079600,6.83707958984375,-0.16589359939098358,0.3102729320526123,0.16829843819141388
1772025099758076400,6.847076416015625,-0.0819731205701828,0.7132395505905151,-0.07418451458215714
1772025099768074500,6.857074462890625,-0.03722589462995529,0.9008067846298218,-0.26204270124435425
1772025099778071300,6.8670712890625,-0.0529252290725708,0.8919291496276855,-0.37688806653022766
1772025099788068600,6.877068603515625,-0.11214141547679901,0.7528213858604431,-0.4010426700115204
1772025099798065400,6.8870654296875,-0.17859765887260437,0.5520755052566528,-0.34842154383659363
1772025099808062200,6.897062255859375,-0.20956183969974518,0.36824479699134827,-0.2429908961057663
1772025099818059500,6.9070595703125,-0.17150527238845825,0.2214963585138321,-0.1381177455186844
1772025099828056300,6.917056396484375,-0.10419493913650513,0.32371294498443604,-0.058279793709516525
1772025099838053400,6.927053466796875,-0.0450434684753418,0.5864982008934021,-0.0002559050917625427
1772025099848050400,6.937050537109375,0.015843190252780914,0.6476897597312927,-0.009579818695783615
1772025099858047500,6.947047607421875,0.08322729170322418,0.4126940369606018,-0.04311807453632355
1772025099868044300,6.957044189453125,0.17243385314941406,0.09220664203166962,0.08976846933364868
1772025099878041600,6.96704150390625,0.26358747482299805,-0.19387491047382355,0.3372645676136017
1772025099888038400,6.977038330078125,0.2041756808757782,-0.3148077130317688,0.4915066361427307
1772025099898035500,6.987035400390625,-0.10020632296800613,-0.3398033380508423,0.2771493196487427
1772025099908032500,6.997032470703125,-0.5437418222427368,0.04850203916430473,-0.15153950452804565
1772025099918030600,7.007030517578125,-0.7615343332290649,0.6285792589187622,-0.6340782046318054
1772025099928027400,7.01702734375,-0.6431313753128052,1.1998008489608765,-1.0422800779342651
1772025099938024400,7.0270244140625,-0.42453858256340027,1.4325631856918335,-1.208693265914917
1772025099948021500,7.037021484375,-0.30016669631004333,1.2555508613586426,-1.3070231676101685
1772025099958018600,7.0470185546875,-0.2708088159561157,0.8232599496841431,-1.4155027866363525
1772025099968015400,7.057015380859375,-0.22432494163513184,0.18314960598945618,-1.4626245498657227
1772025099978012400,7.067012451171875,-0.1457023024559021,-0.495939165353775,-1.4343279600143433
1772025099988009500,7.077009521484375,-0.09484817087650299,-1.0237423181533813,-1.2787615060806274
1772025099998006300,7.08700634765625,-0.0796111673116684,-1.4615497589111328,-0.9644060134887695
1772025100008003600,7.097003662109375,-0.13032521307468414,-1.7752436399459839,-0.5025036334991455
1772025100018000400,7.10700048828125,-0.2586967945098877,-1.8489972352981567,0.012195100076496601
1772025100027997400,7.11699755859375,-0.3767823874950409,-1.7275530099868774,0.35121285915374756
1772025100037994500,7.126994384765625,-0.3791011869907379,-1.439819574356079,0.31931057572364807
1772025100047991600,7.136991455078125,-0.2736770510673523,-0.9597761631011963,-0.11504925787448883
1772025100057988400,7.14698828125,-0.0654175728559494,-0.3482043743133545,-0.8283143639564514
1772025100067985400,7.1569853515625,0.1932230293750763,0.23857872188091278,-1.5132060050964355
1772025100077983500,7.1669833984375,0.46700239181518555,0.7041134238243103,-1.9689327478408813
1772025100087980500,7.17698046875,0.7227957248687744,1.0255391597747803,-2.08290958404541
1772025100097977300,7.186977294921875,0.8762499690055847,1.1606450080871582,-1.8151471614837646
1772025100107974700,7.196974609375,0.8990491628646851,1.007067084312439,-1.1848597526550293
1772025100117971500,7.206971435546875,0.8176836967468262,0.5504806637763977,-0.30475419759750366
1772025100127968300,7.21696826171875,0.6316941380500793,-0.0173252671957016,0.6596968770027161
1772025100137965600,7.226965576171875,0.3988390266895294,-0.5575551986694336,1.569003701210022
1772025100147962400,7.23696240234375,0.17833742499351501,-1.0040066242218018,2.345160484313965
1772025100157959400,7.24695947265625,0.0131050581112504,-1.3239201307296753,2.9030303955078125
1772025100167956500,7.25695654296875,-0.07337923347949982,-1.463876485824585,3.1729109287261963
1772025100177953500,7.26695361328125,-0.08448994159698486,-1.3624281883239746,3.1462106704711914
1772025100187950300,7.276950439453125,-0.028050892055034637,-1.0650787353515625,2.870969295501709
1772025100197947400,7.286947509765625,0.05948614701628685,-0.6395918726921082,2.4183273315429688
1772025100207944400,7.2969443359375,0.142190083861351,-0.2075340449810028,1.8560278415679932
1772025100217941500,7.30694140625,0.20943143963813782,0.09856943786144257,1.2385175228118896
1772025100227939300,7.316939208984375,0.2520831525325775,0.3267211616039276,0.6645333170890808
1772025100237936400,7.326936279296875,0.27939680218696594,0.4859720766544342,0.215178981423378
1772025100247933400,7.336933349609375,0.2967827022075653,0.5196630954742432,-0.08297866582870483
1772025100257930500,7.346930419921875,0.2979899048805237,0.44385939836502075,-0.1963997632265091
1772025100267927300,7.35692724609375,0.2723090648651123,0.3605794608592987,-0.12076599150896072
1772025100277924600,7.366924560546875,0.23662562668323517,0.29273784160614014,0.07449191808700562
1772025100287921400,7.37692138671875,0.19433729350566864,0.2677009701728821,0.2849159836769104
1772025100297918200,7.386918212890625,0.1293361783027649,0.3078734278678894,0.43526288866996765
1772025100307915500,7.39691552734375,0.0959128588438034,0.38961225748062134,0.44678232073783875
1772025100317912300,7.406912353515625,0.1270366907119751,0.390280157327652,0.3598809838294983
1772025100327909400,7.416909423828125,0.26070061326026917,0.36232131719589233,0.2721911370754242
1772025100337906400,7.426906494140625,0.4660971760749817,0.6276651620864868,0.33585453033447266
1772025100347903500,7.436903564453125,0.6643404960632324,0.7425507307052612,0.43583452701568604
1772025100357900300,7.446900390625,0.7313658595085144,0.29552263021469116,0.1826115995645523
1772025100367897600,7.456897705078125,0.6182169318199158,0.07112438976764679,-0.3429219722747803
1772025100377894400,7.466894287109375,0.4680655300617218,0.3448856472969055,-0.8415147066116333
1772025100387892500,7.476892578125,0.5403009653091431,0.8072870373725891,-1.0691800117492676
1772025100397889300,7.48688916015625,0.5900192856788635,1.3354685306549072,-0.8072823882102966
1772025100407886600,7.496886474609375,0.4684082567691803,1.362570881843567,-0.33837273716926575
1772025100417883400,7.50688330078125,0.21618106961250305,0.981261670589447,-0.07249075174331665
1772025100427880400,7.51688037109375,-0.026489609852433205,0.26563945412635803,-0.06036949157714844
1772025100437877500,7.52687744140625,-0.1797923445701599,-0.6203615069389343,-0.2167833298444748
1772025100447874600,7.53687451171875,-0.20554779469966888,-1.1524944305419922,-0.38318243622779846
1772025100457871400,7.546871337890625,-0.1302887350320816,-1.385055661201477,-0.5102895498275757
1772025100467868400,7.556868408203125,-0.01421990804374218,-1.4328669309616089,-0.6185586452484131
1772025100477865500,7.566865478515625,-0.013998066075146198,-1.097145915031433,-0.6834143400192261
1772025100487862300,7.5768623046875,-0.16781505942344666,-0.4940718412399292,-0.7181252837181091
1772025100497859600,7.586859619140625,-0.4289955198764801,-0.12810346484184265,-0.6770950555801392
1772025100507856400,7.5968564453125,-0.7059952616691589,-0.1433877795934677,-0.4785531163215637
1772025100517853400,7.606853515625,-0.8506238460540771,-0.4572479724884033,-0.15078696608543396
1772025100527850500,7.6168505859375,-0.8430610299110413,-0.8034090399742126,0.21764259040355682
1772025100537848600,7.6268486328125,-0.6893526911735535,-0.9656309485435486,0.5404094457626343
1772025100547845400,7.636845458984375,-0.41384026408195496,-0.8499321937561035,0.7219278216362
1772025100557842400,7.646842529296875,-0.10040698945522308,-0.5414515733718872,0.769290030002594
1772025100567839500,7.656839599609375,0.16908295452594757,-0.17286472022533417,0.7378036975860596
1772025100577836500,7.66683642578125,0.38002902269363403,0.15014396607875824,0.693095326423645
1772025100587833300,7.676833251953125,0.5214188694953918,0.3454217314720154,0.7150527238845825
1772025100597830700,7.68683056640625,0.5532699823379517,0.36716243624687195,0.7807388305664062
1772025100607827700,7.69682763671875,0.4683741629123688,0.25668904185295105,0.8267149329185486
1772025100617824800,7.70682470703125,0.29513874650001526,0.05461585521697998,0.8560701608657837
1772025100627821600,7.716821533203125,0.07547348737716675,-0.26882994174957275,0.8459043502807617
1772025100637818600,7.726818603515625,-0.11002100259065628,-0.6023303866386414,0.8008409738540649
1772025100647815700,7.736815673828125,-0.19432295858860016,-0.778079092502594,0.7467778325080872
1772025100657812500,7.7468125,-0.15759290754795074,-0.7408403754234314,0.7077020406723022
1772025100667809800,7.756809814453125,-0.08829227089881897,-0.5672751069068909,0.6586105823516846
1772025100677806600,7.766806640625,-0.021518835797905922,-0.2902000844478607,0.5919433832168579
1772025100687803600,7.7768037109375,0.002080367412418127,0.014203486032783985,0.4640490412712097
1772025100697801500,7.786801513671875,-0.034983109682798386,0.2467147558927536,0.278655469417572
1772025100707798800,7.796798828125,-0.11774241179227829,0.4137720465660095,0.07761868089437485
1772025100717795600,7.806795654296875,-0.24208860099315643,0.5330954790115356,-0.11564292758703232
1772025100727792600,7.816792724609375,-0.3435719609260559,0.5980698466300964,-0.2574138343334198
1772025100737789700,7.826789794921875,-0.40366804599761963,0.6695389747619629,-0.31526967883110046
1772025100747786800,7.836786865234375,-0.3941258192062378,0.7590148448944092,-0.2831704020500183
1772025100757783600,7.846783447265625,-0.32299119234085083,0.8249147534370422,-0.2023136466741562
1772025100767780900,7.85678076171875,-0.2502846419811249,0.7840917706489563,-0.12974046170711517
1772025100777777700,7.866777587890625,-0.2565896511077881,0.65237957239151,-0.07785888761281967
1772025100787774500,7.8767744140625,-0.34780362248420715,0.38800048828125,-0.07638994604349136
1772025100797771800,7.886771728515625,-0.4385356605052948,-0.09255065768957138,-0.02072881907224655
1772025100807768600,7.8967685546875,-0.39078623056411743,-0.4741508662700653,0.2581512928009033
1772025100817765600,7.906765625,-0.13173814117908478,-0.4222612977027893,0.5287409424781799
1772025100827762700,7.9167626953125,0.16024790704250336,-0.4140585958957672,0.1700519323348999
1772025100837759700,7.926759765625,0.26522281765937805,-0.0028979340568184853,-0.5100757479667664
1772025100847756500,7.936756591796875,0.18730922043323517,0.7093451619148254,-1.0960478782653809
1772025100857754600,7.946754638671875,0.13476665318012238,1.453940987586975,-1.3395962715148926
1772025100867751700,7.956751708984375,0.09463600814342499,1.811386227607727,-1.1252115964889526
1772025100877748700,7.966748779296875,-0.03813428804278374,1.4613772630691528,-0.8112754225730896
1772025100887745500,7.97674560546875,-0.2657681107521057,0.6946810483932495,-0.6540404558181763
1772025100897742800,7.986742919921875,-0.394526869058609,-0.2611572742462158,-0.6231408715248108
1772025100907739600,7.99673974609375,-0.33562561869621277,-1.0757596492767334,-0.6116273403167725
1772025100917736700,8.00673681640625,-0.21141286194324493,-1.4726502895355225,-0.5376894474029541
1772025100927733800,8.016733642578124,-0.11112993955612183,-1.6110401153564453,-0.36910295486450195
1772025100937730800,8.026730712890625,-0.07968520373106003,-1.612694501876831,-0.11879699677228928
1772025100947727600,8.0367275390625,-0.13121560215950012,-1.452142596244812,0.18277360498905182
1772025100957724700,8.046724609375,-0.26839926838874817,-1.2069463729858398,0.41970810294151306
1772025100967721700,8.0567216796875,-0.46319490671157837,-0.9727312326431274,0.4922682046890259
1772025100977718500,8.066718505859376,-0.6522415280342102,-0.8378551602363586,0.38685786724090576
1772025100987715800,8.0767158203125,-0.775464653968811,-0.8032187819480896,0.221788227558136
1772025100997712600,8.086712646484376,-0.7668479681015015,-0.7849000096321106,0.10120481997728348
1772025101007709700,8.096709716796875,-0.5971754789352417,-0.6330770254135132,0.03925963118672371
1772025101017707500,8.10670751953125,-0.3158196806907654,-0.323832631111145,0.031826749444007874
1772025101027704800,8.116704833984375,0.001253068563528359,0.033977292478084564,0.09578774869441986
1772025101037701600,8.12670166015625,0.2858451306819916,0.268635094165802,0.2504391074180603
1772025101047698700,8.13669873046875,0.48550936579704285,0.2888103127479553,0.4524075984954834
1772025101057695700,8.14669580078125,0.5928195714950562,0.17106345295906067,0.6470388174057007
1772025101067692800,8.15669287109375,0.6168864369392395,-0.012152008712291718,0.8076087236404419
1772025101077689600,8.166689697265625,0.5592159628868103,-0.25847285985946655,0.8893176913261414
1772025101087686700,8.176686767578126,0.45873767137527466,-0.49734237790107727,0.9004519581794739
1772025101097683700,8.18668359375,0.39367133378982544,-0.6771888732910156,0.8851092457771301
1772025101107680800,8.1966806640625,0.3601064383983612,-0.7514944076538086,0.8713538646697998
1772025101117677600,8.206677490234375,0.3103333115577698,-0.7279632091522217,0.8290623426437378
1772025101127674600,8.216674560546876,0.23223130404949188,-0.5948624610900879,0.7064655423164368
1772025101137671700,8.226671630859375,0.13155315816402435,-0.36240634322166443,0.5244696736335754
1772025101147668500,8.23666845703125,0.025416593998670578,-0.08704321831464767,0.28640463948249817
1772025101157665800,8.246665771484375,-0.07577207684516907,0.21178023517131805,0.03098059445619583
1772025101167662600,8.25666259765625,-0.1561831831932068,0.5031046271324158,-0.21730051934719086
1772025101177660700,8.26666064453125,-0.21429841220378876,0.73172527551651,-0.4194839894771576
1772025101187657500,8.276657470703125,-0.25887516140937805,0.8631349205970764,-0.5601663589477539
1772025101197654800,8.28665478515625,-0.2681832015514374,0.9019328951835632,-0.6015627980232239
1772025101207651600,8.296651611328125,-0.2557579576969147,0.8575476408004761,-0.5458253026008606
1772025101217648600,8.306648681640626,-0.21843108534812927,0.7496616244316101,-0.4029594659805298
1772025101227645700,8.316645751953125,-0.17327387630939484,0.5553588271141052,-0.23763860762119293
1772025101237642800,8.326642822265624,-0.12511245906352997,0.3822568655014038,-0.12307662516832352
1772025101247639600,8.3366396484375,-0.12276595085859299,0.2962772846221924,-0.03258133679628372
1772025101257636900,8.346636962890624,-0.0933699756860733,0.29071712493896484,0.07208861410617828
1772025101267633700,8.356633544921875,0.07189182937145233,0.2615894675254822,0.19282323122024536
1772025101277630500,8.36663037109375,0.314435750246048,0.09552991390228271,0.20077729225158691
1772025101287627800,8.376627685546875,0.46612101793289185,-0.3026108741760254,-0.1182662844657898
1772025101297624600,8.38662451171875,0.3992234766483307,-0.6328638792037964,-0.7217084765434265
1772025101307621600,8.39662158203125,0.266499400138855,-0.5949881076812744,-1.1719114780426025
1772025101317618700,8.40661865234375,0.3283052444458008,-0.2960631847381592,-1.450275182723999
1772025101327615700,8.41661572265625,0.5361628532409668,0.3612910211086273,-1.3869726657867432
1772025101337612500,8.426612548828125,0.6559486389160156,0.9458926916122437,-1.086907982826233
1772025101347610600,8.436610595703126,0.6046590209007263,1.0596851110458374,-0.8295899033546448
1772025101357607700,8.446607666015625,0.4345746636390686,0.6476408839225769,-0.6616005897521973
1772025101367604700,8.456604736328124,0.12246523797512054,-0.3276580572128296,-0.6279430389404297
1772025101377601500,8.4666015625,-0.24278730154037476,-1.4118276834487915,-0.6489884257316589
1772025101387598800,8.476598876953124,-0.46852535009384155,-2.109602451324463,-0.5042057037353516
1772025101397595600,8.486595703125,-0.5254514813423157,-2.3549084663391113,-0.2117258757352829
1772025101407592700,8.4965927734375,-0.5143972635269165,-1.9917408227920532,0.07036494463682175
1772025101417589800,8.50658984375,-0.45151281356811523,-1.2689684629440308,0.23616190254688263
1772025101427586800,8.5165869140625,-0.2889045774936676,-0.5300064086914062,0.21484415233135223
1772025101437583600,8.52658349609375,-0.07133419811725616,0.1237863227725029,0.004703173879534006
1772025101447580700,8.53658056640625,0.1783241182565689,0.5474790334701538,-0.27121561765670776
1772025101457577700,8.54657763671875,0.34482496976852417,0.7770339250564575,-0.5020008683204651
1772025101467574500,8.556574462890625,0.387548565864563,0.8517862558364868,-0.6121134757995605
1772025101477571800,8.56657177734375,0.35850653052330017,0.8833633661270142,-0.5601229667663574
1772025101487568600,8.576568603515625,0.29760655760765076,0.9054813385009766,-0.35441863536834717
1772025101497565700,8.586565673828124,0.247155100107193,0.9129706621170044,-0.036056097596883774
1772025101507562800,8.596562744140625,0.2350224107503891,0.9183377623558044,0.3225434124469757
1772025101517560800,8.606560791015625,0.24395759403705597,0.9380536675453186,0.6711142063140869
1772025101527557600,8.6165576171875,0.26026612520217896,0.8627393841743469,0.995190441608429
1772025101537554700,8.6265546875,0.25269049406051636,0.6818451881408691,1.2802109718322754
1772025101547551700,8.6365517578125,0.21099896728992462,0.4222717583179474,1.489506721496582
1772025101557548800,8.646548828125,0.14426174759864807,0.10439445078372955,1.5912692546844482
1772025101567545600,8.656545654296876,0.06040814146399498,-0.23234589397907257,1.585916519165039
1772025101577542700,8.666542724609375,-0.034003846347332,-0.493141233921051,1.4974300861358643
1772025101587539700,8.676539794921876,-0.10422462970018387,-0.6141533851623535,1.3597644567489624
1772025101597536800,8.686536865234375,-0.12399274110794067,-0.5561801195144653,1.1726248264312744
1772025101607533600,8.696533447265624,-0.10606274008750916,-0.330233097076416,0.9407327175140381
1772025101617531000,8.70653076171875,-0.07954857498407364,-0.03379502892494202,0.6746912002563477
1772025101627527700,8.716527587890624,-0.07477964460849762,0.2439432442188263,0.4097554087638855
1772025101637524700,8.726524658203125,-0.10450424998998642,0.45573750138282776,0.16529107093811035
1772025101647521800,8.736521728515624,-0.14070247113704681,0.5891503095626831,-0.05215231329202652
1772025101657518800,8.746518798828125,-0.13556070625782013,0.6585429310798645,-0.21531513333320618
1772025101667515600,8.756515625,-0.0762847289443016,0.6819998025894165,-0.2782226502895355
1772025101677513000,8.766512939453126,0.016995681449770927,0.6573344469070435,-0.2207162231206894
1772025101687510800,8.7765107421875,0.09928029775619507,0.5761815309524536,-0.06872888654470444
1772025101697507800,8.7865078125,0.15910260379314423,0.380246639251709,0.12663313746452332
1772025101707504600,8.796504638671875,0.16834430396556854,0.04051441699266434,0.35527631640434265
1772025101717502000,8.806501953125,0.0148431695997715,-0.32559487223625183,0.5755431652069092
1772025101727498800,8.816498779296875,-0.2294231504201889,-0.56096351146698,0.7413730621337891
1772025101737495800,8.826495849609374,-0.3846937119960785,-0.45212969183921814,0.8455660343170166
1772025101747492900,8.836492919921875,-0.4019879698753357,0.1509367823600769,0.7211263179779053
1772025101757490000,8.846489990234375,-0.28708189725875854,0.7745321393013,0.20899322628974915
1772025101767486700,8.85648681640625,-0.12056179344654083,1.1851013898849487,-0.3744199573993683
1772025101777483800,8.86648388671875,-0.021991809830069542,1.3870660066604614,-0.8242740035057068
1772025101787480800,8.876480712890626,0.017247479408979416,1.5160454511642456,-1.0802302360534668
1772025101797477600,8.8864775390625,0.12155178189277649,1.599489688873291,-0.8096397519111633
1772025101807475000,8.896474853515626,0.15138012170791626,1.2205631732940674,-0.22727079689502716
1772025101817471700,8.9064716796875,0.009511132724583149,0.5172300338745117,0.26258784532546997
1772025101827468800,8.91646875,-0.12785272300243378,-0.2609623968601227,0.5739571452140808
1772025101837465900,8.9264658203125,-0.19639955461025238,-1.1039952039718628,0.695433497428894
1772025101847464000,8.9364638671875,-0.25807133316993713,-1.8561536073684692,0.6250656843185425
1772025101857460700,8.946460693359375,-0.2611616551876068,-2.2851181030273438,0.4338943362236023
1772025101867457800,8.956457763671875,-0.13300618529319763,-2.3861842155456543,0.29112011194229126
1772025101877454800,8.966454833984375,0.0006759692914783955,-2.16717529296875,0.21974073350429535
1772025101887452000,8.976451904296875,0.012426227331161499,-1.6720339059829712,0.05107147991657257
1772025101897448700,8.98644873046875,-0.062039218842983246,-0.982111930847168,-0.3180466294288635
1772025101907446000,8.996446044921875,-0.13656632602214813,-0.2913743257522583,-0.7702076435089111
1772025101917442800,9.00644287109375,-0.22242531180381775,0.23847968876361847,-1.1314303874969482
1772025101927439600,9.016439697265625,-0.3465300500392914,0.559537410736084,-1.3238558769226074
1772025101937437000,9.02643701171875,-0.42444297671318054,0.7074496150016785,-1.295198678970337
1772025101947433700,9.036433837890625,-0.43221741914749146,0.7863146066665649,-1.0675036907196045
1772025101957430800,9.0464306640625,-0.3188876807689667,0.8639643788337708,-0.6992492079734802
1772025101967427800,9.056427734375,-0.08587585389614105,0.9591706991195679,-0.22138509154319763
1772025101977425000,9.0664248046875,0.1592119336128235,1.018824815750122,0.2932548224925995
1772025101987421700,9.076421630859375,0.31426769495010376,0.9509811997413635,0.7620110511779785
1772025101997419000,9.0864189453125,0.36432260274887085,0.7589609026908875,1.1230247020721436
1772025102007415800,9.096415771484375,0.31915342807769775,0.477578341960907,1.3839174509048462
1772025102017412900,9.106412841796875,0.23535625636577606,0.15348707139492035,1.5406023263931274
1772025102027410700,9.11641064453125,0.165036141872406,-0.20115235447883606,1.5640332698822021
1772025102037408000,9.126407958984375,0.1347096562385559,-0.47774186730384827,1.4736566543579102
1772025102047404800,9.13640478515625,0.1411244124174118,-0.6077530980110168,1.2985984086990356
1772025102057401900,9.14640185546875,0.17392976582050323,-0.5963864922523499,1.0978202819824219
1772025102067399000,9.15639892578125,0.20120812952518463,-0.481913685798645,0.8962361812591553
1772025102077396000,9.16639599609375,0.2023804485797882,-0.3482392430305481,0.6922028660774231
1772025102087392800,9.176392822265624,0.152443528175354,-0.22982658445835114,0.49362772703170776
1772025102097389800,9.186389892578125,0.04794028401374817,-0.12372277677059174,0.29332393407821655
1772025102107387000,9.196386962890625,-0.08399644494056702,-0.05261275917291641,0.09905632585287094
1772025102117383700,9.2063837890625,-0.19605880975723267,0.01762837916612625,-0.06488361209630966
1772025102127380700,9.216380615234375,-0.297797292470932,0.12994976341724396,-0.1975112408399582
1772025102137377800,9.226377685546876,-0.34995555877685547,0.3021468222141266,-0.30606675148010254
1772025102147374800,9.236374755859375,-0.32009127736091614,0.5293869972229004,-0.3757678270339966
1772025102157371600,9.24637158203125,-0.22264938056468964,0.7850448489189148,-0.40916094183921814
1772025102167369000,9.256368896484375,-0.14442092180252075,0.9874847531318665,-0.37659797072410583
1772025102177365800,9.26636572265625,-0.11159053444862366,1.0796685218811035,-0.25062671303749084
1772025102187362800,9.27636279296875,-0.18040980398654938,0.9400186538696289,0.009984761476516724
1772025102197360600,9.286360595703124,-0.41475439071655273,0.5187891125679016,0.3667899966239929
1772025102207358000,9.29635791015625,-0.6110847592353821,0.0264432430267334,0.661057710647583
1772025102217354800,9.306354736328124,-0.43975669145584106,-0.22385527193546295,0.7821599245071411
1772025102227351800,9.316351806640625,-0.05209418386220932,-0.3715776801109314,0.41111260652542114
1772025102237347800,9.326347900390624,0.22599495947360992,-0.24853776395320892,-0.5231930017471313
1772025102247344600,9.3363447265625,0.2970483899116516,0.2697448134422302,-1.650580883026123
1772025102257342000,9.346342041015625,0.2737145721912384,0.94983971118927,-2.63588285446167
1772025102267338800,9.3563388671875,0.23974578082561493,1.7998507022857666,-2.9240634441375732
1772025102277335800,9.366335693359375,0.17705470323562622,2.0981805324554443,-2.552123785018921
1772025102287332900,9.376332763671876,0.04710790142416954,1.8062602281570435,-2.036393880844116
1772025102297330000,9.386329833984375,-0.11099465191364288,1.137338399887085,-1.6720812320709229
1772025102307326700,9.39632666015625,-0.23269273340702057,0.14606793224811554,-1.464154839515686
1772025102317324000,9.406323974609375,-0.22564680874347687,-0.9099089503288269,-1.3942610025405884
1772025102327320800,9.41632080078125,-0.2165403813123703,-1.6192653179168701,-1.4128278493881226
1772025102337317600,9.426317626953125,-0.3553331196308136,-1.889832615852356,-1.4036279916763306
1772025102347315000,9.43631494140625,-0.5187069177627563,-1.6506927013397217,-1.3363176584243774
1772025102357311700,9.446311767578125,-0.6306507587432861,-1.0544133186340332,-1.2212752103805542
1772025102367308800,9.456308837890624,-0.6951411962509155,-0.49632900953292847,-1.0348414182662964
1772025102377305900,9.466305908203125,-0.6767634749412537,-0.17336800694465637,-0.8564016222953796
1772025102387303000,9.476302978515625,-0.5829505920410156,-0.14680765569210052,-0.7066226005554199
1772025102397299700,9.4862998046875,-0.4678775668144226,-0.34869685769081116,-0.5686719417572021
1772025102407297800,9.4962978515625,-0.3716840445995331,-0.4869239032268524,-0.45866599678993225
1772025102417294800,9.506294921875,-0.2384684532880783,-0.36549681425094604,-0.32999297976493835
1772025102427292000,9.5162919921875,-0.07152658700942993,-0.06992930918931961,-0.1324179768562317
1772025102437288700,9.526288818359374,0.13873983919620514,0.3147057294845581,0.14902567863464355
1772025102447286000,9.5362861328125,0.34750261902809143,0.6484436988830566,0.5068677067756653
1772025102457282800,9.54628271484375,0.4717705249786377,0.7379277944564819,0.9155492186546326
1772025102467280000,9.55627978515625,0.5147298574447632,0.5802505016326904,1.270274043083191
1772025102477277000,9.56627685546875,0.4979444742202759,0.19635823369026184,1.5375699996948242
1772025102487273700,9.576273681640625,0.42534974217414856,-0.23627710342407227,1.7072174549102783
1772025102497270800,9.586270751953125,0.3595547676086426,-0.5495638847351074,1.7376211881637573
1772025102507267800,9.596267822265625,0.3520554304122925,-0.7083340883255005,1.654786467552185
1772025102517265000,9.606264892578125,0.372823566198349,-0.7107200026512146,1.4732882976531982
1772025102527261700,9.61626171875,0.39827391505241394,-0.5511775016784668,1.2191349267959595
1772025102537258800,9.6262587890625,0.3774022161960602,-0.3035557270050049,0.9310892820358276
1772025102547255800,9.636255859375,0.2880841791629791,-0.1068272590637207,0.630905032157898
1772025102557252900,9.6462529296875,0.17116793990135193,0.022034313529729843,0.3401126265525818
1772025102567249700,9.656249755859376,0.05891304463148117,0.14037446677684784,0.09267419576644897
1772025102577247000,9.6662470703125,-0.023902472108602524,0.22958903014659882,-0.0796927809715271
1772025102587244800,9.676244873046874,-0.08635453879833221,0.25766634941101074,-0.17687253654003143
1772025102597241600,9.68624169921875,-0.14780378341674805,0.259441077709198,-0.20676518976688385
1772025102607238700,9.69623876953125,-0.1973540335893631,0.296541303396225,-0.1624392569065094
1772025102617235700,9.706235595703125,-0.2229083925485611,0.32861268520355225,-0.07570010423660278
1772025102627232800,9.716232666015625,-0.2514706552028656,0.36949777603149414,0.03002745658159256
1772025102637229600,9.7262294921875,-0.29938066005706787,0.36137673258781433,0.15316776931285858
1772025102647226600,9.7362265625,-0.31286290287971497,0.18429234623908997,0.17927193641662598
1772025102657223700,9.7462236328125,-0.22063179314136505,-0.019762512296438217,0.016356250271201134
1772025102667220500,9.756220458984375,-0.009029911831021309,-0.18510565161705017,-0.23260129988193512
1772025102677217800,9.7662177734375,0.2916806638240814,-0.32515808939933777,-0.43541407585144043
1772025102687214600,9.776214599609375,0.6098495125770569,-0.48845186829566956,-0.5351837873458862
1772025102697211600,9.786211669921874,0.8037228584289551,-0.48415058851242065,-0.695102334022522
1772025102707208700,9.796208740234375,0.7343800663948059,-0.3291747570037842,-1.1005736589431763
1772025102717205800,9.806205810546874,0.4009469151496887,0.032884929329156876,-1.5615234375
1772025102727202600,9.81620263671875,-0.0142137436196208,0.7520372271537781,-1.99274480342865
1772025102737199900,9.826199951171875,-0.22915907204151154,1.5724210739135742,-2.161072254180908
1772025102747196700,9.83619677734375,-0.19021795690059662,2.203782320022583,-1.8596454858779907
1772025102757193500,9.846193359375,-0.13829217851161957,2.253617763519287,-1.396309733390808
1772025102767191600,9.856191650390626,-0.320928156375885,1.71611750125885,-1.0901618003845215
1772025102777188900,9.86618896484375,-0.6271868944168091,1.0074455738067627,-0.9322683215141296
1772025102787185700,9.876185546875,-0.8477640151977539,0.0012110898969694972,-0.8863389492034912
1772025102797182700,9.8861826171875,-0.9539772868156433,-0.751555323600769,-0.9446661472320557
1772025102807179800,9.8961796875,-0.975921630859375,-0.9721179604530334,-1.0438377857208252
1772025102817176600,9.906176513671875,-0.8991802930831909,-0.8000266551971436,-1.1502206325531006
1772025102827173600,9.916173583984374,-0.816677451133728,-0.3122032582759857,-1.1475754976272583
1772025102837170700,9.926170654296875,-0.7672132253646851,0.2938418984413147,-1.0017484426498413
1772025102847167700,9.936167724609374,-0.70558100938797,0.5620931386947632,-0.7172648310661316
1772025102857165600,9.94616552734375,-0.6169851422309875,0.41570425033569336,-0.44061827659606934
1772025102867162600,9.95616259765625,-0.4775647819042206,-0.0066885012201964855,-0.2378801554441452
1772025102877159700,9.96615966796875,-0.2913062274456024,-0.43272528052330017,-0.05765420198440552
1772025102887156700,9.97615673828125,-0.10518814623355865,-0.6882216334342957,0.08273826539516449
1772025102897153500,9.986153564453126,0.02944902516901493,-0.695147693157196,0.1463199108839035
1772025102907150800,9.99615087890625,0.15762341022491455,-0.48954617977142334,0.09955967962741852
1772025102917147600,10.006147705078124,0.298549622297287,-0.0717441514134407,-0.014796191826462746
1772025102927144700,10.016144775390625,0.4469487965106964,0.4520518183708191,-0.0665992870926857
1772025102937141800,10.026141845703124,0.572679340839386,0.8180013298988342,-0.04991991072893143
1772025102947138800,10.036138916015625,0.6363906264305115,0.8656068444252014,0.0033924493473023176
1772025102957135600,10.046135498046874,0.6072242259979248,0.5792086124420166,0.11734617501497269
1772025102967132700,10.056132568359375,0.5254939794540405,0.10937919467687607,0.2541499733924866
1772025102977129700,10.066129638671875,0.44290077686309814,-0.3664672076702118,0.3914724290370941
1772025102987126500,10.07612646484375,0.3318236470222473,-0.6596099734306335,0.5203389525413513
1772025102997123800,10.086123779296875,0.18894320726394653,-0.750207781791687,0.6234584450721741
1772025103007121700,10.09612158203125,0.10248490422964096,-0.6619458198547363,0.7056877613067627
1772025103017118700,10.10611865234375,0.04158267006278038,-0.3998343050479889,0.7062286138534546
1772025103027115500,10.116115478515624,-0.043787769973278046,-0.1256825476884842,0.5735470652580261
1772025103037112800,10.12611279296875,-0.11412451416254044,0.10546145588159561,0.3434462249279022
1772025103047109600,10.136109619140624,-0.14187026023864746,0.33188119530677795,0.0416393019258976
1772025103057106700,10.146106689453125,-0.12426409870386124,0.527893602848053,-0.23359572887420654
1772025103067103700,10.156103759765625,-0.06377533078193665,0.63092041015625,-0.423654705286026
1772025103077100800,10.166100830078125,0.038106564432382584,0.653487503528595,-0.5221487283706665
1772025103087097600,10.17609765625,0.13043448328971863,0.5676889419555664,-0.48826953768730164
1772025103097094700,10.1860947265625,0.1888274997472763,0.4113943874835968,-0.33077099919319153
1772025103107091700,10.196091796875,0.20638078451156616,0.3103126585483551,-0.11093206703662872
1772025103117088800,10.2060888671875,0.23196710646152496,0.3055264353752136,0.131398543715477
1772025103127085600,10.21608544921875,0.267436683177948,0.3619382977485657,0.33575478196144104
1772025103137082600,10.22608251953125,0.3068719804286957,0.3477385640144348,0.4154394865036011
1772025103147079700,10.23607958984375,0.31118297576904297,0.2601967453956604,0.415846049785614
1772025103157076500,10.246076416015624,0.2701500356197357,0.19310371577739716,0.472478449344635
1772025103167073800,10.25607373046875,0.24780386686325073,0.10852663964033127,0.6242276430130005
1772025103177071600,10.266071533203124,0.2374630868434906,-0.004280602093786001,0.7672511339187622
1772025103187068700,10.276068603515625,0.11070354282855988,-0.12760838866233826,0.6168941259384155
1772025103197065500,10.2860654296875,-0.2074267566204071,0.10790426284074783,0.24787509441375732
1772025103207062800,10.296062744140626,-0.5620001554489136,0.48810410499572754,-0.2911566197872162
1772025103217059600,10.3060595703125,-0.5894812941551208,0.8131248354911804,-0.8285598754882812
1772025103227056600,10.316056640625,-0.28059086203575134,1.4721912145614624,-0.9561068415641785
1772025103237053700,10.3260537109375,0.14171911776065826,1.8479748964309692,-0.7359387874603271
1772025103247050800,10.33605078125,0.3570125102996826,1.6408849954605103,-0.404141366481781
1772025103257047600,10.346047607421875,0.2984008491039276,0.9194488525390625,-0.09687303751707077
1772025103267044900,10.356044921875,0.03148675337433815,-0.2733306884765625,0.1105651780962944
1772025103277041700,10.366041748046875,-0.3440626263618469,-1.3275474309921265,0.28592127561569214
1772025103287038500,10.37603857421875,-0.7636218070983887,-1.7985459566116333,0.45036667585372925
1772025103297035800,10.386035888671875,-1.0801790952682495,-1.6789101362228394,0.49905139207839966
1772025103307032600,10.396032470703124,-1.183678388595581,-0.9993730187416077,0.4050306975841522
1772025103317029600,10.406029541015625,-1.0631074905395508,-0.14906617999076843,0.23085595667362213
1772025103327026700,10.416026611328125,-0.8216519951820374,0.4966561794281006,0.004634281620383263
1772025103337023700,10.426023681640626,-0.6293051838874817,0.8002363443374634,-0.14023955166339874
1772025103347021600,10.436021484375,-0.5301612615585327,0.7259799242019653,-0.19733719527721405
1772025103357018600,10.4460185546875,-0.4821127951145172,0.44266805052757263,-0.16786399483680725
1772025103367015700,10.456015625,-0.4419824182987213,0.2542901635169983,-0.019254149869084358
1772025103377012700,10.4660126953125,-0.3363784849643707,0.23214012384414673,0.22538435459136963
1772025103387009500,10.476009521484375,-0.19170521199703217,0.34404879808425903,0.5448110699653625
1772025103397006800,10.4860068359375,-0.041144728660583496,0.5547229051589966,0.8964782953262329
1772025103407003600,10.496003662109375,0.10490398854017258,0.7362744212150574,1.263403058052063
1772025103417000700,10.506000732421874,0.23211094737052917,0.7522454261779785,1.5979453325271606
1772025103426997800,10.515997802734375,0.292205274105072,0.5507522225379944,1.8192273378372192
1772025103436994800,10.525994873046875,0.3098601698875427,0.16814756393432617,1.8857454061508179
1772025103446991600,10.53599169921875,0.27631938457489014,-0.23782341182231903,1.8296884298324585
1772025103456988700,10.54598876953125,0.20055966079235077,-0.5414019227027893,1.6792187690734863
1772025103466985700,10.55598583984375,0.13797858357429504,-0.7785329818725586,1.3922357559204102
1772025103476982500,10.565982421875,0.11649034172296524,-0.7621194124221802,1.0388646125793457
1772025103486979800,10.575979736328126,0.17681466042995453,-0.49539756774902344,0.7332712411880493
1772025103496976600,10.5859765625,0.2726282775402069,-0.10190540552139282,0.4745102524757385
1772025103506973700,10.5959736328125,0.35776588320732117,0.25969836115837097,0.2844856381416321
1772025103516970800,10.605970703125,0.39292627573013306,0.4698774516582489,0.14023816585540771
1772025103526968800,10.61596875,0.3588605225086212,0.502156138420105,0.004284361843019724
1772025103536965600,10.625965576171875,0.2613928020000458,0.40029075741767883,-0.13935643434524536
1772025103546962700,10.635962646484375,0.1709519624710083,0.2656719386577606,-0.26537609100341797
1772025103556959700,10.645959716796876,0.15016865730285645,0.2087513953447342,-0.3881091773509979
1772025103566956800,10.655956787109375,0.20744726061820984,0.23304027318954468,-0.49156004190444946
1772025103576953600,10.66595361328125,0.3076377511024475,0.24564127624034882,-0.5322043895721436
1772025103586950700,10.67595068359375,0.4770702123641968,0.2455635964870453,-0.5489791035652161
1772025103596948200,10.6859482421875,0.689633846282959,0.22444073855876923,-0.5206510424613953
1772025103606945000,10.695945068359375,0.9072153568267822,0.22566922008991241,-0.4064714312553406
1772025103616942000,10.705942138671874,1.0336453914642334,0.10239841789007187,-0.18367402255535126
1772025103626939100,10.715939208984375,0.9830512404441833,-0.1752849966287613,0.11427775025367737
1772025103636936000,10.72593603515625,0.7550758123397827,-0.36797747015953064,0.4614546000957489
1772025103646933000,10.73593310546875,0.555880069732666,-0.21140289306640625,0.8450954556465149
1772025103656930000,10.745929931640624,0.4730944037437439,0.1464785486459732,1.020478367805481
1772025103666927000,10.755927001953125,0.3579905927181244,0.24090638756752014,0.6618104577064514
1772025103676924000,10.765923828125,0.07307309657335281,0.4713560938835144,-0.04384222626686096
1772025103686921200,10.775921142578126,-0.19062568247318268,0.8004992008209229,-0.8550301790237427
1772025103696918000,10.78591796875,-0.25802841782569885,1.1365221738815308,-1.606661081314087
1772025103706916000,10.795916015625,-0.14936862885951996,1.5219855308532715,-1.922476887702942
1772025103716913000,10.805912841796875,-0.019854305312037468,1.556405782699585,-1.745774507522583
1772025103726910200,10.81591015625,-0.018189318478107452,1.072798490524292,-1.299655795097351
1772025103736907000,10.825906982421875,-0.15912646055221558,0.2625926434993744,-0.854275107383728
1772025103746904000,10.835904052734374,-0.4142920672893524,-0.6853281855583191,-0.5243024826049805
1772025103756901000,10.845901123046875,-0.6719488501548767,-1.2827857732772827,-0.3633665442466736
1772025103766898200,10.855898193359375,-0.8377588987350464,-1.2928494215011597,-0.34371218085289
1772025103776895000,10.86589501953125,-0.8360406756401062,-0.8784085512161255,-0.3718375563621521
1772025103786892000,10.87589208984375,-0.6954881548881531,-0.3333914875984192,-0.47435107827186584
1772025103796889000,10.88588916015625,-0.572869062423706,0.136057510972023,-0.6866869926452637
1772025103806886000,10.895885986328125,-0.5343130230903625,0.32566818594932556,-0.8948261141777039
1772025103816883200,10.90588330078125,-0.6361602544784546,0.16160494089126587,-1.0095821619033813
1772025103826880000,10.9158798828125,-0.7765663862228394,-0.11476942896842957,-0.9754031896591187
1772025103836877000,10.925876953125,-0.8218792676925659,-0.17489826679229736,-0.8038607239723206
1772025103846874000,10.9358740234375,-0.7310106158256531,0.030858255922794342,-0.5318824648857117
1772025103856871200,10.94587109375,-0.47363314032554626,0.36687061190605164,-0.20916248857975006
1772025103866868000,10.955867919921875,-0.11131874471902847,0.6696177124977112,0.1412084996700287
1772025103876865000,10.965864990234374,0.25176066160202026,0.8232381343841553,0.551638662815094
1772025103886862000,10.975862060546875,0.5045598149299622,0.7104390263557434,0.9591289162635803
1772025103896860200,10.985860107421875,0.5505984425544739,0.32681334018707275,1.3317911624908447
1772025103906857000,10.99585693359375,0.38106608390808105,-0.0796259343624115,1.6398723125457764
1772025103916854000,11.00585400390625,0.17194081842899323,-0.3203927278518677,1.8404014110565186
1772025103926851000,11.01585107421875,0.05627306178212166,-0.30002468824386597,1.9116030931472778
1772025103936848100,11.02584814453125,0.1033625453710556,-0.10481979697942734,1.840089201927185
1772025103946845000,11.035844970703126,0.19413037598133087,0.1914377063512802,1.659883737564087
1772025103956842000,11.045842041015625,0.38244783878326416,0.36341825127601624,1.3550761938095093
1772025103966839000,11.055839111328124,0.5915402173995972,0.4917512536048889,1.094892144203186
1772025103976835800,11.0658359375,0.7527858018875122,0.4883727729320526,0.8577759861946106
1772025103986833200,11.075833251953124,0.8282744288444519,0.44811201095581055,0.7492737770080566
1772025103996830000,11.085829833984375,0.7871251106262207,0.2860724925994873,0.7146183252334595
1772025104006827000,11.095826904296874,0.6132966876029968,0.12556572258472443,0.7639344930648804
1772025104016824000,11.105823974609375,0.3899463713169098,0.001083718379959464,0.8270335793495178
1772025104026821000,11.115821044921875,0.25663501024246216,-0.018747372552752495,0.8967705965042114
1772025104036818000,11.12581787109375,0.21110376715660095,-0.07150539010763168,0.9006649255752563
1772025104046815200,11.135815185546875,0.2694685757160187,-0.11838618665933609,0.8610414862632751
