time,seconds_elapsed,z,y,x
1772025045039936500,0.0839365234375,9.155154176715016,6.303215178310871,-0.9764905784726142
1772025045049933300,0.093933349609375,8.858735527670383,6.387037370857596,-1.0825107204325497
1772025045059930400,0.103930419921875,8.730705944606662,6.389108916434645,-1.1660856602199374
1772025045069927400,0.113927490234375,8.699611133641005,6.419217638972401,-1.1774432127974928
1772025045079924200,0.12392431640625,8.70985546427965,6.420101436069607,-1.1210868270643055
1772025045089921500,0.133921630859375,8.47882026477158,6.343595704016089,-0.9441554120570421
1772025045099918300,0.14391845703125,7.9168591664612284,6.176683140328526,-0.5567772659316659
1772025045109915400,0.153915283203125,7.270843820413947,5.842041435873508,0.03034004707559943
1772025045119912400,0.163912353515625,6.57090165386796,5.36189235933125,0.5759560136541724
1772025045129909500,0.173909423828125,5.234411642321944,4.61643055062592,0.8941830282725394
1772025045139906300,0.18390625,2.885445546686649,3.0604847182065247,0.7981213857471943
1772025045149903600,0.193903564453125,-0.2546007840126753,-0.39061493608951564,0.2322521740823984
1772025045159900400,0.203900390625,-3.5276299362689256,-5.710543884438276,-0.880345349317044
1772025045169897200,0.213897216796875,-5.65161940178275,-10.590888990867137,-1.3234911215022205
1772025045179894500,0.22389453125,-7.156063595023751,-11.314999383985995,0.1109158050470054
1772025045189891300,0.233891357421875,-11.89817921141386,-8.600841547331214,2.67921161095798
1772025045199888400,0.243888427734375,-16.869622054350376,-7.9457988452196116,4.811838556435704
1772025045209885400,0.253885498046875,-16.708911267912388,-7.2552230574339625,4.138706363143027
1772025045219882500,0.263882568359375,-15.25753873964548,-5.036255214586854,3.618235213084519
1772025045229879300,0.27387939453125,-14.919994884008169,-5.216598337733745,3.283055456230044
1772025045239876600,0.283876708984375,-14.459702600580453,-7.230538698032498,2.545298815074563
1772025045249873400,0.293873291015625,-13.204272331130504,-8.899204900702834,1.6348188781261443
1772025045259870500,0.303870361328125,-11.719925754022597,-9.159238815680146,1.2518284455657005
1772025045269867500,0.313867431640625,-10.252393533593416,-7.115597729122638,1.114568385080993
1772025045279864600,0.323864501953125,-8.010513601714372,-4.633256890003383,0.7784446253746747
1772025045289861400,0.333861328125,-5.137274625650048,-3.3844638666108247,-0.016017799473553897
1772025045299858400,0.3438583984375,-1.9905162300914525,-2.2062582911387083,-0.4029362191326916
1772025045309855500,0.35385546875,-0.31323943546414373,-0.6805690652951598,-0.5857986316241324
1772025045319852300,0.363852294921875,-0.01925590461194515,0.5480667207315564,-1.3158411912709473
1772025045329849600,0.373849609375,0.1870218702584505,-0.5194213487446308,-2.6925077303826805
1772025045339846400,0.383846435546875,-0.40892800689339637,0.17134791578650474,-0.9152833917073905
1772025045349843500,0.393843505859375,-0.4031313033133745,1.4857023756310344,-0.9465002216175198
1772025045359840500,0.403840576171875,-0.2139969709455967,2.2778768356725574,-2.032321235641837
1772025045369837600,0.413837646484375,-0.08256547048389912,2.6863386863589285,-2.6664436070606112
1772025045379834400,0.42383447265625,2.222637471270561,1.47991034822613,-2.529890233540535
1772025045389831400,0.43383154296875,6.25830577700436,-0.07884995709210633,-2.012858118019998
1772025045399828500,0.443828369140625,8.118510450574755,-0.2650423907890916,-1.4586352127462625
1772025045409825300,0.4538251953125,7.17976888025999,0.2149786754593253,-1.2227996272191404
1772025045419822300,0.463822265625,7.675821628376841,0.13964432527273893,-2.033158855509758
1772025045429819400,0.4738193359375,8.381085282206534,0.4874886256501078,-2.8424422712624073
1772025045439817500,0.4838173828125,8.35439016750455,1.5796107856452464,-2.960331568583846
1772025045449814300,0.493814208984375,8.72492736120522,2.7230250337213278,-2.896867104411125
1772025045459811300,0.503811279296875,9.675061263149976,2.8713737667143344,-2.7352397876501082
1772025045469808400,0.513808349609375,9.589598902180791,3.2847371257066724,-2.470196812339127
1772025045479805400,0.523805419921875,10.822391223365068,2.3895915360122917,-4.028787314048409
1772025045489802200,0.53380224609375,11.029536428719759,1.3724904224708676,-4.510428674975038
1772025045499799600,0.543799560546875,10.043612835991382,1.4078218480929732,-3.6305309232950207
1772025045509796400,0.55379638671875,7.405784205779433,2.349864798040688,-1.6119744475029407
1772025045519793400,0.56379345703125,3.6831606897205114,2.944387564998865,0.9627451078452169
1772025045529790500,0.57379052734375,3.5735447152256965,2.6178537636756896,3.067425915646553
1772025045539788300,0.583788330078125,5.4095805777013295,2.9112171168029306,2.2404566210776564
1772025045549785300,0.593785400390625,5.9496197670608755,2.4659672119453546,-0.4428244312763214
1772025045559782100,0.6037822265625,5.279091911047697,2.168951766051352,-1.302345896012336
1772025045569779500,0.613779541015625,3.6705490454286336,2.083791602899134,-1.998317697622627
1772025045579776300,0.6237763671875,1.4198510163217781,1.719376983731985,-2.8865239895731207
1772025045589773300,0.633773193359375,-1.244003451028466,0.7703206478908657,-2.7028493839159604
1772025045599770400,0.643770263671875,0.49015667581558225,-0.8436135553777218,-1.3940423290655015
1772025045609767200,0.65376708984375,-0.9104472037225961,-0.5574141025304794,-4.3018107667192815
1772025045619764200,0.66376416015625,-4.493986074218154,-1.2451333318412303,-5.273833552128076
1772025045629761300,0.67376123046875,-7.24237701986432,-4.205057488667965,-2.430290918408334
1772025045639758300,0.68375830078125,-9.275193345546722,-6.552047315794229,0.20509698585430158
1772025045649755100,0.693755126953125,-12.554039659649133,-6.564181990224123,0.5081352539680898
1772025045659752400,0.70375244140625,-12.983452820688486,-2.715825477606058,-0.8312210337292403
1772025045669749200,0.713749267578125,-11.47883151731491,-3.3495559270977973,-1.9888921360209584
1772025045679746300,0.723746337890625,-10.100025043565035,-5.898762855526805,-1.8157576290786266
1772025045689743400,0.733743408203125,-9.927485872167349,-5.418749388062953,-0.9035806789539754
1772025045699740400,0.743740478515625,-11.397400603818893,-4.202574147419631,-0.06771899807834997
1772025045709737200,0.7537373046875,-11.36329492059946,-3.2253421029299494,0.1136819635584019
1772025045719734300,0.763734375,-9.862813201248645,-1.7771201476484537,0.32975174045637246
1772025045729731300,0.7737314453125,-7.582363592478632,-0.6070084467828274,-0.10887073648492805
1772025045739728100,0.78372802734375,-4.966625798043609,0.024857962402701377,-0.7083314439024776
1772025045749725400,0.793725341796875,-2.2897230485498903,0.7285957218393683,-0.48763135858904566
1772025045759722200,0.80372216796875,-0.0785749395430088,1.3601210625022648,-0.011141352543607354
1772025045769719300,0.81371923828125,1.1671452522754668,1.730747980313003,0.6054018153037876
1772025045779716400,0.82371630859375,-0.19602935257852078,1.7353534282818435,2.701133519908786
1772025045789713400,0.83371337890625,-1.514520766097307,-0.7987962162688375,2.238100705601275
1772025045799710200,0.843710205078125,-0.015639467680454253,-1.913298550376296,-0.624232553306222
1772025045809707500,0.85370751953125,0.6077127956598997,-0.7988152132302522,-1.4071024477772414
1772025045819704300,0.863704345703125,1.0761094750881195,-0.1481273453272879,-1.6109142709255218
1772025045829701400,0.873701416015625,2.3567156868487595,0.02371931376159191,-1.2239249779872596
1772025045839698400,0.883698486328125,3.523148991462588,0.7732236758559942,-1.0932290983237325
1772025045849695200,0.8936953125,4.127243012103438,1.5071853086426854,1.3021613332256674
1772025045859692300,0.9036923828125,4.861505381402373,0.20761121543124317,4.230819706434011
1772025045869689300,0.913689453125,5.155996277254819,-1.2984073875196278,3.925047245849669
1772025045879686400,0.923686279296875,6.718075497862697,-1.5476187335789202,2.7142855546876787
1772025045889683200,0.93368310546875,7.622537781956791,-0.9139167795293033,2.46695534619987
1772025045899680300,0.94368017578125,7.952134477981924,-0.45340793074145913,2.789262177477777
1772025045909677300,0.95367724609375,8.395413082766533,-0.5352677371740341,2.8149966304540635
1772025045919674400,0.96367431640625,8.144812182044982,-0.44542891468629237,2.6715616807267066
1772025045929671200,0.973671142578125,7.901540601298213,-0.16463365897014737,2.8518434290751813
1772025045939668500,0.98366845703125,8.196479825440049,-0.25982377935796974,3.619307226230204
1772025045949665300,0.993665283203125,9.059192049041389,-0.5596807322882116,2.4849630043163895
1772025045959662000,1.003662109375,8.506036188477276,0.11112871714532374,2.225588868422061
1772025045969659400,1.013659423828125,7.828326896527409,0.5378104073941707,2.4340631304234264
1772025045979656200,1.02365625,7.157512624788284,0.5953288226440548,2.213876364926994
1772025045989653200,1.0336533203125,7.182756371638178,0.6364611896298825,2.3788991693451997
1772025045999650300,1.043650390625,6.642664575308561,0.5992538871333003,2.1336200481683014
1772025046009647400,1.0536474609375,5.615957721292972,0.4833635085441172,1.8099726159363985
1772025046019644200,1.06364404296875,4.631064640656113,0.5639803291782737,1.6981569394402205
1772025046029641500,1.073641357421875,3.390249172013998,0.6318707930997014,1.2477816543929279
1772025046039638300,1.08363818359375,1.117947798386216,0.576107697084546,0.5376540843212977
1772025046049635300,1.09363525390625,-2.0916092909127473,0.6109256202265619,-0.5229403166510165
1772025046059632400,1.10363232421875,-4.779807925924659,-0.8892202912986278,-1.1047879456270486
1772025046069629200,1.113629150390625,-7.269806294059753,-1.9916540019497275,-0.44145789216347037
1772025046079627300,1.123627197265625,-11.336279487901926,-2.1176649386674162,0.8105770357597619
1772025046089624300,1.133624267578125,-15.866494813364744,-3.677728143277764,1.353447868348658
1772025046099621400,1.143621337890625,-18.125628662383555,-2.8109286503627895,-0.2496687344379723
1772025046109618400,1.153618408203125,-18.051948509144783,1.2588126053646207,-5.361933275863528
1772025046119615200,1.163615234375,-16.42195310565233,2.0243848896846175,-8.826927015477418
1772025046129612300,1.1736123046875,-15.910247445851564,0.7612862775638699,-7.818941228544712
1772025046139609300,1.183609375,-16.643365321290492,0.3487619997441768,-6.513791527158022
1772025046149606100,1.193606201171875,-15.5842514046669,-0.18436872540116309,-5.508192927622795
1772025046159603500,1.203603515625,-13.902486066448688,-1.2267474880620837,-4.373565797114372
1772025046169600300,1.213600341796875,-13.217853112715481,-1.4286927866861223,-3.3732086053639647
1772025046179597300,1.223597412109375,-11.847298919004201,-1.4817171053871512,-2.337018175949156
1772025046189594400,1.233594482421875,-9.289025471544265,-1.4152861926242708,-1.7673637466572225
1772025046199591400,1.24359130859375,-6.656525342878699,-0.8281497365251183,-1.5649287648200987
1772025046209588200,1.253588134765625,-4.131818064934015,-0.17986790685057638,-1.1985881460264325
1772025046219585500,1.26358544921875,-1.6461556801766155,0.26655805604904886,-0.807867922931537
1772025046229582300,1.273582275390625,0.6522703147888184,0.4502640797577798,-0.6187063372306525
1772025046239579100,1.2835791015625,2.504714291229844,0.44435120245218274,-0.5237406001832335
1772025046249576400,1.293576416015625,4.126337003174424,0.36007571318000553,-0.5242939597496763
1772025046259573200,1.3035732421875,5.5756771488308905,0.147034289393574,-0.41347803488057105
1772025046269570300,1.3135703125,6.628544280019402,-0.1286914079733193,-0.07451689632385969
1772025046279567400,1.3235673828125,7.434415256980061,-0.2654977333411574,0.177164511377085
1772025046289564400,1.333564453125,8.141866191720963,-0.3352669967465102,0.3548377394612878
1772025046299561200,1.343561279296875,8.804552686583996,-0.3790247437998652,0.44761721851080655
1772025046309558300,1.353558349609375,9.386655824691056,-0.2539449504524469,0.5051651521161198
1772025046319555300,1.363555419921875,9.893339272415638,0.0660723085835576,0.6335308352664113
1772025046329552400,1.373552490234375,10.2518616186738,0.41499768219590183,0.7193859949454665
1772025046339549200,1.383549072265625,10.522338601732253,0.6940358651116489,0.847969704760611
1772025046349546200,1.393546142578125,10.733771859669686,0.9178718007653951,0.9501752568684517
1772025046359543300,1.403543212890625,10.839610069191455,1.0974673204153775,1.0841552727691828
1772025046369540000,1.4135400390625,11.01575223351717,1.1889888352930544,1.2812003782615065
1772025046379537400,1.423537353515625,10.95567858082652,1.2581088410094379,1.331578566367924
1772025046389534200,1.4335341796875,10.76264957910776,1.3807409489437936,1.3717241142734884
1772025046399531300,1.44353125,10.715375786757468,1.4411635612025857,1.3866149555437266
1772025046409528300,1.4535283203125,10.627480061161517,1.3996782891258597,1.3822338178500533
1772025046419525400,1.463525390625,10.201604426598548,1.428353763990104,1.4504013451471924
1772025046429522200,1.473522216796875,9.71049030392766,1.5183967307478188,1.2968632268175482
1772025046439519500,1.48351953125,9.24325039331913,1.673214367493987,1.0113592819537967
1772025046449516300,1.493516357421875,8.410105624985695,1.7768690954968331,0.8270534657210111
1772025046459513300,1.503513427734375,7.036223748156428,1.9512991952076553,0.5631510387472808
1772025046469510400,1.513510498046875,5.6176633561670775,1.9129983983859418,0.18881547567695378
1772025046479507200,1.523507080078125,4.331144120970368,1.4273881338283418,-0.24261845060028134
1772025046489504300,1.533504150390625,2.4995921259105205,0.8119903366237878,-0.5044963860090822
1772025046499501300,1.543501220703125,-0.06293956351578235,-0.1545358971953392,-0.33514333383422346
1772025046509498400,1.553498291015625,-2.287030740725994,-2.1595745736360548,0.2446313613252714
1772025046519495200,1.5634951171875,-4.890097854158282,-4.274698595649004,1.337250182263553
1772025046529492500,1.573492431640625,-9.03313698580861,-6.047359425801038,2.128226810822636
1772025046539489300,1.5834892578125,-13.763645751035213,-6.7493421582639215,2.6754583959043026
1772025046549489400,1.593489501953125,-16.504882733273504,-4.217280133642256,1.1354416617617011
1772025046559486500,1.603486572265625,-17.371147680920362,-0.8379568447902798,-2.9563650030404327
1772025046569483500,1.6134833984375,-16.78822971929908,-0.07600421227216721,-5.756446388435363
1772025046579480300,1.623480224609375,-16.810108373630047,0.4578028046995401,-8.066098126292228
1772025046589477600,1.6334775390625,-16.459413944518566,0.6418576418459415,-9.4496146774292
1772025046599474400,1.643474365234375,-15.598046121263502,-0.4484133373245597,-8.4538307849437
1772025046609471500,1.653471435546875,-14.893615411126612,-1.9951874367728828,-5.966544598376751
1772025046619468500,1.663468505859375,-14.239192886739968,-2.9920193770065904,-3.5479303814977405
1772025046629465600,1.673465576171875,-12.7270616461277,-3.3634383219778536,-1.8342692911945282
1772025046639462400,1.68346240234375,-10.179310761725901,-3.2768720914199947,-1.0932470723718404
1772025046649459500,1.69345947265625,-7.741497923380136,-2.681005508637428,-0.6759758922860026
1772025046659456500,1.70345654296875,-5.579337424904108,-1.8132932847917078,-0.03832578513249755
1772025046669453300,1.713453369140625,-3.1971190480083225,-0.9306447730988263,0.5472425448670983
1772025046679450600,1.72345068359375,-0.9719576112180948,-0.29084084891229867,0.8889189702644944
1772025046689447400,1.733447509765625,0.889111570227146,-0.0013163432955741882,1.1098111075513064
1772025046699444500,1.743444580078125,2.4339509022206065,0.07664338695853948,1.2957538042709231
1772025046709441500,1.753441650390625,3.8135856434881683,-0.006925707609951496,1.3498878377795218
1772025046719438600,1.7634384765625,4.938682144585251,0.025541268491744994,1.3711353546001017
1772025046729435400,1.773435302734375,5.848436105346679,0.19347966809570788,1.4518749248310923
1772025046739432400,1.783432373046875,6.7548623829901215,0.1955205262735486,1.524746684296429
1772025046749430500,1.793430419921875,7.624155154025554,0.14301935466378926,1.6041884698018432
1772025046759427600,1.803427490234375,8.324243451043962,0.20000965438634155,1.6903912738747893
1772025046769424400,1.81342431640625,8.553232239416241,0.3618345395460725,1.6993324129603802
1772025046779421400,1.82342138671875,8.908977522176503,0.5207809466600418,1.7632471051186323
1772025046789418500,1.83341845703125,9.370120869475603,0.644710108667612,1.7938849660970269
1772025046799415600,1.84341552734375,9.680922848659753,0.7253609777018427,1.8177762754246591
1772025046809412400,1.853412353515625,9.975071799206733,0.7645888262405991,1.7642027984082698
1772025046819409400,1.863409423828125,10.167654226201773,0.8415317806676029,1.7081011180885135
1772025046829406500,1.873406494140625,10.173257453036308,0.9828533915027975,1.6779706221103667
1772025046839403300,1.8834033203125,10.141906036961078,1.161342995737493,1.6053573674507438
1772025046849400600,1.893400634765625,10.092870495635271,1.3428946178913115,1.5301599415168166
1772025046859397400,1.9033974609375,9.913340442436933,1.516693726222217,1.3578466878294944
1772025046869394400,1.91339453125,9.683696989548206,1.638554849784076,1.1957427665326743
1772025046879391500,1.9233916015625,9.47867067604363,1.735846764756739,1.0785760843973606
1772025046889388500,1.933388427734375,9.10675108807385,1.7906550442650913,0.871539307853207
1772025046899385300,1.94338525390625,8.473103640690445,1.8337702556312083,0.6414752183996141
1772025046909382700,1.953382568359375,7.212511458432674,2.2359826905339957,0.45896698964070526
1772025046919379500,1.96337939453125,5.598992557966709,2.6499852242127058,0.16885611723707988
1772025046929376300,1.973376220703125,4.0242596074908965,2.6675126975968477,-0.6097038964118808
1772025046939373600,1.98337353515625,2.5722178016602992,2.302976790137589,-1.5715739019230006
1772025046949370400,1.993370361328125,1.050341412103176,1.707343723849952,-1.9851468120127915
1772025046959367400,2.003367431640625,-1.0699152966231107,-0.01802168664187193,-1.5084659961029887
1772025046969364500,2.013364501953125,-4.750196631515026,-2.407729542510211,-0.8921261688079685
1772025046979361500,2.023361572265625,-9.76177742357254,-4.792777297613024,0.07266549630351364
1772025046989358300,2.0333583984375,-14.697361017620562,-6.668898502239585,0.9332526905748992
1772025046999355600,2.043355712890625,-18.03615589672923,-4.138761600461602,-1.2048235332846642
1772025047009352400,2.0533525390625,-17.748262499445676,-0.4122779018431902,-5.664029386022687
1772025047019349500,2.063349609375,-14.676663097506761,-0.5707023309096694,-8.153702759987116
1772025047029346600,2.0733466796875,-12.98060853717327,-0.04885638536661863,-8.533286598974465
1772025047039343400,2.08334326171875,-12.902885830545424,-0.4309180126443505,-8.185807040256261
1772025047049340400,2.09334033203125,-12.405340798044204,-2.018264653238654,-7.17827718039751
1772025047059337500,2.10333740234375,-11.539377463692427,-3.6144931039467454,-5.215505866321921
1772025047069334500,2.11333447265625,-10.501931773519516,-5.165263287293911,-2.897810815002024
1772025047079331300,2.123331298828125,-9.820690215790272,-5.774072061496972,-1.2680764005333185
1772025047089328600,2.13332861328125,-8.89387639915645,-5.1731730375051495,-0.1473934780947864
1772025047099325400,2.143325439453125,-6.803682235738635,-4.51400419537425,0.330988150383532
1772025047109322500,2.153322509765625,-4.1552988937646145,-3.616334640160203,0.06511763820722699
1772025047119319600,2.163319580078125,-1.8674983377099037,-2.3694945044010876,-0.30352205130904913
1772025047129316600,2.173316650390625,-0.09384557391107082,-1.2892875308662652,-0.5077959390111267
1772025047139313400,2.1833134765625,1.3610188881248235,-0.522296904180944,-0.3882078749477863
1772025047149310500,2.193310546875,2.700478270870447,0.03826017255038023,-0.13346388307213783
1772025047159307500,2.2033076171875,3.9297605381071565,0.36720074275434017,0.1677420002490282
1772025047169304300,2.21330419921875,4.940968209695816,0.4243032706797123,0.40858576932698487
1772025047179301400,2.22330126953125,5.944082006677985,0.6137887545727193,0.591368613776192
1772025047189298400,2.23329833984375,6.814997995001077,0.8566437173426151,0.8699525501184165
1772025047199295500,2.24329541015625,7.289999771782756,0.4676103513561189,1.2332760130479932
1772025047209292300,2.253292236328125,7.937684512346983,-0.08040478531867265,1.5613219724997878
1772025047219289600,2.26328955078125,8.56345494274497,-0.4083246341727674,1.825497809587419
1772025047229286400,2.273286376953125,8.760111487311125,-0.5246450747422874,1.967067403834313
1772025047239283500,2.283283447265625,8.800109151178598,-0.5472027973785996,2.022560304605961
1772025047249280500,2.293280517578125,8.885849744567274,-0.456084456474334,2.018667388820648
1772025047259277600,2.303277587890625,9.105953215694427,-0.429608829741925,1.9687182397812604
1772025047269274400,2.3132744140625,9.342342051190137,-0.4954821086220443,1.9039057220004498
1772025047279271400,2.323271484375,9.04826265874803,-0.31093276595696806,1.5807956115156412
1772025047289268500,2.3332685546875,8.86597600031793,-0.07987287039905785,1.4173561307661235
1772025047299265300,2.343265380859375,8.83158448589444,0.015386077441275119,1.5398929616324604
1772025047309262600,2.3532626953125,8.662252586105465,-0.01015928270369768,0.9297842107467352
1772025047319259400,2.36325927734375,8.996741145825386,0.03065700407028198,0.5272370274642482
1772025047329256400,2.37325634765625,8.763442093038558,-0.06690174514502287,0.6343376946698874
1772025047339253500,2.38325341796875,7.852249039384723,-0.05834975150749087,0.7460418005503714
1772025047349250600,2.39325048828125,6.282687938588857,0.27437413662746546,1.097184704081714
1772025047359247400,2.403247314453125,4.663169505447149,1.1960064589701591,1.537257498562336
1772025047369244700,2.41324462890625,4.568602631524205,1.2080034784950315,0.540195622030273
1772025047379241500,2.423241455078125,3.5606337957262992,-0.13986469002515076,-1.7836565636798738
1772025047389238300,2.43323828125,1.13194651312232,-0.2544450089290738,-2.3483951638795433
1772025047399235600,2.443235595703125,-1.1551374190956354,-0.4614218719795346,-1.4171506713218986
1772025047409232400,2.453232421875,-3.9995004292875524,-2.301171202020347,-0.6527169625777751
1772025047419229400,2.4632294921875,-7.439213012650608,-3.8428959091246124,0.3775900713542476
1772025047429226500,2.4732265625,-11.296155567306279,-4.373452107606828,0.9194514711722731
1772025047439223600,2.4832236328125,-15.420318733572959,-4.456434049937129,0.8048308933231979
1772025047449220400,2.493220458984375,-17.538710232949256,-2.3898779517382382,0.0035206118742004034
1772025047459217700,2.5032177734375,-16.99684207459688,1.1315095830097794,-3.139700001479685
1772025047469214500,2.51321435546875,-15.847860255521535,2.186549674323201,-5.341244123578071
1772025047479211500,2.52321142578125,-15.176084445273876,0.3317226021379232,-4.515668329194188
1772025047489208600,2.53320849609375,-15.016234075057506,-0.7260062898680567,-3.6587063396826385
1772025047499205600,2.54320556640625,-13.797116643482445,-1.1763900504827498,-3.0379689350157975
1772025047509202400,2.553202392578125,-11.94985679168105,-2.113669147029519,-1.9460837986469268
1772025047519199500,2.563199462890625,-10.532622679859399,-3.1010292023018002,-0.6376636972874402
1772025047529196500,2.573196533203125,-9.092287678435444,-3.214991097046435,0.2584935171348974
1772025047539193300,2.583193359375,-7.180345218843221,-2.915328643774986,0.8543236768972128
1772025047549186600,2.5931865234375,-4.982117381685972,-2.4187629776999353,1.1321280071690678
1772025047559183600,2.60318359375,-2.8427836320459843,-1.568195949922502,0.931864231891185
1772025047569180400,2.613180419921875,-1.0318681823015212,-0.5950520515292883,0.5985616670854389
1772025047579177700,2.623177734375,0.6092804833680391,0.20083324572890995,0.1896791067689657
1772025047589174500,2.633174560546875,2.086917918226123,0.9627516837164759,-0.003727240362204611
1772025047599171600,2.643171630859375,3.3824504809617992,1.5409659976914525,-0.09549542347732931
1772025047609168600,2.653168701171875,4.478314457833767,1.9009449724987149,-0.21272897857008502
1772025047619165700,2.663165771484375,5.358756983914971,2.2254233025968073,-0.2255577727439813
1772025047629162500,2.67316259765625,6.162798407360911,2.4987901618778703,-0.13380646769842133
1772025047639159600,2.68315966796875,7.090246430245042,2.6114228538453577,0.12431058080689981
1772025047649156600,2.693156494140625,7.862569942390918,2.5559894281759856,0.41695740142893045
1772025047659153400,2.7031533203125,8.267841764864325,2.5121602233216165,0.6491313591759652
1772025047669150500,2.713150390625,8.78830122448504,2.5386150995269414,0.9547007714688778
1772025047679147500,2.7231474609375,9.160189832794666,2.4211875744983553,1.2157730165179819
1772025047689144600,2.73314453125,9.284236483702063,2.274510281848907,1.4191218252643942
1772025047699141400,2.743141357421875,9.376711938303709,2.306070956760645,1.5736255737558007
1772025047709138700,2.753138671875,9.590005144894123,2.301195167417824,1.6106871841713786
1772025047719135500,2.763135498046875,9.737079620167613,2.287796464401483,1.4897690405480564
1772025047729132500,2.773132568359375,9.754886495015025,2.48023392996788,1.319588561105728
1772025047739129600,2.783129638671875,9.765864985147118,2.6665003056839107,1.114063723494485
1772025047749126700,2.793126708984375,9.73339011799991,2.773392700433731,0.9333904185451567
1772025047759124500,2.80312451171875,9.664059392142295,2.8436779505372045,0.8159643548212945
1772025047769121500,2.81312158203125,9.449259288120269,2.816725938464701,0.696000954639539
1772025047779118600,2.82311865234375,9.263215322983264,2.7363024484455583,0.6146241094183177
1772025047789115600,2.83311572265625,9.032743018054962,2.7530945932924746,0.4193970861986279
1772025047799112400,2.843112548828125,8.51362211356163,2.807000371003151,0.21216632145233452
1772025047809109500,2.853109619140625,7.698617397552728,2.660875159278512,0.23454645903203636
1772025047819106600,2.8631064453125,6.587732961681485,2.278302075347304,0.32067159475889057
1772025047829103400,2.873103271484375,5.099478271219134,1.8271002763479947,0.23921207622289656
1772025047839100700,2.8831005859375,2.871366752451658,1.3169026830226183,-0.14600786895528434
1772025047849097500,2.893097412109375,0.36565468235611914,0.5414291824132204,-0.6007384266026318
1772025047859094500,2.903094482421875,-1.593772581988573,-0.6573422112256289,-1.0965342773489652
1772025047869091600,2.913091552734375,-4.142991785377264,-2.9014652458563446,-1.3804529257826506
1772025047879088600,2.923088623046875,-8.256360001385211,-5.122717107987404,-1.063125051961094
1772025047889085400,2.93308544921875,-12.586467765045166,-5.415401246678829,-0.9370770711686461
1772025047899082800,2.943082763671875,-15.940449691891668,-4.8155143223389985,-0.584934160281904
1772025047909079600,2.95307958984375,-17.815811018061638,-3.4541450133413076,-0.7866079850208014
1772025047919076400,2.963076416015625,-17.317489740490913,0.7674307716682552,-3.68906582211107
1772025047929073700,2.97307373046875,-15.76549176891446,2.021923175746202,-5.502170598593354
1772025047939070500,2.983070556640625,-15.788829389882087,-0.01701338638216257,-4.045850384791195
1772025047949067500,2.993067626953125,-15.758560508346557,-1.3815022887051105,-2.2534631099060176
1772025047959064600,3.003064697265625,-14.003562760657072,-2.457246437612176,-1.1943870410747826
1772025047969061600,3.0130615234375,-12.033420041030645,-3.881320332325995,-0.22320101701738312
1772025047979058400,3.023058349609375,-11.210261244660614,-4.470729994054138,0.9251153421528637
1772025047989055700,3.0330556640625,-9.817513923841714,-3.8269653495430944,1.3486059812754392
1772025047999052500,3.043052490234375,-7.4834806089222425,-2.817203492848575,1.1473830055765808
1772025048009049600,3.053049560546875,-5.280901590818166,-1.5281608766540884,0.8633749252937734
1772025048019046700,3.063046630859375,-3.4733395431548355,-0.4225996816322207,0.7850120941314845
1772025048029043700,3.073043701171875,-1.7287421934485434,0.24203940860331058,0.7369789347812533
1772025048039040500,3.08304052734375,0.032874095597863195,0.5779074399828911,0.667957421003282
1772025048049037600,3.09303759765625,1.4681751945078372,0.6829384247750043,0.570005946143344
1772025048059034600,3.10303466796875,2.5026994442760944,0.5547179953143,0.47740964164100586
1772025048069031400,3.113031494140625,3.422573232513666,0.5994006021276116,0.4687012883979827
1772025048079028500,3.123028564453125,4.38791054880917,0.8928732608482242,0.4188473433613777
1772025048089025500,3.133025634765625,5.300889316835999,1.0537725555956363,0.5282557395201176
1772025048099022600,3.143022705078125,6.139589965730905,0.9464388468191027,0.8022826701451092
1772025048109019400,3.153019287109375,6.808510386547446,0.7656997100919485,1.11073699022457
1772025048119016700,3.1630166015625,7.267590956097841,0.7613318702712655,1.4924197011873126
1772025048129013500,3.173013427734375,7.64275697864294,0.8591086461514233,1.7554086665779352
1772025048139010600,3.183010498046875,7.848498162418603,0.9473004320845008,1.8047089963197707
1772025048149007600,3.193007568359375,7.97592218080461,1.0676596266508103,1.7476671125404535
1772025048159004400,3.20300439453125,8.121040845835209,1.2158537536039948,1.5513739944592118
1772025048169001500,3.21300146484375,8.18566090978384,1.4235887415453792,1.3119225565224886
1772025048178998500,3.22299853515625,8.15483205627799,1.682321218535304,1.1436531713984905
1772025048188995600,3.23299560546875,8.008119984576105,1.9501725292652845,1.0672186048850416
1772025048198992400,3.242992431640625,7.864503540802001,2.2329501909703016,0.9621385202541947
1772025048208989700,3.25298974609375,7.939358583039045,2.5025091824010013,0.7931010733671486
1772025048218986500,3.262986572265625,8.145480290564894,2.724596813082695,0.600182619350776
1772025048228983600,3.272983642578125,8.101116832703351,2.85436330294162,0.3526771273612976
1772025048238980600,3.282980712890625,7.897063748145103,2.872629319733381,0.2358402982348576
1772025048248977700,3.292977783203125,7.864555563250184,2.934888792030513,0.3118342813739553
1772025048258974500,3.302974365234375,7.700898201966285,3.002690116363764,0.32829598869010806
1772025048268971500,3.312971435546875,6.96240214062035,2.9888144434854387,0.08304676032797433
1772025048278968600,3.322968505859375,5.775875311526656,2.963774110253155,-0.08978572232732548
1772025048288965400,3.33296533203125,4.440638514912128,2.5597458581000563,-0.30180615076925604
1772025048298962700,3.342962646484375,2.7517461012929676,1.6637684937566517,-0.7479248378179967
1772025048308959500,3.35295947265625,0.8041904765278101,0.448975939643383,-1.5232126065969467
1772025048318956500,3.36295654296875,-0.6593769319236278,-1.5213883137792348,-2.1398351232908666
1772025048328953600,3.37295361328125,-2.1616011110275983,-4.8458378566712135,-2.3326250555567443
1772025048338950700,3.38295068359375,-5.954847730842232,-7.383714997312426,-0.9225537480365484
1772025048348947500,3.392947509765625,-11.78711771428585,-8.945933334130048,1.6176266280457376
1772025048358944800,3.40294482421875,-15.654763449263571,-9.46643371028304,2.6081115373402834
1772025048368941600,3.412941650390625,-16.738772153168917,-5.182028544133901,-0.5489054000454023
1772025048378938600,3.422938720703125,-16.132088700556753,-2.2912185478046534,-3.174278855168819
1772025048388935700,3.432935791015625,-14.528047238010167,-2.3852184354946018,-4.168196953782439
1772025048398932500,3.442932373046875,-13.997253431379795,-2.7093808315113184,-4.919547820526361
1772025048408929500,3.452929443359375,-13.083351118767261,-2.399445698289573,-4.914858201405406
1772025048418926600,3.462926513671875,-11.739825217235088,-2.3927017769873142,-3.06748729044497
1772025048428923600,3.472923583984375,-11.502640262925624,-2.807535208532214,-1.0397427881341428
1772025048438920400,3.48292041015625,-10.76792898081541,-3.0621526514187454,0.6558269843570887
1772025048448917500,3.49291748046875,-8.655114404788613,-3.4775700203314424,1.6507798328459262
1772025048458914600,3.50291455078125,-6.317026261520385,-2.9257343024551865,1.1307052808895706
1772025048468911600,3.51291162109375,-4.103839924684166,-1.6594158515051007,0.19149930793344974
1772025048478908400,3.522908447265625,-1.9101041382491588,-0.45643005504161116,-0.2789370606288314
1772025048488905700,3.53290576171875,-0.13167115443646907,0.436836589038372,-0.6269941269740462
1772025048498902500,3.542902587890625,1.321695762518048,0.993259342443943,-0.937929231018573
1772025048508899300,3.5528994140625,2.6775696889698506,1.2886311127841472,-1.0986983235150576
1772025048518896600,3.562896728515625,3.98548067176342,1.6417334798201917,-1.2645195848345756
1772025048528893400,3.5728935546875,4.944672324910759,1.6972668587327002,-1.2816074977576732
1772025048538890500,3.582890380859375,5.785632735431194,1.434469032000005,-1.2870159326724708
1772025048548891600,3.5928916015625,6.593614420935511,1.0911045073851942,-1.3833414868310092
1772025048558888700,3.602888671875,7.286691377887129,1.0261609105706215,-1.3740828062288462
1772025048568885500,3.612885498046875,7.756472789672016,1.0999734580174088,-1.2883002733945845
1772025048578882600,3.622882568359375,7.989045866271853,1.0509741570487618,-1.1938980885140598
1772025048588879600,3.632879638671875,8.047496301674842,0.8246502039715647,-0.9808106336288154
1772025048598876400,3.64287646484375,8.064259804949163,0.6220870657101273,-0.7406973707824945
1772025048608873700,3.652873779296875,7.996253021171689,0.5656289731681347,-0.7233265492647886
1772025048618870500,3.66287060546875,7.791022709527612,0.6092386900529265,-0.8431649348273873
1772025048628867600,3.67286767578125,7.765663227343559,0.7734025395542383,-1.0416253139451146
1772025048638864600,3.68286474609375,7.824803398576378,1.1604057148873805,-1.2356070863440631
1772025048648861700,3.69286181640625,7.6826558583110565,1.5668176473066209,-1.310533001860231
1772025048658858500,3.7028583984375,7.58868987289071,1.806272884635627,-1.3729159544065594
1772025048668855600,3.71285546875,7.666476292404532,2.0115069956719873,-1.256737844917178
1772025048678852600,3.7228525390625,7.618096584638953,2.067478473740816,-1.1877533021487294
1772025048688849400,3.732849365234375,7.53143420023024,2.0453195411637424,-1.102653198620677
1772025048698846500,3.742846435546875,7.1849401454180475,2.0443273152559995,-0.8742179524779319
1772025048708843500,3.752843505859375,6.512034454357623,1.9261942723065613,-0.8475994101434946
1772025048718840600,3.762840576171875,5.495520493054389,1.7704247416630385,-0.9470032027035951
1772025048728837400,3.77283740234375,4.022138377553224,1.6363646462634205,-1.0399495627526194
1772025048738834700,3.782834716796875,2.330429152947664,1.4048200359284877,-1.4798390365555882
1772025048748831500,3.79283154296875,0.43183249714076516,0.777770963896811,-2.3483301358193156
1772025048758828500,3.80282861328125,-1.2927519921064377,-0.39334757592380043,-2.947890020161867
1772025048768825600,3.81282568359375,-3.31780820518136,-2.364236437742412,-2.512529056634009
1772025048778822700,3.82282275390625,-6.480386101162433,-5.370552051126957,-1.0971131001502274
1772025048788819500,3.8328193359375,-10.554594857692718,-7.163257305920124,-0.18621756813824175
1772025048798816500,3.84281640625,-13.73741007053852,-7.41032126468718,0.5806772700224071
1772025048808814600,3.852814697265625,-16.29086471953988,-6.192444188562035,0.08156710709631443
1772025048818811600,3.862811767578125,-16.04826709253192,-2.8130378976017236,-3.052731912122667
1772025048828808400,3.872808349609375,-13.45723002411127,-1.3186395898178218,-5.813001803871989
1772025048838805800,3.8828056640625,-11.820021620500087,-2.3524434163570405,-5.366757919541001
1772025048848802600,3.892802490234375,-12.104305010592936,-3.211366769069433,-3.167463914456963
1772025048858799400,3.90279931640625,-11.80168283073306,-3.2599896379411217,-1.4526384565494954
1772025048868796700,3.912796630859375,-9.95047745617628,-3.5965170100122688,-0.6033434945344924
1772025048878793500,3.92279345703125,-8.810945017969608,-3.6364173509851097,0.07759016628935933
1772025048888790500,3.93279052734375,-7.935533471792936,-2.944135343803465,0.7030623443931341
1772025048898787600,3.94278759765625,-6.250484874120354,-2.4146000128015874,0.8289068385027348
1772025048908784600,3.95278466796875,-4.2201060047179455,-1.4906661355182527,0.2366571310430765
1772025048918781400,3.962781494140625,-2.4455074845016003,-0.24634382779896258,-0.4332683751627803
1772025048928778800,3.97277880859375,-0.580457124465704,0.7615881831198931,-0.7195068448461592
1772025048938775600,3.982775634765625,1.1239075835734604,1.5153829358845947,-0.7658901180975138
1772025048948772600,3.992772705078125,2.548207980519533,1.9852587479546664,-0.6972378760233521
1772025048958769700,4.002769775390625,3.831693547108769,2.077685394978523,-0.45496889644786714
1772025048968766500,4.012766357421875,5.084892111983895,2.0419106095030903,-0.15994900828525424
1772025048978763500,4.022763427734375,6.187690856555104,1.8864558438971637,0.18323036902099846
1772025048988760600,4.032760498046875,6.977582174095511,1.5851055836692451,0.5582773682963103
1772025048998757600,4.042757568359375,7.57867642839849,1.4614768659129738,0.9224463421393185
1772025049008754400,4.05275439453125,8.067554754841327,1.397937875199318,1.1778875224988907
1772025049018751700,4.062751708984375,8.392586919429897,1.2102902742579578,1.4020134540751577
1772025049028748500,4.07274853515625,8.545729900962113,0.9641264792010188,1.7504419840812682
1772025049038745600,4.08274560546875,8.510475632229447,0.806193633043766,1.959296915963292
1772025049048742700,4.09274267578125,8.315362809973955,0.8513552555456757,2.0282124851487575
1772025049058739700,4.10273974609375,8.155413655558228,1.0628042955741286,2.1552435586944223
1772025049068736500,4.112736572265625,8.077646525266767,1.2255839972406626,2.1321381390474734
1772025049078733600,4.122733642578125,8.029547972530127,1.3300070792675018,2.048351456205547
1772025049088730600,4.132730712890625,8.034161019283532,1.511193959762156,2.0327321545302866
1772025049098727400,4.1427275390625,7.977565856358408,1.7822569260150194,1.9520318933963774
1772025049108724500,4.152724365234375,7.88492907371521,2.094144654609263,1.864527359075099
1772025049118721500,4.162721435546875,7.853212915980816,2.3765499758705495,1.731090802401304
1772025049128718600,4.172718505859375,7.667783283349872,2.510444651575386,1.6558236722320316
1772025049138715400,4.18271533203125,7.310908119776845,2.5493241250678897,1.5184205500148236
1772025049148712700,4.192712646484375,6.865013779535889,2.562924780397117,1.436211199492216
1772025049158709500,4.20270947265625,6.220436357337236,2.385661503086984,1.3540160236254333
1772025049168706600,4.21270654296875,5.244672339573502,2.1940330158159136,1.3085174242541193
1772025049178703600,4.22270361328125,3.7779754009246824,1.932427613738179,1.2596905572429298
1772025049188700700,4.23270068359375,1.797465016540885,1.6526038334026931,0.6853820185348392
1772025049198697500,4.242697509765625,-0.4409142137408256,1.147077446758747,-0.46684265491925175
1772025049208694500,4.252694580078125,-2.0618957051724194,-0.14879121606349943,-2.18561911547482
1772025049218691600,4.262691650390625,-4.28175552842319,-1.7484996178418397,-3.029528731189668
1772025049228688400,4.2726884765625,-8.096517229953408,-3.2925340631932016,-2.9608395181059834
1772025049238685700,4.282685791015625,-11.590164232599735,-5.12971851118207,-2.6305641921669243
1772025049248682500,4.2926826171875,-14.612729262256622,-6.022766251814365,-3.439405417110026
1772025049258679600,4.302679443359375,-16.682383326470852,-3.548140809378028,-5.382813566806912
1772025049268676600,4.312676513671875,-15.729341428124904,-0.46669455168545243,-7.5235349714130155
1772025049278673700,4.322673583984375,-13.364439512211083,-0.8085071706831455,-7.762690933534502
1772025049288670500,4.33267041015625,-12.291160292112826,-2.8680852465629574,-5.67215482481122
1772025049298667800,4.342667724609375,-12.580599165272712,-4.566828607589006,-3.4072543750897046
1772025049308664600,4.35266455078125,-11.401840632092952,-5.777083518272638,-2.1396660503342746
1772025049318661400,4.362661376953125,-9.527184239321947,-6.961477426990866,-1.0549893840394913
1772025049328658700,4.37265869140625,-8.755786609849332,-6.93655458265841,-0.5635075240347535
1772025049338655500,4.382655517578125,-7.511029710105061,-5.799256771636009,-0.45594519413411616
1772025049348652500,4.392652587890625,-5.204699225625395,-4.381604142141342,-0.600728781991452
1772025049358649600,4.402649658203125,-3.3413960015177726,-2.5816052232086655,-0.8458363459937274
1772025049368646700,4.412646728515625,-1.7296984712600707,-1.054427804633975,-0.8530470080249011
1772025049378643500,4.4226435546875,-0.04965747261643409,0.049912908682227135,-0.49311961727440357
1772025049388640800,4.432640869140625,1.3371370772778988,0.745133307403326,-0.041076106753945345
1772025049398637600,4.442637451171875,2.6113638171344995,1.0680728836268185,0.6203387607380747
1772025049408634600,4.452634521484375,3.9087142429471013,1.2887632147312162,1.3417957167387007
1772025049418631700,4.462631591796875,5.026174550077319,1.453788941758871,1.919900725120306
1772025049428628500,4.47262841796875,5.918252568894625,1.3145634264200925,2.424560704193264
1772025049438625500,4.48262548828125,6.92124244723618,1.197811024174094,2.9169790413305163
1772025049448622600,4.49262255859375,7.640460392138362,1.3174538871645927,3.345025882452726
1772025049458619600,4.50261962890625,7.8271806491017335,0.9817346166059374,3.7813077602177856
1772025049468616400,4.512616455078125,7.916770319133996,0.538147384263575,4.218976123905182
1772025049478613500,4.522613525390625,8.11760794877708,0.415661406801641,4.442141612951457
1772025049488610600,4.532610595703125,8.245520042940974,0.45418315289765593,4.492290960738063
1772025049498607600,4.542607666015625,8.271552309820056,0.5717652839660644,4.385885472722351
1772025049508604400,4.5526044921875,8.352218668684364,0.7668614473477006,4.100931343761086
1772025049518601700,4.562601806640625,8.415200902298093,1.0796803193122149,3.8996746119230985
1772025049528598500,4.5725986328125,8.430417760652304,1.4213243037447332,3.730634388557076
1772025049538595600,4.582595703125,8.358858837351203,1.6559829544469713,3.5014974238857626
1772025049548589800,4.59258984375,8.388250351530314,1.8732482795387506,3.3716841722756623
1772025049558586600,4.602586669921875,8.48615250735581,2.0398802727192638,3.2610978914439674
1772025049568583700,4.612583740234375,8.4414640553236,2.076523365461826,3.0300375574946403
1772025049578580700,4.622580810546875,8.3697180850178,2.0738146910250186,2.891132067890465
1772025049588577800,4.632577880859375,8.234498882710934,2.103311126883328,2.7831805194765327
1772025049598574600,4.64257470703125,7.923803871032595,2.176623908114433,2.4813728708699343
1772025049608571600,4.652571533203125,7.268022333252429,2.066879923325777,2.1369579604193567
1772025049618568700,4.662568603515625,6.164397074729203,1.7367805384755133,1.826979134186357
1772025049628565800,4.672565673828125,4.901844990575313,1.0809478550300002,1.0794788053907454
1772025049638562600,4.6825625,3.2834675441622734,0.31278058578073975,0.3467991752386093
1772025049648559600,4.6925595703125,1.1049269887715578,-0.8638809751197695,-0.13856646690815685
1772025049658556700,4.702556640625,-1.6858996615439652,-2.4302181454330682,-0.7225295536682009
1772025049668553500,4.712553466796875,-4.282243019679188,-4.036216587266326,-1.4022099995605646
1772025049678550800,4.72255078125,-6.667656393224001,-5.094420403307676,-2.284630401585996
1772025049688548600,4.732548583984375,-9.119721044284105,-6.336480903574824,-2.6945862902224063
1772025049698545700,4.742545654296875,-12.894396234619617,-6.845797622412443,-3.0063083068609235
1772025049708541700,4.752541748046875,-16.524340297937393,-4.278056089383363,-4.694768174281716
1772025049718539800,4.762539794921875,-17.287704843080043,-0.8646347160965204,-8.35341693855822
1772025049728536600,4.77253662109375,-14.842085130375622,-0.955394014430046,-10.59066219637394
1772025049738533600,4.78253369140625,-12.551985649728774,-2.9959423956692217,-10.25139867733717
1772025049748530700,4.79253076171875,-12.56771513378024,-4.416126589468122,-8.740641063165665
1772025049758527700,4.80252783203125,-12.094735218214987,-5.008516143789887,-6.466604244047403
1772025049768524500,4.812524658203125,-10.097028784358502,-5.620498871853948,-3.9137887697324154
1772025049778521900,4.82252197265625,-8.588597567307948,-5.296895863285661,-1.6320961751639842
1772025049788518700,4.8325185546875,-6.866610693338513,-4.444285931503773,-0.12172522222250699
1772025049798515700,4.842515625,-4.642395012965798,-3.3179327083438634,0.6577285801947117
1772025049808512800,4.8525126953125,-3.330889805072546,-2.321544420224428,0.7259969375178218
1772025049818509600,4.862509521484375,-2.9083412691056725,-1.8972168918862937,0.46483284946680065
1772025049828506600,4.872506591796875,-2.5687217762380836,-2.002626354601979,0.073973583227396
1772025049838503700,4.882503662109375,-2.2282652480244636,-2.2988038883671162,-0.7099602872133255
1772025049848500700,4.892500732421875,-1.8130501236855983,-2.0052914821580052,-0.7824065147429704
1772025049858497500,4.90249755859375,-0.5607669200897216,-1.693227520214021,-0.5821402552470565
1772025049868494800,4.912494873046875,1.1497890438050031,-1.3196604572981596,-0.01278612407594919
1772025049878491600,4.92249169921875,2.5398241830557584,-0.9587102993711829,1.2632111325845121
1772025049888488700,4.93248876953125,3.4282553698033094,-0.7273264325559139,2.821011652959883
1772025049898485800,4.94248583984375,4.403905405798554,-0.6336831032186746,4.003148430401087
1772025049908482800,4.95248291015625,5.3509495250344274,-0.8706471082538366,4.806459201484918
1772025049918479600,4.962479736328125,6.1011535598307844,-1.181327068493515,5.292077649348974
1772025049928476700,4.9724765625,6.744339235410094,-1.3802058191537856,5.651310189703106
1772025049938473700,4.9824736328125,7.312772744604945,-1.3612953669786452,5.953505668583512
1772025049948470500,4.992470458984375,7.962063751322031,-1.1357122953966259,5.95261368817985
1772025049958467800,5.0024677734375,8.472204646024107,-0.8975812924087047,5.691826909008622
1772025049968464600,5.012464599609375,8.854964192438125,-0.6987526645004749,5.3722436574757095
1772025049978461700,5.022461669921875,9.094537503188848,-0.4976490773975849,4.982915254065394
1772025049988458800,5.032458740234375,9.168001967850326,-0.2753410819634795,4.554132792145014
1772025049998455800,5.042455810546875,9.114651485934854,-0.038136253909766674,4.190357639925182
1772025050008452600,5.05245263671875,9.003977526819705,0.20218086094558238,3.782041919711232
1772025050018449700,5.06244970703125,8.798253294178844,0.5314113540068268,3.371318846094608
1772025050028446700,5.07244677734375,8.453894497829674,0.8225976553559303,3.101838765119016
1772025050038443500,5.082443603515625,8.07743375929892,0.9474754963904619,2.7605694592177867
1772025050048440600,5.092440673828125,7.437229145357012,1.0144263413742185,2.375672316253185
1772025050058437600,5.102437744140625,6.501833378338813,1.0025497333586215,1.7761562710523604
1772025050068434700,5.1124345703125,5.5808472449451685,0.9818675953358411,1.1916307281039655
1772025050078431500,5.122431396484375,4.661262210521102,0.8054168034523725,0.3117472972102463
1772025050088428800,5.1324287109375,3.0817110461086035,0.4740548513203859,-0.7096843928813934
1772025050098425600,5.142425537109375,0.4445283125847578,-0.014503157126903534,-1.303129885996878
1772025050108422700,5.152422607421875,-1.864069532305002,-0.7845549249485134,-1.8638013828881084
1772025050118419700,5.162419677734375,-3.7885499864310024,-1.6614526180297136,-2.721948928922415
1772025050128416800,5.172416748046875,-6.282108677396178,-2.8948423205852505,-3.4653234099596735
1772025050138413600,5.18241357421875,-8.391661036756634,-4.051500081115961,-3.9628511990651485
1772025050148411000,5.192410888671875,-10.61018522748947,-4.865052260228992,-3.8899519670709966
1772025050158407700,5.20240771484375,-13.24194944309592,-5.786382092493772,-3.6570232089012857
1772025050168404500,5.212404541015625,-15.560358487904072,-4.706397237277031,-4.638788805167377
1772025050178401800,5.22240185546875,-15.744047998869418,-1.6451678381830452,-7.740283871415257
1772025050188398600,5.232398681640625,-14.852569114989041,-0.05570668965280055,-10.693797576677799
1772025050198395600,5.242395751953125,-12.881684052562713,-1.8064824357330798,-10.639538747745751
1772025050208392700,5.252392822265625,-11.548971805989742,-3.41348333260715,-8.599345171293615
1772025050218389800,5.2623896484375,-11.139762059545516,-3.1311651051074265,-6.565816897949576
1772025050228386600,5.272386474609375,-9.940736983406543,-3.7181753044784065,-4.417390910315514
1772025050238383900,5.2823837890625,-9.026115708869694,-3.9919004756778476,-2.0554855458691716
1772025050248380700,5.292380615234375,-8.289020161971449,-2.863874935391545,-0.5422153643548488
1772025050258377700,5.302377685546875,-6.290495397469401,-1.7917904780358076,-0.2563561032474041
1772025050268374800,5.312374755859375,-3.60356459043622,-0.22177987990677356,-0.39276685342639683
1772025050278371600,5.32237158203125,-1.3764701397567987,1.495725464734435,-0.3812745685532689
1772025050288368600,5.33236865234375,0.4285328710734844,2.687135974216461,-0.0343424145847559
1772025050298365700,5.34236572265625,1.5662223117619751,3.1109874094754457,0.46200113317221403
1772025050308362800,5.35236279296875,2.1346236722528933,2.9635154593169686,0.7495660291537642
1772025050318359600,5.362359619140625,2.952494883608818,3.2413965811520815,0.9760660694502293
1772025050328356900,5.37235693359375,3.993292222297191,3.043618923601508,1.436210176578909
1772025050338353700,5.382353759765625,5.03657962423563,2.2856045073151585,1.9302515848733484
1772025050348350700,5.392350830078125,6.084747783952951,1.9658862312257288,2.2975687936142086
1772025050358347800,5.40234765625,6.995887646114825,1.8921727602392433,2.640788064539432
1772025050368344800,5.4123447265625,7.782698533296585,1.9018115262001751,3.102418610833585
1772025050378341600,5.422341552734375,8.210227195763588,2.098123787373304,3.540460484008491
1772025050388338700,5.432338623046875,8.433355567669867,2.1336317386060952,3.6927947795063254
1772025050398335700,5.442335693359375,8.616241361036897,1.9698972204327583,3.7378748612046238
1772025050408332500,5.45233251953125,8.696175898495316,1.8964879930898546,3.9525522156298156
1772025050418329600,5.46232958984375,8.64967484408319,1.9624591793864965,4.093993945713341
1772025050428326700,5.47232666015625,8.635449334853886,2.1768103705972432,3.942104471373558
1772025050438323700,5.48232373046875,8.766215064883232,2.3758973571807145,3.4673768353581425
1772025050448320500,5.492320556640625,8.806842843347788,2.540786890608072,3.0838831294506788
1772025050458317800,5.50231787109375,8.777243823897837,2.697981193357706,2.8578648813217877
1772025050468315600,5.512315673828125,8.82371565221548,2.7452111465662714,2.622178641137481
1772025050478312700,5.522312744140625,8.805146560823918,2.691108969500661,2.287193968463689
1772025050488309500,5.5323095703125,8.679656140848994,2.5665663517698643,1.970041305078566
1772025050498306800,5.542306884765625,8.673087868374585,2.4030095282509922,1.7507321991994975
1772025050508303600,5.5523037109375,8.647543677273392,2.1742840669900176,1.7340705488644539
1772025050518300700,5.56230078125,7.958983320963382,2.1314880045756697,1.8239809752836822
1772025050528297700,5.572297607421875,6.992177101159095,1.8953852925449608,1.9089315873384474
1772025050538294800,5.582294677734375,5.981344108101725,1.3734271187990903,1.7205711619526147
1772025050548294700,5.592294677734375,4.482973097294569,0.4024655328810215,1.2754920836172998
1772025050558291700,5.602291748046875,2.5339228500574826,-1.0194891777217387,0.7062122597914189
1772025050568288500,5.61228857421875,0.14311317042708396,-1.8716507812142371,0.31399014423359184
1772025050578285600,5.62228564453125,-2.814500371369719,-2.703637611684203,-0.27851313612833617
1772025050588282600,5.63228271484375,-5.664682881495356,-4.75718283714056,-0.8826089103348552
1772025050598279700,5.64227978515625,-9.089006172546744,-7.352959209042787,-0.973579294135794
1772025050608276500,5.6522763671875,-13.465226283562183,-9.148427498808502,-0.029799473925493657
1772025050618273500,5.6622734375,-16.629050380212067,-9.781009947308897,1.1327454084150492
1772025050628270600,5.6722705078125,-18.11482202168703,-6.691111503091454,0.5648024226834997
1772025050638267400,5.682267333984375,-17.121279770648478,-1.1370444207832218,-3.2289234685480595
1772025050648264700,5.6922646484375,-15.74879899278879,0.32430034318268297,-6.574665390315651
1772025050658261500,5.702261474609375,-15.967272232365607,-1.3049454109862446,-6.603913696631789
1772025050668258600,5.712258544921875,-15.060903237867354,-2.4951257941514253,-4.816188276077806
1772025050678255600,5.722255615234375,-13.053392033833264,-3.2484406544446944,-2.9213983190774915
1772025050688252700,5.732252685546875,-11.506835961049795,-4.198468173405528,-0.16432853854373097
1772025050698249500,5.74224951171875,-11.131669938504695,-4.507707141056657,2.567209033587575
1772025050708246800,5.752246826171875,-10.287678781986235,-3.8303178748413917,3.800206814216077
1772025050718243600,5.76224365234375,-8.263546113497018,-2.6417446346119045,2.9614453750446437
1772025050728240400,5.772240478515625,-5.465724489727616,-1.2504463435575366,0.8012950473472475
1772025050738237700,5.78223779296875,-2.814215124687552,0.1712356875836849,-1.038080042553693
1772025050748234500,5.792234375,-0.5386836830973625,1.2888202056154607,-1.697350591493398
1772025050758231600,5.8022314453125,1.135031619656086,1.4049199891716242,-1.36696552156955
1772025050768228600,5.812228515625,2.1103683519184586,0.73675184802711,-1.0802011283159256
1772025050778225700,5.8222255859375,2.9360072746664283,0.3893243117570877,-0.7803066929195076
1772025050788222500,5.832222412109375,4.0592391509354115,0.42015199621915816,-0.4432061240702867
1772025050798219800,5.8422197265625,5.135532165896892,0.28855419927984477,-0.008220569726079702
1772025050808216600,5.852216552734375,6.025737376579642,0.1944479286059737,0.5164920172944665
1772025050818213600,5.862213623046875,6.8348436821997165,0.20568740776181219,0.965854910428822
1772025050828210700,5.872210693359375,7.47071172824204,0.25731471914649007,1.3695600681073963
1772025050838207500,5.88220751953125,7.998477126961946,0.4556558557987213,1.495575388739258
1772025050848204500,5.89220458984375,8.195869000065326,0.6923772842496633,1.4389203123204408
1772025050858201600,5.90220166015625,8.212302832993865,0.6754015995293855,1.3517613765664398
1772025050868198700,5.91219873046875,7.974332865786552,0.5615583627283572,1.1163381712324916
1772025050878195500,5.922195556640625,7.711033227011561,0.6338578752636909,0.5621147545021027
1772025050888192800,5.93219287109375,7.483817878052592,1.0337062113836406,0.2452955608550459
1772025050898190600,5.942190673828125,7.456743993166088,1.5566569032981992,0.3814988057631999
1772025050908187600,5.952187744140625,7.47505589492619,1.9656319642037152,0.5777846903860568
1772025050918184400,5.962184326171875,7.776648147216439,2.181378116904199,0.7120026066958904
1772025050928181800,5.972181640625,7.91519795525074,2.3738044765546915,0.5666148058677092
1772025050938178600,5.982178466796875,7.761942745515704,2.430384734171629,0.5319294230641797
1772025050948175600,5.992175537109375,7.4758783172249785,2.175845032696426,0.30599070644490417
1772025050958172700,6.002172607421875,6.9899354597121475,2.2229013829037547,-0.06158639534115791
1772025050968169700,6.012169677734375,6.591746288976073,2.569081841722131,-0.2683539264898747
1772025050978166500,6.02216650390625,6.329436830282211,2.9244834256112573,-0.06033274201825261
1772025050988163600,6.03216357421875,6.18932108810544,3.3916032169714567,0.35458128048218784
1772025050998160600,6.04216064453125,6.35483898256421,3.7439927595630285,0.6688805271975695
1772025051008157400,6.052157470703125,6.867943403246999,3.924420053862035,-0.02780044559538364
1772025051018154500,6.062154541015625,5.323999558788538,3.2143352634862064,-3.096929658028483
1772025051028151600,6.072151611328125,3.3485552256226536,1.890362495946884,-7.307095283490419
1772025051038148600,6.082148681640625,1.8354110085755586,0.03524199377298355,-10.843139412361383
1772025051048145400,6.0921455078125,0.23472119454443455,-1.5172925688982009,-8.856362368798255
1772025051058142700,6.102142822265625,-8.106945684987306,-2.915138089638948,-3.4977883402347563
1772025051068139500,6.112139404296875,-15.270365487992763,-4.9195372991323465,0.13965207018777728
1772025051078136600,6.122136474609375,-9.509351060989498,-7.394359725445509,1.5596433717630802
1772025051088133600,6.132133544921875,-9.331603215032816,-9.031790831896663,3.5061043331593273
1772025051098130700,6.142130615234375,-13.379280522990227,-7.882063747411966,1.6178920009836553
1772025051108127500,6.15212744140625,-15.570145722424982,-2.360959315767884,-2.4570497459962963
1772025051118124500,6.16212451171875,-12.79793141812086,-0.43692952801883217,-4.032836004917323
1772025051128121600,6.17212158203125,-10.663749644416571,-3.7373423617631194,-2.165697586560994
1772025051138118400,6.182118408203125,-10.260860917687415,-5.770027754542231,2.3207529775857925
1772025051148115700,6.19211572265625,-9.545206218224763,-5.331291469362378,4.777454640796781
1772025051158112500,6.202112548828125,-8.109539793133735,-5.185131770846247,5.018046188679337
1772025051168109600,6.212109619140625,-6.902602044174075,-5.258319172132015,4.945381934484839
1772025051178106600,6.222106689453125,-5.229672338840365,-4.624448437386751,4.394874250341951
1772025051188103700,6.232103759765625,-3.5050562854111194,-3.3698753692880272,3.421787342832982
1772025051198100500,6.2421005859375,-1.8448387621343134,-2.13015441788435,2.5647695314809678
1772025051208097800,6.252097900390625,-0.24478958409428594,-0.8232230937778949,1.6413962106898425
1772025051218094600,6.262094482421875,0.950940542152524,-0.016867255909740923,0.672781699354574
1772025051228091600,6.272091552734375,1.8485311869114636,0.5481842096313834,0.12066533790603279
1772025051238088700,6.282088623046875,2.8696260462641714,1.1828224216178058,-0.11309849198148585
1772025051248085500,6.29208544921875,4.089039830437303,1.4269564644128083,-0.0973468417639844
1772025051258082600,6.30208251953125,4.980981071132422,1.2502882303863763,0.30741715905144806
1772025051268079600,6.31207958984375,5.246538133445382,0.850099410265684,1.1665480170346796
1772025051278076700,6.32207666015625,6.020383156070113,0.37669542406946416,2.1259420608863233
1772025051288073500,6.332073486328125,6.590532237011194,-0.06888210530728102,2.5581886917859316
1772025051298070800,6.34207080078125,7.255906363523006,-0.1805424451112747,2.4825249635145066
1772025051308067600,6.352067626953125,7.616502008923888,0.3352107365146279,2.2444924524649976
1772025051318064600,6.362064697265625,7.561594360694289,0.7491413740009069,2.2558627183936535
1772025051328061700,6.372061767578125,7.133750640928745,0.5339183683916926,2.520391752833128
1772025051338058800,6.382058837890625,6.838256705513596,0.4127235997840762,2.684113411524892
1772025051348055600,6.3920556640625,6.981608360871673,0.6065978201553225,2.4177111305594443
1772025051358052600,6.402052490234375,7.116438271600008,0.8622042740792035,1.7072735812231898
1772025051368049700,6.412049560546875,7.3544228518545625,1.2109127900704741,1.029313164056465
1772025051378046500,6.42204638671875,7.516080563753843,1.4909291703686118,0.7236063891194761
1772025051388043500,6.43204345703125,7.586735231691598,1.8455583085805176,0.7639917371302842
1772025051398040600,6.44204052734375,7.572979678061604,2.2147236294060946,0.7585059991955757
1772025051408037600,6.45203759765625,7.367664610743522,2.3180717756778,0.49980786286666984
1772025051418034400,6.462034423828125,7.09239279462397,2.4396099508956075,0.32609544643852856
1772025051428031700,6.47203173828125,6.809311766058206,2.6361718029156327,0.17360596037898213
1772025051438028500,6.482028564453125,6.592942805284261,2.8682182252928614,-0.03609367869887501
1772025051448025600,6.492025634765625,6.0492971158653495,3.0116642809361216,-0.15261011676453054
1772025051458022700,6.502022705078125,4.979588739991188,2.9313018734544514,-0.033080468357540666
1772025051468019500,6.51201953125,3.498298043322563,2.8165196022376415,0.007864924688823521
1772025051478016500,6.5220166015625,1.5704396371960638,2.5048618830069898,-0.39857027900815006
1772025051488013600,6.532013671875,-1.4383072949886322,1.722830923578143,-0.702587493423
1772025051498010600,6.5420107421875,-4.410003138151764,0.384187533390522,-1.1700120398834346
1772025051508007400,6.55200732421875,-6.930745604118704,-1.0754232463896274,-2.2054002130046486
1772025051518005500,6.562005615234375,-9.152449593931436,-2.541653736570477,-2.8446175694748757
1772025051528002600,6.57200244140625,-11.788670204424857,-4.469109991636872,-2.2350275817662477
1772025051537999600,6.58199951171875,-14.15127261122465,-6.741327778634429,-0.8793768696110695
1772025051547992800,6.591992919921875,-15.80814433120489,-7.2733654478460545,-0.16691314820945263
1772025051557990100,6.601990234375,-17.23636628550887,-3.0284687007427213,-2.4941531497269867
1772025051567987000,6.611987060546875,-15.486180322015285,-1.3620803798764942,-2.8354081348419187
1772025051577984000,6.62198388671875,-13.97657889214158,-3.8888177023440598,-0.25872685096673664
1772025051587981000,6.63198095703125,-13.672953672719,-4.730785244080424,0.9664085987888276
1772025051597977900,6.641977783203125,-12.19384090461135,-4.867600775668024,1.575711732380092
1772025051607975000,6.651974853515625,-11.058221255934237,-4.876620532947778,1.9246444125160573
1772025051617972000,6.661971923828125,-10.417703338259457,-4.482810015687346,1.8426853834927082
1772025051627969000,6.671968994140625,-9.63680313642621,-4.0838761640638115,1.5772358732074498
1772025051637965800,6.6819658203125,-8.232595679438115,-3.2331139059752223,1.0081809441786258
1772025051647963100,6.691963134765625,-6.152456461566686,-1.5115174926280974,0.1375926899725571
1772025051657960000,6.7019599609375,-3.569606791254878,0.3540834870278835,-0.27579247899278997
1772025051667957000,6.71195703125,-0.7962748810976743,1.7659528569459915,-0.24408165502063928
1772025051677954000,6.7219541015625,1.549941039046645,2.6706764223247763,0.037939489228650924
1772025051687951000,6.731951171875,3.0128900233387945,3.0211726985156533,0.4791925064697861
1772025051697948000,6.741947998046875,3.9048371092528105,3.013070056080818,0.8954464723370968
1772025051707945000,6.751945068359375,4.882571550306677,2.7802339446306226,1.2359930169217288
1772025051717942000,6.76194189453125,5.980144669184089,2.485812606883049,1.4368196867793797
1772025051727938800,6.771938720703125,6.944528630277514,2.009119223752618,1.67732574833557
1772025051737936100,6.78193603515625,7.813302345874905,1.524929347386956,1.915290308715403
1772025051747933000,6.791932861328125,8.389536299687624,1.1480185270011425,2.17916599381268
1772025051757930000,6.801929931640625,8.547446641752124,0.8273857664152979,2.5075544830918313
1772025051767927000,6.811927001953125,8.458618603742122,0.6641144818395376,2.7703970257490873
1772025051777924000,6.821924072265625,8.349583059483766,0.7141828733444213,2.9666417746439575
1772025051787921000,6.8319208984375,8.255388526004552,0.9254735079407691,2.9677269395321604
1772025051797918200,6.841918212890625,8.07197023319602,1.2575088292896748,2.848522760219872
1772025051807915000,6.8519150390625,7.897280605766177,1.6000564845636487,2.6667639250561592
1772025051817911800,6.861911865234375,7.845700640654563,1.886274642111361,2.350767007577419
1772025051827909000,6.8719091796875,7.801590280771255,2.1535563362598418,2.066940713602304
1772025051837906000,6.881906005859375,7.767517915299535,2.3607480111047625,1.7914372806839645
1772025051847903000,6.891903076171875,7.619913863193989,2.453599605542421,1.399533912219107
1772025051857900000,6.901900146484375,7.510801162046193,2.4993235381022094,1.1752573201257734
1772025051867897000,6.91189697265625,7.337582191690802,2.5465622591391206,1.1182400593310593
1772025051877894000,6.921893798828125,7.044725034520029,2.5375094763725996,0.9299098829530179
1772025051887891000,6.931890869140625,6.7711062463045115,2.5064707795083523,0.663145636807382
1772025051897888000,6.941887939453125,6.4520864738732575,2.6547622293561695,0.4744693504054099
1772025051907885000,6.951885009765625,5.831735145914554,2.91798821837306,0.2810167895123362
1772025051917881900,6.9618818359375,5.004317523056268,3.079251962518692,-0.20021677606469018
1772025051927879000,6.97187890625,4.158490383282303,2.9271336478590966,-0.9727909202370792
1772025051937876000,6.9818759765625,2.8302339470744133,2.3262416381299493,-1.7659993264362215
1772025051947872800,6.991872802734375,1.380094759994745,1.2092267366796732,-2.447228755336255
1772025051957870000,7.0018701171875,-0.49108840370774265,-0.3352045990347862,-2.729365050397813
1772025051967867000,7.011866943359375,-3.822333013567328,-1.7738275358438491,-1.9868524468868969
1772025051977864000,7.021864013671875,-6.226808814978599,-3.1475550988942382,-1.281762688319385
1772025051987861000,7.031861083984375,-8.193665352541208,-4.275060999220609,-1.3934202516444028
1772025051997858000,7.041858154296875,-12.012067456400393,-6.020035950067639,-0.1369323263676837
1772025052007854800,7.051854736328125,-14.829956301164627,-7.259785835304855,1.9419220027923583
1772025052017852200,7.06185205078125,-15.866732129251956,-2.850529716128111,-0.4704978529585525
1772025052027849000,7.071848876953125,-13.671487691819667,-0.09721241999566554,-3.7707524639338255
1772025052037846000,7.081845947265625,-12.546042231154441,-2.229611401936412,-4.611001803575456
1772025052047843000,7.091843017578125,-13.081024721646308,-3.8204379936009643,-3.3851246686071157
1772025052057839900,7.10183984375,-12.896188378733395,-4.536313057816028,-1.4441193422682583
1772025052067837000,7.1118369140625,-12.279198636162281,-5.659753023877739,0.774994265725091
1772025052077834000,7.121833984375,-11.647863557374476,-6.693360158801078,2.32191383805871
1772025052087831000,7.1318310546875,-10.444385593479872,-6.990690661993622,2.560181034646928
1772025052097827800,7.141827880859375,-8.411807752728462,-6.2269233812689775,2.738288069304824
1772025052107825200,7.1518251953125,-5.754497007933258,-4.513104616186022,2.616153681759536
1772025052117822000,7.161822021484375,-3.210227535906434,-2.6259406240195036,2.1373102809883653
1772025052127819000,7.171819091796875,-1.3588982427090406,-1.038355206233263,1.503285232464224
1772025052137816000,7.181816162109375,0.23028175079226493,0.09977087230682373,0.8885586125195026
1772025052147813000,7.191813232421875,1.1132815601408481,0.6343821913987397,0.4826140053510666
1772025052157810000,7.201809814453125,1.9429957695037126,0.87045421603024,0.4564486136116087
1772025052167807000,7.211806884765625,3.283283419767022,1.2104402041226625,0.7275846451006829
1772025052177804000,7.221803955078125,4.5021530140608546,1.5632242989897727,1.2849616304911673
1772025052187800800,7.23180078125,5.649247411954403,1.7812065401792525,1.9036612457200883
1772025052197798000,7.2417978515625,6.650600629004836,1.8513567657262087,2.492558281750977
1772025052207795000,7.251794921875,7.488907894667983,1.9442396320849655,3.003004589140415
1772025052217792000,7.2617919921875,8.063124663439392,1.9143314005553722,3.287306099411845
1772025052227788800,7.271788818359375,8.325071134039758,1.8216233062416314,3.264873902851343
1772025052237786000,7.2817861328125,8.516979607295989,1.7948560030862688,3.0350553856566544
1772025052247783000,7.291782958984375,8.69704332897961,2.1204852567851544,2.761460270577669
1772025052257780000,7.301780029296875,8.79257057236731,2.450893853715062,2.3429385059088466
1772025052267777000,7.311777099609375,8.68544466112256,2.5788737524181604,1.961300072479248
1772025052277773800,7.32177392578125,8.64667157061398,2.4800202872171995,1.6845953009471297
1772025052287771000,7.33177099609375,8.40146054623723,2.363922841748595,1.4357073416233062
1772025052297768000,7.341767822265625,8.125758522006869,2.3164894749224185,1.2008888241842388
1772025052307765000,7.351764892578125,7.844336366564035,2.32432937476784,0.9901235286362469
1772025052317761800,7.36176171875,7.523871656021475,2.384212473322451,0.7284457919746636
1772025052327759000,7.371759033203125,7.186652210032939,2.4793714679196475,0.47520942818298934
1772025052337756000,7.381755859375,6.832777981841564,2.5782582508683203,0.2878787477036938
1772025052347753000,7.3917529296875,6.401767322477698,2.667436125229299,0.004340221161395311
1772025052357750000,7.40175,5.946935642543434,2.8383324978560207,-0.49006015663854774
1772025052367748000,7.411748046875,5.277230793350935,3.0282395681619643,-1.1028132114879787
1772025052377745000,7.421744873046875,4.474847658506036,3.2104069841265677,-1.902289080584049
1772025052387742000,7.431741943359375,3.450125256305933,3.2570471547484394,-2.771396850441396
1772025052397739000,7.441739013671875,1.9603502244085071,3.130474200233817,-3.4902366096809505
1772025052407736000,7.451736083984375,-0.03912731077373027,2.547871880432963,-3.679011753347516
1772025052417732900,7.46173291015625,-2.426975217989087,1.777621082907915,-3.4814860247313972
1772025052427730200,7.471730224609375,-4.961301388150453,0.9309370340436697,-3.278660143880546
1772025052437727000,7.48172705078125,-7.164716272556781,-0.9066787910997867,-3.567883912985027
1772025052447723800,7.491723876953125,-9.8581229976058,-2.9691654479026792,-3.0441905860096212
1772025052457721000,7.50172119140625,-12.458581389844417,-5.248669884777069,-1.3944246063813566
1772025052467718000,7.5117177734375,-14.676222368001937,-6.255222424036264,-0.5421550124697387
1772025052477715000,7.52171484375,-14.43035375649929,-3.383593221256137,-3.929682796695828
1772025052487712000,7.5317119140625,-11.282087294465303,-2.9667928735524414,-6.350478449267149
1772025052497709000,7.541708984375,-10.50139868955612,-5.870690022730827,-3.5156975064128635
1772025052507705900,7.551705810546875,-10.809687224614619,-7.636790179193019,-0.044280181758571416
1772025052517703200,7.561703125,-10.060374585700034,-8.53579712049067,1.9650670237973331
1772025052527700000,7.571699951171875,-9.081053167715668,-9.66617419233918,3.782516843746602
1772025052537697000,7.581697021484375,-8.34690945636034,-10.397098941648006,4.706197915312647
1772025052547694000,7.591694091796875,-7.241291562715173,-9.699601830166579,4.455229642583429
1772025052557691000,7.60169091796875,-5.976994096198678,-8.547934717530012,4.062823439162969
1772025052567687700,7.611687744140625,-4.95422048997879,-6.895695918047427,3.2535183961004015
1772025052577685000,7.62168505859375,-3.9176714563846584,-4.467060073369741,1.8048732469707727
1772025052587681800,7.631681884765625,-2.242102634719014,-1.7390841392427683,0.5534281016342342
1772025052597678800,7.641678955078125,-0.6169044023752213,0.632930823546648,0.14919775103777647
1772025052607676000,7.651676025390625,0.5773679262787104,1.9508768781423567,0.3932290641106665
1772025052617673000,7.6616728515625,1.675206418094039,2.631051683422923,0.7911009855911135
1772025052627669800,7.671669677734375,2.7139818955659867,3.1026193941026925,0.9913163916826248
1772025052637666800,7.681666748046875,3.651224167233705,3.4681191781580445,1.1513894647389649
1772025052647663900,7.691663818359375,4.683832938769459,3.6496816139668224,1.434665869746357
1772025052657661000,7.701660888671875,5.743545405808091,3.5656086615294216,1.8832053176686168
1772025052667657700,7.71165771484375,6.459813853254914,3.598061609105766,2.299203262948245
1772025052677654800,7.72165478515625,6.918021147102118,3.398518110926449,2.4564134939193725
1772025052687651800,7.73165185546875,7.262609076032042,2.9906533493503926,2.394879559417814
1772025052697648600,7.741648681640625,7.213977439332008,3.0534014819473025,2.481032094608247
1772025052707646000,7.75164599609375,7.1651651853680605,3.282043064317107,2.645727274507284
1772025052717642800,7.761642822265625,7.3621028849631545,3.266924990162253,2.5397607624307272
1772025052727639800,7.771639892578125,7.44586837888658,3.128499100768566,2.5384733529686927
1772025052737636900,7.781636962890625,7.53706723768115,2.972987344278395,2.5337922094151377
1772025052747634000,7.791634033203125,7.592089452201128,2.8578786175861954,2.5774954498022793
1772025052757630700,7.801630615234375,7.534294265836476,2.663267899633944,2.618089910519123
1772025052767628000,7.8116279296875,7.540836819347739,2.4241399945631623,2.6092902257308364
1772025052777624800,7.821624755859375,7.4642545149266715,2.3090686772719025,2.4427616929247975
1772025052787621600,7.83162158203125,7.188371288910508,2.2863135323673487,2.128572701650858
1772025052797619000,7.841618896484375,6.892516703489423,2.2107395282059907,1.7061778949409723
1772025052807615700,7.85161572265625,6.466231903603672,2.0009709886103866,1.2881325156122445
1772025052817612800,7.86161279296875,5.787099300852417,1.759957415923476,0.8040183348312974
1772025052827609900,7.87160986328125,4.853445409065484,1.680595709916949,0.40088681232221424
1772025052837607000,7.88160693359375,3.932525326645374,1.4511995097875594,-0.24493523964267222
1772025052847603700,7.891603759765625,3.264670489233732,0.8971019844591617,-1.152821543368697
1772025052857601000,7.90160107421875,2.3103631009966135,0.46413551485240456,-1.7707798387110232
1772025052867597800,7.911597900390625,0.8462614395380019,0.00046761751174926756,-2.346911355062574
1772025052877595000,7.921594970703125,-1.1076800868719816,-1.108273961111903,-2.401776040933281
1772025052887592000,7.931592041015625,-3.6501369565188884,-2.881360907721519,-1.3514946884542702
1772025052897589000,7.941589111328125,-5.59609975913465,-5.251306078499555,0.12243126073316671
1772025052907585800,7.951585693359375,-7.389596456566452,-7.753106528109312,1.5142854960367083
1772025052917582800,7.961582763671875,-10.943236447882652,-9.098608698150516,1.92048027857393
1772025052927580000,7.971579833984375,-14.003540548825264,-10.342927790999411,2.017617295245826
1772025052937576700,7.98157666015625,-14.788373413932323,-9.313377822512388,1.1059939604159443
1772025052947574000,7.991573974609375,-13.367213653099537,-5.474904406005144,-1.7049002762205898
1772025052957570800,8.00157080078125,-12.133978848844766,-5.040147545850276,-1.2000661096245049
1772025052967568000,8.01156787109375,-11.864527117180824,-6.432858626312017,1.9396477742500602
1772025052977565000,8.02156494140625,-10.995689104175566,-6.117539461964369,3.819817523615062
1772025052987562000,8.03156201171875,-9.758813897591828,-5.558260734605789,4.681114327460527
1772025052997558800,8.041558837890625,-9.224687147146463,-4.772191605702043,5.753472925582527
1772025053007555800,8.051555908203126,-7.9380691277503965,-3.3478158054322003,6.258426188513636
1772025053017553000,8.061552978515625,-6.304919059619307,-2.4749998287066814,5.561211401104927
1772025053027549700,8.0715498046875,-4.504145649182796,-1.284483637715876,4.071695604665577
1772025053037546800,8.081546630859375,-2.1735464003652334,0.7437620190501213,2.3353807840056717
1772025053047543800,8.091543701171876,0.20744097343087195,2.3031018778219816,0.738449664920941
1772025053057540900,8.101540771484375,1.4714479325681924,2.776361487111449,-0.41349443802610036
1772025053067537700,8.11153759765625,1.838470980668068,2.9406495475143193,-1.2155919608626513
1772025053077535000,8.121534912109375,2.3145436015516516,2.988832271403074,-1.6354719352073968
1772025053087531800,8.13153173828125,3.1186195117890834,2.948717703157663,-1.7341019669160245
1772025053097528800,8.14152880859375,4.094943501523137,2.896617221303284,-1.5814377088114617
1772025053107526000,8.15152587890625,4.881239424920082,2.957328879636526,-1.2742341925106941
1772025053117523000,8.16152294921875,5.54304153816402,3.1810204383835194,-0.670455813690275
1772025053127519700,8.171519775390625,5.562364662793279,3.4026518497303124,-0.03622209085151553
1772025053137516800,8.181516845703126,5.488259562140703,3.6157027719974515,0.28781510788295417
1772025053147513900,8.191513916015625,5.72366581633985,3.6402518145814535,0.3369381813617423
1772025053157510700,8.2015107421875,5.658246710968017,3.468421960496902,0.2953699802419171
1772025053167508700,8.2115087890625,5.500643827417493,3.0062559921517966,-0.012042941025830804
1772025053177505800,8.221505859375,5.9241422114551066,2.4872905704811212,-0.635551235178113
1772025053187502800,8.2315029296875,6.023778643727302,2.403028525212407,-1.389190066728741
1772025053197499600,8.241499755859374,6.081797117453813,2.695577054825425,-1.9371338917329906
1772025053207497000,8.2514970703125,6.409202440914512,3.1885061179637906,-2.3783260456323623
1772025053217493800,8.26149365234375,6.750196729266643,3.7178362817823887,-1.9102759876847266
1772025053227490800,8.27149072265625,6.847073633697629,4.1766503093510865,-1.3035739765025673
1772025053237487900,8.28148779296875,6.40965310729146,4.6225376353293655,-1.1324890225011854
1772025053247485000,8.29148486328125,5.989221125087141,4.983990774342417,-1.3854590635068713
1772025053257481700,8.301481689453125,5.802897173964977,5.358513238286972,-1.6391975316017866
1772025053267479000,8.31147900390625,5.6773079697906965,5.932858017352223,-1.396920807111263
1772025053277475800,8.321475830078125,5.8805275261342524,6.290269187498092,-0.9176325851820408
1772025053287473000,8.331472900390626,5.734245078021288,5.936059443742036,-0.7926599054709076
1772025053297470000,8.341469970703125,5.634899153128266,5.345448589530587,-1.8136156486138701
1772025053307466800,8.351466796875,5.412780835047364,4.960264446318149,-2.5019357664272186
1772025053317463800,8.3614638671875,4.432676157730818,4.408890792995691,-1.9606163279987872
1772025053327460900,8.3714609375,1.8250643866062164,2.8758646483927963,-0.755304134414345
1772025053337458000,8.3814580078125,-1.7044447875380515,0.21075638158917426,0.748476334220916
1772025053347454700,8.391454833984374,-3.5514988876342772,-3.339354851078987,2.1478430731795726
1772025053357452000,8.4014521484375,-4.6984056540012356,-6.66650137796998,2.5406585880532857
1772025053367448800,8.41144873046875,-7.381200968664884,-7.933477123785019,1.8522607288286088
1772025053377446000,8.42144580078125,-10.494288565289974,-8.345051845794917,1.001626919425279
1772025053387443000,8.43144287109375,-11.4361777859807,-9.738702837455271,1.2226720553167163
1772025053397440000,8.44143994140625,-10.551985551977157,-6.998543129059672,0.11529124365225434
1772025053407436800,8.451436767578125,-8.663222892442345,-4.443252496802806,0.6469904746897518
1772025053417433900,8.461433837890626,-8.22505067088604,-5.782303298747539,3.017948768033087
1772025053427431000,8.471430908203125,-8.171224972674251,-6.531501955893636,4.948261873835325
1772025053437427700,8.481427734375,-8.000831581133603,-6.414398840513825,6.408112892112135
1772025053447424800,8.4914248046875,-7.946774996775388,-7.028043364310264,7.372453014063835
1772025053457421800,8.501421875,-8.009242851126194,-6.968024656677246,7.059649631929397
1772025053467419000,8.5114189453125,-7.350870712330937,-6.413168421936035,5.460336951470374
1772025053477415700,8.521415771484374,-6.420460332509875,-5.605777103540301,3.15115166208148
1772025053487413000,8.5314130859375,-5.4168467693120235,-3.721874743518233,0.9988558472767471
1772025053497409800,8.541409912109375,-4.143230854830145,-1.2509084081113337,-0.723868401056528
1772025053507406800,8.55140673828125,-2.8872055420964955,0.9885475114911794,-1.759394229082763
1772025053517404000,8.56140380859375,-1.7341209638774393,2.0678268487870692,-1.8230211903408169
1772025053527400700,8.571400634765626,-0.8862187713950872,1.951442987592518,-1.4215470065847038
1772025053537397800,8.581397705078125,0.18419219979047774,1.2610975014314054,-1.178369387731701
1772025053547394300,8.591394287109376,1.0684241812825201,0.7228823126286268,-0.937490474275127
1772025053557391400,8.601391357421875,2.2189275108367204,0.657748453938961,-0.8481785252057016
1772025053567388400,8.611388427734376,3.4560470475703475,1.0694394958049058,-0.7416056447338313
1772025053577385500,8.621385498046875,4.3484787021309135,1.6059592788666486,-0.6267475318018346
1772025053587382300,8.63138232421875,4.8232127678871155,2.0807216939345,-0.5105202494084835
1772025053597379300,8.64137939453125,5.126933848899602,2.468331602989137,-0.3453882124621421
1772025053607376400,8.65137646484375,5.527731740829348,2.5889216837018725,-0.3782677148874849
1772025053617373400,8.66137353515625,5.981849719536304,2.603172035111487,-0.5855184264432639
1772025053627370200,8.671370361328124,6.319314664718508,2.8693425531476735,-0.8345856147915124
1772025053637367300,8.6813671875,6.433639547556639,3.322446386376023,-1.0412589648507535
1772025053647364400,8.6913642578125,6.6897776241391895,3.515549037852883,-1.0103240206219255
1772025053657361200,8.701361083984375,6.740048844739794,3.447083404392004,-0.7627467055052518
1772025053667358500,8.7113583984375,6.837908330467343,3.398822354570031,-0.550081896478869
1772025053677355300,8.721355224609376,7.106849774521589,3.459783896011114,-0.6656393533192575
1772025053687352300,8.731352294921875,7.524136444437503,3.7734336658418175,-0.9252422564681619
1772025053697349400,8.741349365234376,7.773117635002732,4.190810936650633,-0.8451642919510602
1772025053707346400,8.751346435546875,7.642621369564533,4.532911724939942,-0.5369932457923888
1772025053717343200,8.76134326171875,7.273195351976156,4.78767617508173,-0.394542046405375
1772025053727340500,8.771340576171875,7.005164593026041,5.225488331153988,-0.5257322489244863
1772025053737337300,8.78133740234375,7.009579486858844,5.81150718140006,-0.8352487548753619
1772025053747334100,8.791334228515625,6.891485022354126,6.23120851124227,-1.0585881391838192
1772025053757331500,8.80133154296875,6.615993426004052,6.6792731812596315,-1.1925322800535707
1772025053767328300,8.811328369140625,6.666590225297212,7.07551530958116,-1.0294333563700317
1772025053777325300,8.8213251953125,6.165437523692846,6.650892889949679,-0.6947866834789515
1772025053787322400,8.831322265625,4.650901560026407,5.399167904758453,-0.19335399588942526
1772025053797319400,8.8413193359375,2.6927245880037542,2.344734157153964,0.36824908276349305
1772025053807316200,8.851316162109375,-0.5687807151973248,-2.458372811293602,1.4206230236075819
1772025053817313500,8.8613134765625,-5.657545284700394,-6.727184102469682,2.2068816837340592
1772025053827310300,8.871310302734376,-10.756977378690243,-8.840325426232814,1.7315753710478543
1772025053837307400,8.881307373046875,-13.883539373916387,-11.139371598923205,1.1105470206104218
1772025053847304400,8.891304443359376,-15.325165584194659,-11.803597724443673,-1.4678022695422173
1772025053857301200,8.90130126953125,-15.25435192630291,-5.9813394319266076,-4.760786706851422
1772025053867298300,8.91129833984375,-13.370082486534118,-3.4776609134852885,-3.431183239948749
1772025053877296400,8.92129638671875,-13.045163134670258,-6.853880391103029,-0.5988128653675318
1772025053887293400,8.93129345703125,-11.773646822816133,-8.621333715739846,1.984705059594661
1772025053897290500,8.94129052734375,-10.161121609562635,-9.183987472489475,4.786185936523974
1772025053907287300,8.951287353515625,-9.610641105687618,-10.884009182888269,7.454032396119833
1772025053917284400,8.961284423828126,-9.18448139348626,-11.195996572464704,8.105164646789431
1772025053927281400,8.971281494140625,-8.067472337254882,-9.890311449027061,6.9195520099312064
1772025053937278200,8.9812783203125,-6.719412883946299,-8.777489323091507,4.974983876544237
1772025053947275500,8.991275634765625,-5.817064815527201,-7.193703297588229,2.464358899965882
1772025053957272300,9.001272216796876,-4.564719068089127,-4.847417819339037,0.4962140761584043
1772025053967269400,9.011269287109375,-3.513040269902348,-2.437866614359617,-1.1218611724376677
1772025053977266400,9.021266357421876,-2.3379221390515563,-0.462405914580822,-2.244261858579516
1772025053987263500,9.031263427734375,-1.764495059353113,0.824474262882769,-2.0768493825457988
1772025053997260300,9.04126025390625,-1.445944657999277,2.1533666589066387,-1.2470540707707405
1772025054007257300,9.05125732421875,-0.08920505462884902,3.427266943287849,-1.1244129027470946
1772025054017254400,9.06125439453125,1.5133733496278523,4.056550642503797,-1.1525899265699089
1772025054027251200,9.071251220703125,2.9212977813124654,4.359639563092589,-0.8340230124726891
1772025054037248300,9.081248291015624,4.146618159180879,4.684448732580244,-0.8567056766629219
1772025054047245300,9.091245361328125,5.17110324549377,4.904747141757607,-1.195933978255838
1772025054057242400,9.101242431640625,5.755309493359923,4.682798335024714,-1.5880398835554719
1772025054067239200,9.1112392578125,6.125675422146916,4.303111035662889,-1.928452426496893
1772025054077236500,9.121236572265625,6.50392830479145,4.023707818827033,-2.1436334926605225
1772025054087233300,9.1312333984375,6.875237067386507,3.9640041684925555,-2.332798658557981
1772025054097230300,9.141230224609375,7.072164245587587,4.075003121778368,-2.257339366817474
1772025054107227400,9.151227294921876,7.140582532775402,4.193959756070376,-1.9995340876750647
1772025054117224400,9.161224365234375,7.269011928811669,4.419155581900477,-2.031450590287149
1772025054127221200,9.17122119140625,7.570609441798925,4.788332593163847,-2.265904804458469
1772025054137218300,9.18121826171875,7.824191404157877,5.156071680578589,-2.468580901575088
1772025054147215400,9.19121533203125,7.821378684824705,5.501818716415762,-2.4166513923734425
1772025054157212200,9.201212158203125,7.799991028881072,5.675914469605684,-2.505009474784136
1772025054167209500,9.21120947265625,7.8874238131403915,5.750022492867708,-2.7434733629882335
1772025054177206300,9.221206298828125,8.128997942319511,6.023674014309048,-2.9515464968428016
1772025054187203300,9.231203369140625,8.067265416505933,6.296534093111753,-2.782100323024392
1772025054197200400,9.241200439453126,7.78447781792879,6.312464068171382,-2.3913996083475646
1772025054207197400,9.251197509765625,7.468945887613296,6.215182090070844,-2.263651326443255
1772025054217194200,9.2611943359375,6.980159915629029,6.230596516823768,-1.922693716839701
1772025054227191600,9.271191650390625,5.814029977875948,5.741696563071012,-1.3940734548561273
1772025054237188400,9.281188232421876,4.158969691231847,4.3031180499255655,-0.6149301796928047
1772025054247185400,9.291185302734375,1.885575261670351,2.485345573893189,0.19648644869625567
1772025054257182500,9.301182373046874,-0.5829881042480468,0.32224516421854493,1.5175716781005262
1772025054267179300,9.31117919921875,-3.550266715490818,-3.8107904598116873,2.7486902208536863
1772025054277176300,9.32117626953125,-7.494749021911621,-8.00766347298026,3.0515625760823486
1772025054287173400,9.33117333984375,-11.017954711997508,-9.340741630256176,2.5629163048297166
1772025054297170400,9.34117041015625,-12.95932843325734,-9.85401731585264,2.4368897321514784
1772025054307167200,9.351167236328125,-13.634639431893826,-8.435208502060174,2.331372571277618
1772025054317164500,9.36116455078125,-12.441523872059584,-4.787957914632559,1.7396571168251334
1772025054327161300,9.371161376953125,-10.530285761344432,-4.087718810966611,2.544720138403773
1772025054337158400,9.381158447265625,-9.70181483004093,-5.614286573210358,4.519705914147198
1772025054347155500,9.391155517578126,-9.371567561152577,-6.390546840283275,6.15806319553256
1772025054357152500,9.401152587890625,-7.888498748895525,-7.845341159692406,7.027817738860845
1772025054367149300,9.4111494140625,-6.798935917994379,-8.671789645257592,7.510946123474836
1772025054377146400,9.421146484375,-5.745842576834559,-8.042848183608054,7.197407412803172
1772025054387143400,9.431143310546876,-4.8909781441241496,-7.2668901143521065,6.4257023248165845
1772025054397140200,9.44114013671875,-4.053342494112253,-6.272654035830497,4.943743519628048
1772025054407137300,9.45113720703125,-3.214240863201022,-5.259995580911636,2.7902807068705555
1772025054417134300,9.46113427734375,-2.609848151874542,-3.926473479260504,0.7257393094949424
1772025054427131400,9.47113134765625,-1.5950439170986412,-1.9320947285220025,-0.8685157953135668
1772025054437128200,9.481128173828125,-0.2587964821368456,0.07118219894319772,-1.9483869610227644
1772025054447125500,9.49112548828125,1.125247892266512,1.570385276660323,-2.486007837194204
1772025054457122300,9.501122314453125,2.4063433488488197,2.6876830867052077,-2.5036750113099813
1772025054467119400,9.511119384765625,3.5339854427754878,3.7684564619511365,-2.252042721714079
1772025054477116400,9.521116455078126,4.013557011690736,4.281956311692297,-1.8597680357187985
1772025054487113200,9.53111328125,4.417553991922736,4.472100990146398,-1.5356863037228583
1772025054497110300,9.5411103515625,5.029966928097606,4.512515125860274,-1.5626326167069375
1772025054507107300,9.551107421875,4.98532991399169,4.362768508768081,-1.5236561125807464
1772025054517104400,9.5611044921875,5.164363708105683,4.092410183653235,-1.620005924397707
1772025054527101200,9.57110107421875,5.128247269585728,3.677728727799654,-2.0278487664029
1772025054537098500,9.581098388671874,5.256794739043713,3.3183500569730997,-2.993123831117153
1772025054547095300,9.59109521484375,5.507143126308918,3.2296611351728437,-3.1371842192664743
1772025054557092900,9.6010927734375,5.288980852377414,3.597499006786942,-2.3393365358941254
1772025054567090000,9.61108984375,4.534133375689387,4.4985950293183325,-1.658687829491496
1772025054577087000,9.6210869140625,4.41831153229177,5.439198886373639,-1.3014736432224512
1772025054587083800,9.631083740234375,5.291567946261167,6.017784956270456,-1.3503906727351247
1772025054597080800,9.641080810546875,6.155088563635945,5.9800125672370195,-1.7442182872608303
1772025054607078000,9.651077880859376,6.67155515422821,5.624064455381036,-2.0059233503207565
1772025054617075000,9.661074951171875,7.056618885931372,5.2902732302755116,-2.297111405235529
1772025054627071700,9.67107177734375,7.2079381591677665,4.995353879877925,-2.702974179339409
1772025054637069000,9.681069091796875,7.1345099348634475,4.759067920234799,-2.673721781370044
1772025054647065900,9.69106591796875,6.469554910546541,4.721942012411356,-1.9786236938543618
1772025054657063000,9.70106298828125,5.184728450742363,4.654378880748152,-1.0823705813094973
1772025054667060000,9.71106005859375,4.381059367740154,4.199699761027097,-0.6894862389832734
1772025054677057000,9.72105712890625,4.29535209209919,3.2234149342596528,-1.1557726482592523
1772025054687053800,9.7310537109375,3.818109258392453,1.7647329597622154,-2.033349117384851
1772025054697051100,9.741051025390625,2.955002482515573,-0.7077496254265307,-2.5195143854767084
1772025054707048000,9.7510478515625,1.2943845617443321,-4.454762317332625,-0.8927398437269032
1772025054717044700,9.761044677734375,-1.50571260574162,-7.717956888794898,1.2166605399422348
1772025054727042000,9.7710419921875,-4.574619699856639,-8.27738116210401,1.452641817550361
1772025054737038800,9.781038818359375,-7.141907643899321,-6.900729820561408,0.838806008965522
1772025054747036000,9.791035888671875,-7.592638318255544,-6.9048273190081115,0.1738219777498394
1772025054757033000,9.801032958984376,-7.8538868697196245,-8.515127257427572,0.005115662513300776
1772025054767030000,9.811030029296875,-7.3913202116191385,-9.266092339724302,0.09852489083372055
1772025054777026800,9.82102685546875,-6.878624371737241,-8.601830558368563,0.27269509749934073
1772025054787024100,9.831024169921875,-6.785207836893201,-7.6049144469827406,1.2942713106282056
1772025054797021000,9.84102099609375,-6.697803694206476,-6.8179568448066705,3.5734646357268094
1772025054807018000,9.85101806640625,-6.976918157228827,-6.864473681309819,5.922329609075188
1772025054817015800,9.861015869140624,-7.515365693482756,-7.096146009677648,6.600872429239749
1772025054827013000,9.87101318359375,-7.846355305171012,-6.791874309045076,5.099036372670531
1772025054837010000,9.881010009765625,-7.725951394680142,-6.115169810223579,2.430589901354909
1772025054847007000,9.891007080078126,-6.8795788959831,-5.121536958292126,-0.40514395831003785
1772025054857004000,9.901004150390625,-5.698460647934675,-3.8198181081369516,-2.430212884736061
1772025054867000800,9.911000732421876,-4.355131145757436,-2.3800670440807936,-3.2267090073689815
1772025054876998000,9.920997802734375,-3.118770902958512,-1.1489061234906315,-3.0956483860462902
1772025054886995000,9.930994873046876,-1.9784101972341537,-0.10734393790960312,-1.9773682869657874
1772025054896992000,9.940991943359375,-0.9248194279462099,0.7232713119462132,-0.8846691308002919
1772025054906990000,9.950989990234374,0.1792278553813696,1.468532045121491,-0.2864765162229538
1772025054916987000,9.96098681640625,1.4592261643767357,2.124396292749047,-0.24226985635831952
1772025054926984000,9.97098388671875,2.417379706647992,2.836970269592106,-0.20413046064339577
1772025054936981000,9.98098095703125,3.389385248661041,3.4553073351189494,-0.1347478584680706
1772025054946977800,9.990977783203125,4.628996017688513,3.5293960691586133,-0.6108993898067623
1772025054956975000,10.00097509765625,5.747499696391821,3.149987878999114,-1.167909879972413
1772025054966972000,10.010971923828125,6.112216805636883,2.768105407680571,-1.328011229275167
1772025054976969000,10.020968994140626,6.19416852813661,2.5747736236229537,-1.3228634911231696
1772025054986966000,10.030966064453125,5.96706774546802,2.546288410633802,-0.6998495198264718
1772025054996963000,10.040963134765626,5.597568078121543,2.8232769675433635,0.12735665223821996
1772025055006959900,10.0509599609375,5.444821402430534,3.303156579494476,0.5617948018327356
1772025055016957000,10.06095703125,5.458077189844847,3.8741292517781254,0.49168373925238845
1772025055026954000,10.0709541015625,5.781324224582314,4.25322092333436,-0.24633359866589305
1772025055036950800,10.08095068359375,6.034996787834167,4.545198375061154,-1.0611031907446682
1772025055046947800,10.09094775390625,6.444673567268252,4.826768414542078,-1.8788428846754133
1772025055056945000,10.10094482421875,6.821511906939745,4.95675673045814,-2.4751976893663405
1772025055066942000,10.11094189453125,6.785459181305765,5.051880653741955,-2.475590780337155
1772025055076938800,10.120938720703125,6.68382777582407,5.0729047370702025,-1.9458730785056948
1772025055086936000,10.13093603515625,6.131645144206285,5.03683915195465,-0.7986744895853102
1772025055096932900,10.140932861328125,5.36610793119967,4.859807345312833,-0.12034545830190181
1772025055106930000,10.150929931640626,4.979199448412657,4.554613269138336,-0.40321328250840305
1772025055116927000,10.160927001953125,5.149564198380708,4.0817724697828295,-1.180204786465317
1772025055126924000,10.170924072265626,4.554382967513799,3.398269981384277,-1.7089093657314776
1772025055136920800,10.1809208984375,3.341010801592469,2.2112106528490783,-1.8501804154232144
1772025055146918000,10.19091796875,2.1867899128198625,0.6572773292958736,-1.3936197197392581
1772025055156915000,10.2009150390625,1.4007897574990986,-1.1579980692237615,-0.6452607282876968
1772025055166911700,10.210911865234374,0.6515443386018276,-3.3391070137977596,-0.20072715500593183
1772025055176909000,10.220908935546875,-0.6707540659844875,-4.720632683378458,0.08071531257256866
1772025055186905900,10.23090576171875,-2.2331699712008235,-4.711254029658437,0.9705657184682785
1772025055196903000,10.24090283203125,-3.7962580765902993,-4.508959186944365,2.5359242530077695
1772025055206900000,10.25089990234375,-4.205557254883646,-5.398659955236315,3.045755935630202
1772025055216898000,10.26089794921875,-4.360391842764615,-7.079549095141887,2.5480805547475813
1772025055226894800,10.270894775390625,-4.2084184895336625,-7.975419491979479,2.383758884336054
1772025055236892000,10.280891845703126,-4.095423978516459,-7.8592709008455275,2.313743391084671
1772025055246889000,10.290888916015625,-4.820056934204698,-8.133908510714768,3.439069024762511
1772025055256886000,10.300885986328124,-5.3505076264858245,-8.959894054943323,5.028551216080785
1772025055266882800,10.3108828125,-6.023394028323889,-9.21727073341012,6.365972370997071
1772025055276880100,10.320880126953124,-6.475891712352633,-8.230653313198685,6.810510620453953
1772025055286877000,10.330876953125,-6.81512308268547,-7.075256366384029,5.404013591223955
1772025055296874000,10.3408740234375,-6.4043725365400315,-6.611581454780698,3.4546669913887977
1772025055306871000,10.35087109375,-5.5558601032048465,-5.970736204847693,1.5323688497379422
1772025055316867800,10.360867919921875,-3.9927082849293947,-4.69677483792901,0.7522757265038787
1772025055326865000,10.370864990234375,-3.1169477791845797,-3.2583214124679563,0.7454318519584834
1772025055336862000,10.380862060546875,-2.0249223575621844,-2.133445276123285,1.0433223271213472
1772025055346859000,10.39085888671875,-0.830865717485547,-1.6002356405228375,1.3854261841505766
1772025055356855800,10.400855712890625,-0.38901217706799507,-1.164713056692481,1.9360127787485717
1772025055366853000,10.41085302734375,0.36839959715008735,-0.5160793448403478,1.9556540294162927
1772025055376850000,10.420849853515625,1.7099749491363763,0.1250675183877349,1.3963982445418834
1772025055386847000,10.430846923828126,2.9086434669226406,0.5935033607825636,0.9269153773121536
1772025055396844000,10.440843994140625,3.6850516180336474,0.9822191852524876,0.42523835957273837
1772025055406841000,10.450841064453124,4.27106754567027,1.3073252918601035,-0.003031841976568103
1772025055416838000,10.460837890625,4.776115501147508,1.6096739154756068,-0.46710020987689493
1772025055426835000,10.4708349609375,5.633894944521784,1.6800652563020586,-1.236293899564445
1772025055436832000,10.48083203125,5.893062013536691,1.6897516607969998,-1.486606777124852
1772025055446828800,10.490828857421874,5.471975951337814,1.8477794917613266,-1.009358609655872
1772025055456825900,10.500825927734375,5.454132251611352,2.0354665479302407,-0.7432811036653816
1772025055466823000,10.510822998046875,5.031110837435722,2.3572376648962496,-0.6390992099832743
1772025055476820000,10.520820068359376,4.744123449081182,2.562003281638026,-0.694456940067932
1772025055486816800,10.530816650390625,5.171527023863792,2.663926363542676,-0.8696459683872759
1772025055496814000,10.54081396484375,5.300955952331424,2.9282541763216257,-0.767433109755814
1772025055506811000,10.550810791015625,5.04161469579339,3.281905701673031,-0.7172839080996811
1772025055516808000,10.560807861328126,5.136756739255786,3.5388907504737377,-1.054914711368084
1772025055526805000,10.570804931640625,5.370630377060174,3.920934257572889,-1.3130091827154158
1772025055536801800,10.5808017578125,5.361244709077477,4.502196268680692,-1.4885069116577505
1772025055546798800,10.590798828125,5.212973717495799,4.958120420026779,-1.5591482817225157
1772025055556799000,10.600799072265625,4.9018531738817686,5.015886964818835,-1.6337269912362098
1772025055566796000,10.610796142578126,4.553607306966185,4.929552497190237,-2.020216956350207
1772025055576792800,10.620792724609375,4.255515171751379,4.784615033945441,-2.1874740956917402
1772025055586790100,10.6307900390625,3.5397640261769294,4.5022447839975355,-2.0302396070621906
1772025055596787000,10.640786865234375,2.4733406633228063,3.6826346200197935,-1.9224822660461067
1772025055606783700,10.65078369140625,0.8506126204848289,2.1250334216088054,-1.730763616273552
1772025055616781000,10.660781005859375,-1.5748253049343823,-0.04587444694638252,-1.5397303184166549
1772025055626777900,10.67077783203125,-2.9106524686574935,-2.646932558643818,-1.334025667259097
1772025055636775000,10.68077490234375,-4.285763010498881,-4.443697902482747,-1.78349582016021
1772025055646772000,10.69077197265625,-6.162846922677755,-5.611618815305829,-2.588046654433012
1772025055656769000,10.70076904296875,-8.204047630345821,-6.212229085484147,-1.768779312543571
1772025055666765800,10.710765869140625,-8.750314900439976,-6.461341208952665,-0.09265103036426008
1772025055676763100,10.72076318359375,-7.958347361147403,-5.8786097098141905,0.6554745176576078
1772025055686760000,10.730760009765625,-6.991150680720806,-5.60432339760065,0.9537032117988914
1772025055696757000,10.740757080078126,-5.620974672672152,-6.255740310430526,2.32666468584761
1772025055706754000,10.750754150390625,-5.545791129133105,-7.035929733645916,3.6464641132250426
1772025055716750800,10.760750732421876,-6.484057483151554,-8.02776751885414,3.98753117455244
1772025055726748000,10.770747802734375,-8.785628790405392,-8.639888778606057,3.608680326014757
1772025055736746000,10.78074609375,-10.805710137677192,-8.076011033019423,2.6784026326626535
1772025055746743000,10.790742919921875,-10.818375557982922,-6.7446917021095745,1.3613038425460458
1772025055756740000,10.800739990234375,-9.048102499750255,-5.376248801463842,0.2622112590163946
1772025055766737000,10.81073681640625,-7.183228080803156,-3.779253165775537,-0.16872881932929157
1772025055776734000,10.82073388671875,-5.1954503357648845,-1.7596739228069782,0.310309957883507
1772025055786731000,10.83073095703125,-3.889456584769487,0.03440262033939361,0.9562187017511576
1772025055796727800,10.840727783203125,-3.199229756551981,0.9495908811092376,1.2057860216412692
1772025055806725000,10.85072509765625,-2.04848501945734,1.1630524300038814,0.9747236418653279
1772025055816722000,10.860721923828125,-0.6504518671900034,1.1931249121844767,0.19633425380922853
1772025055826719000,10.870718994140624,0.9503086739897727,1.0673425235256553,-0.7323128426663578
1772025055836716000,10.880716064453125,2.442969490456581,0.9165233087658882,-1.2955667572662233
1772025055846713000,10.890713134765624,4.041137677055597,0.8689332900732755,-1.2210951613888144
1772025055856710000,10.9007099609375,5.044622645437717,0.9537041616469621,-0.6370844360947608
1772025055866707200,10.910707275390624,5.15256454924047,0.953564460915327,-0.18248437295928596
1772025055876704000,10.9207041015625,5.274757681235671,0.9711801971048116,0.2806553357888013
1772025055886700800,10.93070068359375,5.463931761091947,1.2772247526288032,0.39090047503262754
1772025055896698000,10.940697998046875,5.679933057597279,1.6968343125343321,0.4221242461401969
1772025055906695000,10.95069482421875,5.482281072252989,2.2800024495244027,0.5980059328988194
1772025055916692000,10.96069189453125,5.0895355538755656,3.162033706101775,0.5195908600926399
1772025055926689000,10.97068896484375,4.9847518218427895,4.283948070031404,0.14993096068315206
1772025055936686000,10.98068603515625,5.571463915050029,5.260615758636593,-0.42224253875762224
1772025055946683000,10.990682861328125,5.976806464672088,5.953447216394543,-0.9467902906052768
1772025055956680000,11.000679931640626,6.07672989719212,6.244597569647431,-1.1716574690029025
1772025055966677000,11.010677001953125,5.961405481922626,6.453150303712487,-1.0646772498391568
1772025055976674000,11.020674072265624,5.9329188076287505,6.477918834266066,-0.8941386046089231
1772025055986670800,11.0306708984375,6.029721477779746,6.1921320538729425,-0.8428175826944411
1772025055996668000,11.04066796875,5.59956831202805,5.920245788538455,-0.7156111525818705
1772025056006665000,11.0506650390625,4.936132460102439,5.768403368210792,-0.2663954128332436
1772025056016661800,11.060661865234374,4.475975785753131,5.492548199245333,-0.3512143613323569
1772025056026659000,11.0706591796875,3.9940708054542537,5.0426978148549795,-1.2894547041267155
1772025056036655900,11.08065576171875,3.5939772624015807,4.2750159910351035,-2.044597802760452
1772025056046653000,11.09065283203125,3.293367006886005,2.8005963491797448,-1.6980879658572374
1772025056056650000,11.10064990234375,2.6411674192458388,0.29678982044458385,-0.32098201241493224
1772025056066647000,11.11064697265625,1.4451701664954424,-2.429763387402892,0.624788141362369
1772025056076643800,11.120643798828125,-0.00843698895573616,-3.8684038598686454,0.7539044967494904
1772025056086641200,11.13064111328125,-2.0183803885728118,-3.658932841914892,0.48434755114540456
1772025056096638000,11.140637939453125,-3.3460850361168384,-3.2978017744630574,-0.05964812075495719
1772025056106635000,11.150635009765624,-2.467059975618124,-3.469446042847633,-0.6920483445562422
1772025056116632000,11.160632080078125,-1.6498574573040008,-3.1470068173617123,-1.727803159032762
1772025056126628900,11.17062890625,-1.6369623198956251,-2.120321590656042,-2.52847189117521
1772025056136626000,11.1806259765625,-1.7556904061287641,-1.677111959454417,-2.1652020581290126
1772025056146623000,11.190623046875,-1.4809019896119833,-1.9109686461240052,-0.9253656636521219
1772025056156620000,11.2006201171875,-1.2568658552110195,-2.209049090901017,-0.013613953202217817
1772025056166616800,11.210616943359375,-1.4234142617613077,-2.6176035883069035,0.40262393831312654
