time,seconds_elapsed,z,y,x
1772024897290642000,0.078641845703125,0.16086514294147491,0.6616215705871582,0.24517978727817535
1772024897300638000,0.088637939453125,0.1845393031835556,0.8415971994400024,0.06857519596815109
1772024897310635000,0.098635009765625,0.1104247197508812,0.7715911269187927,-0.19312848150730133
1772024897320632000,0.108632080078125,-0.01074005663394928,0.5753012299537659,-0.47999462485313416
1772024897330629000,0.118629150390625,-0.17963474988937378,0.31574052572250366,-0.7453561425209045
1772024897340626000,0.1286259765625,-0.18091733753681183,0.04582115262746811,-0.9703253507614136
1772024897350623200,0.138623291015625,-0.026558224111795425,-0.19488473236560822,-1.1936254501342773
1772024897360619000,0.148618896484375,0.12817543745040894,-0.33067238330841064,-1.3596773147583008
1772024897370616000,0.158615966796875,0.1307646632194519,-0.18218739330768585,-1.4053609371185303
1772024897380613000,0.168613037109375,-0.0798378512263298,0.0009952060645446181,-1.4256941080093384
1772024897390610200,0.178610107421875,-0.4595963656902313,-0.38415616750717163,-1.4351584911346436
1772024897400607200,0.188607177734375,-0.916121244430542,-1.3489280939102173,-1.3505229949951172
1772024897410604300,0.198604248046875,-1.2963937520980835,-2.462904214859009,-1.2049599885940552
1772024897420600000,0.20860009765625,-1.4291975498199463,-3.1877810955047607,-1.100455641746521
1772024897430597400,0.218597412109375,-0.7827374339103699,-2.4410877227783203,-1.369081735610962
1772024897440594200,0.22859423828125,-0.15963681042194366,-1.4783589839935303,-1.616692304611206
1772024897450591200,0.23859130859375,0.4312078356742859,-0.8916304707527161,-1.7392277717590332
1772024897460588300,0.24858837890625,0.8978719711303711,-0.6731674075126648,-1.7535465955734253
1772024897470585000,0.258585205078125,1.2810883522033691,-0.47684431076049805,-1.6390042304992676
1772024897480581400,0.268581298828125,1.91521418094635,-0.6709490418434143,-1.2096320390701294
1772024897490578200,0.278578125,2.819591999053955,-0.7962099313735962,-0.4322465658187866
1772024897500575200,0.2885751953125,3.668504238128662,-0.7905360460281372,0.6312683820724487
1772024897510572300,0.298572265625,4.020630359649658,-2.3278660774230957,1.6957660913467407
1772024897520569300,0.3085693359375,2.4992823600769043,-4.458861827850342,1.896009922027588
1772024897530566100,0.318566162109375,-0.2706378102302551,-4.186828136444092,0.4390246868133545
1772024897540562200,0.328562255859375,-1.6774917840957642,-4.2223219871521,0.3998730182647705
1772024897550559200,0.338559326171875,-2.068796396255493,-3.5668342113494873,1.1111208200454712
1772024897560556300,0.348556396484375,-1.9272725582122803,-1.6969351768493652,1.6010324954986572
1772024897570553300,0.35855322265625,-1.2673600912094116,0.5641696453094482,1.6223071813583374
1772024897580550100,0.368550048828125,-0.6061393022537231,2.18877911567688,1.3169748783111572
1772024897590547200,0.378547119140625,-0.19149215519428253,3.29158616065979,0.7276501655578613
1772024897600543200,0.388543212890625,-0.16043969988822937,3.6708381175994873,-0.01815401017665863
1772024897610540000,0.3985400390625,-0.4442897140979767,3.350752830505371,-0.7755818367004395
1772024897620537300,0.408537353515625,-0.8281000256538391,2.468254327774048,-1.1971567869186401
1772024897630534100,0.4185341796875,-1.1437125205993652,1.3975751399993896,-1.0878465175628662
1772024897640531200,0.42853125,-1.3860828876495361,0.35562407970428467,-0.5733872652053833
1772024897650528300,0.4385283203125,-1.641398310661316,-0.5394007563591003,0.08120989799499512
1772024897660524000,0.44852392578125,-1.8938231468200684,-1.2671947479248047,0.674108624458313
1772024897670521300,0.458521240234375,-2.0552799701690674,-1.8534260988235474,1.11130952835083
1772024897680518100,0.46851806640625,-2.111374616622925,-2.2404446601867676,1.362816572189331
1772024897690515200,0.47851513671875,-2.0380091667175293,-2.079543352127075,1.418207049369812
1772024897700512300,0.48851220703125,-1.7094417810440063,-1.0695457458496094,1.1078169345855713
1772024897710508000,0.498508056640625,-1.2450251579284668,-0.03791843354701996,0.6827484369277954
1772024897720505300,0.50850537109375,-0.8076618909835815,0.8024998307228088,0.04802713915705681
1772024897730502100,0.518502197265625,-0.5117772221565247,1.5413206815719604,-0.5906245708465576
1772024897740499200,0.528499267578125,-0.33939260244369507,2.23030948638916,-0.9752542972564697
1772024897750496300,0.538496337890625,-0.18807978928089142,2.6806180477142334,-0.9732332229614258
1772024897760493300,0.548493408203125,-0.03194931149482727,2.6940863132476807,-0.6039822101593018
1772024897770489000,0.558489013671875,0.05426359921693802,2.2977027893066406,-0.008022923953831196
1772024897780486100,0.568486083984375,0.11102861166000366,1.8026102781295776,0.5967199802398682
1772024897790483200,0.578483154296875,0.1301516592502594,1.136913776397705,1.0786137580871582
1772024897800480000,0.58847998046875,0.1100141629576683,0.31752169132232666,1.3282866477966309
1772024897810477300,0.598477294921875,0.06179294362664223,-0.6223103404045105,1.3543477058410645
1772024897820474000,0.60847412109375,0.021109694615006447,-1.5013010501861572,1.273529291152954
1772024897830470400,0.618470458984375,-0.05554002523422241,-2.1954188346862793,1.211439609527588
1772024897840467200,0.62846728515625,-0.23396408557891846,-2.523096799850464,1.2651745080947876
1772024897850464000,0.638464111328125,-0.483086496591568,-2.3215551376342773,1.396001935005188
1772024897860461300,0.64846142578125,-0.7730725407600403,-1.573108196258545,1.5414789915084839
1772024897870458000,0.6584580078125,-0.9147655963897705,-0.6133000254631042,1.720274567604065
1772024897880455200,0.668455078125,-0.6493647694587708,0.09256039559841156,1.7585915327072144
1772024897890451200,0.678451171875,-0.26348692178726196,0.6440252065658569,1.5808310508728027
1772024897900448300,0.6884482421875,0.010224772617220879,0.9369763731956482,1.2389591932296753
1772024897910445300,0.6984453125,0.14101368188858032,0.9541271328926086,0.7936445474624634
1772024897920442000,0.708442138671875,0.2537282407283783,0.8260282874107361,0.3111245036125183
1772024897930439200,0.718439208984375,0.3577173352241516,0.570243239402771,-0.1327487826347351
1772024897940436200,0.728436279296875,0.3994509279727936,0.25800779461860657,-0.5356951951980591
1772024897950432300,0.738432373046875,0.5046495199203491,-0.016499316319823265,-0.857404887676239
1772024897960429300,0.74842919921875,0.49844667315483093,-0.19159923493862152,-1.0474421977996826
1772024897970426400,0.75842626953125,-0.10632622987031937,-0.06909236311912537,-1.1203893423080444
1772024897980423200,0.768423095703125,-0.9096272587776184,0.5832918286323547,-1.083041787147522
1772024897990420200,0.778420166015625,-1.5325212478637695,0.7611111998558044,-1.2205893993377686
1772024898000417300,0.788417236328125,-1.7559928894042969,-0.07220573723316193,-1.51493501663208
1772024898010413000,0.7984130859375,-1.6897618770599365,-0.7001465559005737,-1.657479166984558
1772024898020410400,0.808410400390625,-1.7843341827392578,-0.5361014008522034,-1.7244645357131958
1772024898030407200,0.8184072265625,-1.8802391290664673,0.2314499020576477,-1.6105719804763794
1772024898040404200,0.828404296875,-1.6117360591888428,1.2808043956756592,-1.2110594511032104
1772024898050401300,0.8384013671875,-1.023943543434143,1.4949114322662354,-0.8597655892372131
1772024898060398000,0.848398193359375,-0.5794116258621216,1.0541508197784424,-0.7111116647720337
1772024898070394400,0.858394287109375,-0.3558070957660675,0.21044427156448364,-0.6757351160049438
1772024898080391200,0.86839111328125,-0.18928790092468262,-0.9969395399093628,-0.594122588634491
1772024898090388200,0.87838818359375,-0.057614024728536606,-2.2082724571228027,-0.5114447474479675
1772024898100385300,0.88838525390625,0.03565307334065437,-3.062497138977051,-0.4298018217086792
1772024898110382300,0.89838232421875,0.1402297019958496,-3.4064741134643555,-0.3656359612941742
1772024898120378400,0.90837841796875,0.2500174343585968,-3.0900440216064453,-0.38373348116874695
1772024898130375200,0.918375244140625,0.3731268346309662,-2.2615139484405518,-0.5525829792022705
1772024898140372200,0.928372314453125,0.5215190052986145,-1.2177809476852417,-0.8256502151489258
1772024898150369300,0.938369384765625,0.665176510810852,-0.26277124881744385,-1.1692644357681274
1772024898160366300,0.948366455078125,0.7064554691314697,0.4232020676136017,-1.4469565153121948
1772024898170363100,0.958363037109375,0.5749579071998596,0.5698156952857971,-1.4991583824157715
1772024898180359200,0.968359130859375,0.34924864768981934,0.24854499101638794,-1.2244043350219727
1772024898190356200,0.978356201171875,0.15554101765155792,-0.18823030591011047,-0.6272454857826233
1772024898200353000,0.98835302734375,0.09928040206432343,-0.5324499607086182,0.17597906291484833
1772024898210350300,0.998350341796875,0.15763656795024872,-0.7598437070846558,0.9872471690177917
1772024898220347100,1.00834716796875,0.27780264616012573,-0.9463318586349487,1.640898585319519
1772024898230344200,1.01834423828125,0.43606171011924744,-1.0787791013717651,2.0373246669769287
1772024898240340200,1.02834033203125,0.5627318024635315,-1.145139217376709,2.1446011066436768
1772024898250337000,1.0383369140625,0.6329691410064697,-1.17671799659729,2.014190912246704
1772024898260334300,1.048334228515625,0.6263911128044128,-1.188506007194519,1.7282110452651978
1772024898270331100,1.0583310546875,0.5110288262367249,-1.1804873943328857,1.3628281354904175
1772024898280328200,1.068328125,0.31892117857933044,-1.0742318630218506,1.004948616027832
1772024898290325200,1.0783251953125,0.09091481566429138,-0.8409109115600586,0.7438479065895081
1772024898300321000,1.088321044921875,-0.09102169424295425,-0.6095695495605469,0.6069896817207336
1772024898310318300,1.098318359375,-0.1998576819896698,-0.36873921751976013,0.5420496463775635
1772024898320315100,1.108315185546875,-0.26838240027427673,-0.11579085886478424,0.49862387776374817
1772024898330312200,1.118312255859375,-0.31370195746421814,0.11914324015378952,0.4491654932498932
1772024898340309200,1.128309326171875,-0.34331339597702026,0.30610355734825134,0.3643648624420166
1772024898350306300,1.138306396484375,-0.3687543272972107,0.4469356834888458,0.24840964376926422
1772024898360302300,1.14830224609375,-0.39098161458969116,0.5564453601837158,0.12393749505281448
1772024898370299400,1.15829931640625,-0.3884015381336212,0.5797584652900696,-0.0025006337091326714
1772024898380296200,1.168296142578125,-0.36280617117881775,0.4583348333835602,-0.08713669329881668
1772024898390293500,1.17829345703125,-0.25246840715408325,0.1870196908712387,-0.020833894610404968
1772024898400290800,1.188290771484375,-0.07208586484193802,-0.0569695420563221,0.28017494082450867
1772024898410287600,1.19828759765625,0.0862366110086441,-0.176101952791214,0.7488282918930054
1772024898420284000,1.208283935546875,0.23443913459777832,-0.17201533913612366,1.0993518829345703
1772024898430280700,1.21828076171875,0.3983263373374939,0.1170540452003479,1.1214431524276733
1772024898440277500,1.228277587890625,0.48514485359191895,0.2717645466327667,0.7256653904914856
1772024898450274800,1.23827490234375,0.40935102105140686,0.028244439512491226,0.2001107931137085
1772024898460271600,1.248271728515625,0.229387104511261,-0.5445847511291504,-0.016889693215489388
1772024898470268700,1.2582685546875,-0.039474982768297195,-1.2186061143875122,0.1223699077963829
1772024898480264700,1.2682646484375,-0.40393683314323425,-1.3115910291671753,0.44264301657676697
1772024898490261800,1.27826171875,-0.7687988877296448,-0.9885934591293335,0.6109525561332703
1772024898500258600,1.288258544921875,-0.9058616757392883,-0.3345940411090851,0.5689976811408997
1772024898510255600,1.298255615234375,-0.7865503430366516,0.5702821016311646,0.5879524946212769
1772024898520252700,1.308252685546875,-0.46824002265930176,1.1164770126342773,0.5528725385665894
1772024898530249500,1.31824951171875,-0.1812100112438202,1.317312479019165,0.4259423315525055
1772024898540245800,1.328245849609375,-0.149118110537529,1.00594162940979,0.2975428104400635
1772024898550242600,1.33824267578125,-0.21090185642242432,0.14018258452415466,0.2371063381433487
1772024898560239900,1.348239990234375,-0.21545453369617462,-0.9202461242675781,0.08388270437717438
1772024898570236700,1.358236572265625,-0.22328166663646698,-1.6895114183425903,-0.14081650972366333
1772024898580233500,1.3682333984375,-0.2596769630908966,-2.0164008140563965,-0.3001728951931
1772024898590229800,1.378229736328125,-0.25195592641830444,-1.923986554145813,-0.3476908802986145
1772024898600226600,1.3882265625,-0.23473139107227325,-1.535916805267334,-0.32957953214645386
1772024898610223900,1.398223876953125,-0.1865120828151703,-1.0497571229934692,-0.30360445380210876
1772024898620220700,1.408220703125,-0.06977960467338562,-0.5141370296478271,-0.3786808252334595
1772024898630217700,1.4182177734375,0.05503315478563309,0.063639797270298,-0.5639843940734863
1772024898640214800,1.42821484375,0.10147202759981155,0.5324367880821228,-0.7428646683692932
1772024898650211600,1.438211669921875,0.07330190390348434,0.7813882827758789,-0.7929182648658752
1772024898660207900,1.448207763671875,0.010203897021710873,0.9418749213218689,-0.669649064540863
1772024898670204700,1.45820458984375,-0.041427064687013626,1.0556269884109497,-0.4283141791820526
1772024898680201700,1.46820166015625,-0.07730437815189362,1.1107831001281738,-0.14115777611732483
1772024898690198800,1.47819873046875,-0.09709955751895905,1.1037203073501587,0.09455405175685883
1772024898700195800,1.48819580078125,-0.062427595257759094,0.9668452739715576,0.21534810960292816
1772024898710191600,1.498191650390625,0.01130026113241911,0.777065634727478,0.20412936806678772
1772024898720188700,1.508188720703125,0.0900009348988533,0.6447057723999023,0.07634557783603668
1772024898730185700,1.518185791015625,0.1533401906490326,0.573939859867096,-0.07290871441364288
1772024898740182500,1.5281826171875,0.17945806682109833,0.5204039216041565,-0.16523970663547516
1772024898750179800,1.538179931640625,0.14388225972652435,0.4585089385509491,-0.19614453613758087
1772024898760176600,1.5481767578125,0.03408972918987274,0.4021548628807068,-0.16222704946994781
1772024898770172700,1.558172607421875,-0.11879946291446686,0.38696879148483276,-0.06194264069199562
1772024898780169700,1.568169677734375,-0.2484445422887802,0.408582478761673,0.05883464589715004
1772024898790166500,1.57816650390625,-0.3211740553379059,0.48444685339927673,0.16378234326839447
1772024898800163800,1.588163818359375,-0.3251360356807709,0.6328730583190918,0.24658295512199402
1772024898810160600,1.59816064453125,-0.24765054881572723,0.8752485513687134,0.2761951982975006
1772024898820157700,1.60815771484375,-0.10771316289901733,1.1462278366088867,0.25820183753967285
1772024898830153700,1.61815380859375,0.042939744889736176,1.361588716506958,0.2317793220281601
1772024898840150500,1.628150634765625,0.16250422596931458,1.435255765914917,0.23265710473060608
1772024898850147800,1.63814794921875,0.21071383357048035,1.3288174867630005,0.23727315664291382
1772024898860144600,1.64814453125,0.19439131021499634,0.9940303564071655,0.25427690148353577
1772024898870141700,1.6581416015625,0.16070039570331573,0.6541373133659363,0.37402018904685974
1772024898880138800,1.668138671875,0.1621267944574356,0.5172803997993469,0.5632740259170532
1772024898890134500,1.678134521484375,0.224930539727211,0.5488421320915222,0.6696678400039673
1772024898900131600,1.688131591796875,0.32779911160469055,0.712628960609436,0.49911659955978394
1772024898910128600,1.698128662109375,0.4570474922657013,1.0476444959640503,0.030408749356865883
1772024898920125700,1.708125732421875,0.5977063179016113,1.1728383302688599,-0.5552792549133301
1772024898930122500,1.71812255859375,0.6028414368629456,0.8177580833435059,-1.1312381029129028
1772024898940119800,1.728119873046875,0.24593524634838104,0.3540138602256775,-1.6127781867980957
1772024898950115600,1.738115478515625,-0.4393194615840912,0.20166894793510437,-1.8319212198257446
1772024898960112600,1.748112548828125,-1.0881341695785522,0.2598606050014496,-1.7746638059616089
1772024898970109700,1.758109619140625,-1.2850804328918457,0.7623505592346191,-1.3457014560699463
1772024898980106500,1.7681064453125,-1.0648671388626099,1.2887890338897705,-0.74941086769104
1772024898990103800,1.778103759765625,-0.7260347604751587,1.5075539350509644,-0.3506324887275696
1772024899000100600,1.7881005859375,-0.46420469880104065,1.5162087678909302,-0.19920355081558228
1772024899010097000,1.798096923828125,-0.31623226404190063,1.1109811067581177,-0.23981675505638123
1772024899020093700,1.80809375,-0.2095891833305359,0.28640246391296387,-0.37571093440055847
1772024899030090500,1.818090576171875,-0.1256008744239807,-0.6328269839286804,-0.45075419545173645
1772024899040087800,1.828087890625,-0.0360557995736599,-1.3429617881774902,-0.25654610991477966
1772024899050084600,1.838084716796875,0.06714972853660583,-1.7326562404632568,0.16653873026371002
1772024899060081700,1.84808154296875,0.16323791444301605,-1.7661439180374146,0.6359352469444275
1772024899070077700,1.85807763671875,0.27188196778297424,-1.5120099782943726,0.9522227644920349
1772024899080074800,1.86807470703125,0.4025643467903137,-0.9746487736701965,0.9749850630760193
1772024899090071600,1.878071533203125,0.5219817757606506,-0.1806195229291916,0.6628159284591675
1772024899100068600,1.888068603515625,0.6142869591712952,0.627834141254425,0.16601042449474335
1772024899110065700,1.898065673828125,0.6414429545402527,1.2747122049331665,-0.2650777995586395
1772024899120062500,1.9080625,0.6150166392326355,1.7243270874023438,-0.4806758761405945
1772024899130058800,1.918058837890625,0.5599024295806885,1.9198144674301147,-0.4600910544395447
1772024899140055600,1.9280556640625,0.49323341250419617,1.7980140447616577,-0.2585986852645874
1772024899150052900,1.938052978515625,0.44179046154022217,1.3615429401397705,0.05247615650296211
1772024899160049700,1.948049560546875,0.4185410737991333,0.7290030717849731,0.405782014131546
1772024899170046500,1.95804638671875,0.3922739624977112,0.03716331347823143,0.6995902061462402
1772024899180043800,1.968043701171875,0.33883365988731384,-0.6373133659362793,0.8691475987434387
1772024899190039600,1.97803955078125,0.26462140679359436,-1.161945104598999,0.9260737299919128
1772024899200036900,1.988036865234375,0.16626420617103577,-1.4354794025421143,0.9125949740409851
1772024899210033700,1.99803369140625,0.05174414440989494,-1.4363462924957275,0.8515799045562744
1772024899220030700,2.00803076171875,-0.05436071753501892,-1.2275824546813965,0.765986442565918
1772024899230027800,2.01802783203125,-0.13126462697982788,-0.8557835221290588,0.6616649031639099
1772024899240024600,2.028024658203125,-0.1897526979446411,-0.3975040912628174,0.5332227945327759
1772024899250020900,2.038020751953125,-0.22542232275009155,0.04513786733150482,0.39864009618759155
1772024899260017700,2.048017578125,-0.2363942712545395,0.3349798023700714,0.2745612859725952
1772024899270014700,2.0580146484375,-0.27578312158584595,0.39571067690849304,0.19174346327781677
1772024899280011800,2.06801171875,-0.38057345151901245,0.2688067853450775,0.15962493419647217
1772024899290008800,2.0780087890625,-0.4745526611804962,0.0680120512843132,0.1448129564523697
1772024899300004600,2.088004638671875,-0.5070834755897522,-0.13383157551288605,0.13960407674312592
1772024899310001700,2.098001708984375,-0.443488210439682,-0.2721623182296753,0.17765963077545166
1772024899319998700,2.107998779296875,-0.3102031350135803,-0.310550719499588,0.24785976111888885
1772024899329995500,2.11799560546875,-0.115528903901577,-0.2437734603881836,0.3838497996330261
1772024899339992800,2.127992919921875,0.12279631942510605,-0.009345248341560364,0.6599830985069275
1772024899349989600,2.13798974609375,0.2975429892539978,0.31729501485824585,0.9474270939826965
1772024899359985700,2.147985595703125,0.3705700635910034,0.6186095476150513,1.041757583618164
1772024899369982700,2.157982666015625,0.40585121512413025,0.607626736164093,0.8679597973823547
1772024899379979500,2.1679794921875,0.45390263199806213,-0.12579397857189178,0.40072840452194214
1772024899389976800,2.177976806640625,0.44150155782699585,-1.367043137550354,-0.304070383310318
1772024899399973000,2.18797314453125,0.32153335213661194,-2.1167843341827393,-0.8320242166519165
1772024899409970200,2.19797021484375,0.04081534221768379,-2.213590145111084,-1.0293257236480713
1772024899419966200,2.20796630859375,-0.01702745072543621,-1.671044945716858,-0.9747125506401062
1772024899429963000,2.217962890625,0.29942587018013,-0.658977210521698,-0.6872794032096863
1772024899439960300,2.227960205078125,0.622617244720459,0.10291381925344467,-0.2980043888092041
1772024899449957000,2.23795703125,0.79839026927948,0.3752644658088684,0.08253011852502823
1772024899459954200,2.2479541015625,0.8932611346244812,0.071587935090065,0.34681183099746704
1772024899469951200,2.257951171875,0.8671870827674866,-0.8839080929756165,0.3436606824398041
1772024899479948300,2.2679482421875,0.703075110912323,-2.0653414726257324,0.2645956873893738
1772024899489944300,2.2779443359375,0.466390997171402,-2.927192449569702,0.4452511668205261
1772024899499941000,2.287941162109375,0.23330099880695343,-3.271285057067871,0.7877855896949768
1772024899509938200,2.297938232421875,0.06100247800350189,-3.083460807800293,0.8694895505905151
1772024899519935200,2.307935302734375,-0.022680701687932014,-2.326000928878784,0.41597822308540344
1772024899529932300,2.317932373046875,-0.02819381281733513,-1.0707372426986694,-0.5676127076148987
1772024899539929000,2.32792919921875,0.017997384071350098,0.38402682542800903,-1.7798404693603516
1772024899549925000,2.337925048828125,0.07555147260427475,1.735866904258728,-2.7288715839385986
1772024899559922200,2.347922119140625,0.09416350722312927,2.6903433799743652,-3.147280693054199
1772024899569919200,2.357919189453125,0.07323937863111496,3.0707645416259766,-3.041961908340454
1772024899579916300,2.367916259765625,0.05063074082136154,2.7859950065612793,-2.406620979309082
1772024899589913000,2.3779130859375,0.013059600256383419,1.9571776390075684,-1.3763782978057861
1772024899599910100,2.38791015625,-0.05513942614197731,0.8359078764915466,-0.21848829090595245
1772024899609906200,2.39790625,-0.14757908880710602,-0.3405889868736267,0.8207173943519592
1772024899619903000,2.407903076171875,-0.24992676079273224,-1.2985482215881348,1.6054842472076416
1772024899629900300,2.417900390625,-0.31478530168533325,-1.908887267112732,2.087258815765381
1772024899639897000,2.42789697265625,-0.3091825544834137,-2.189769744873047,2.2504851818084717
1772024899649894100,2.43789404296875,-0.2731832265853882,-2.139082670211792,2.0833489894866943
1772024899659891200,2.44789111328125,-0.25839895009994507,-1.763526201248169,1.6381752490997314
1772024899669887000,2.457886962890625,-0.2803555428981781,-1.1860891580581665,1.0601106882095337
1772024899679884300,2.46788427734375,-0.3246689438819885,-0.550643801689148,0.5318217873573303
1772024899689881000,2.477881103515625,-0.3747537136077881,0.012967581860721111,0.17272107303142548
1772024899699878100,2.487878173828125,-0.44077906012535095,0.45686405897140503,-0.006104076746851206
1772024899709875200,2.497875244140625,-0.49907413125038147,0.7766794562339783,-0.07035889476537704
1772024899719872300,2.507872314453125,-0.5276216268539429,1.008541226387024,-0.08334127068519592
1772024899729868300,2.517868408203125,-0.5291380286216736,1.1058835983276367,-0.06512872874736786
1772024899739865000,2.527864990234375,-0.5118978023529053,1.0573639869689941,-0.030349446460604668
1772024899749862100,2.537862060546875,-0.4775860905647278,0.9063856601715088,-0.013476505875587463
1772024899759859200,2.547859130859375,-0.4353507459163666,0.7240912318229675,-0.016126617789268494
1772024899769856300,2.557856201171875,-0.3905225396156311,0.5831442475318909,0.0017376693431288004
1772024899779853000,2.56785302734375,-0.34726083278656006,0.49279114603996277,0.08289644122123718
1772024899789849300,2.577849365234375,-0.2554961144924164,0.48396793007850647,0.2631542682647705
1772024899799846100,2.58784619140625,-0.1478855162858963,0.6090283989906311,0.5095134377479553
1772024899809843000,2.597843017578125,-0.05525572970509529,0.928122341632843,0.7315093874931335
1772024899819840300,2.60784033203125,0.0747387483716011,1.2851228713989258,0.8918889760971069
1772024899829837000,2.617837158203125,0.2963499128818512,1.3519566059112549,1.0341969728469849
1772024899839834000,2.627834228515625,0.521142840385437,0.9463111162185669,0.9819116592407227
1772024899849830100,2.637830078125,0.5179609656333923,0.07707098126411438,0.5213419198989868
1772024899859827200,2.6478271484375,0.19631794095039368,-0.6190289855003357,0.0017959355609491467
1772024899869824300,2.65782421875,-0.27309179306030273,-0.9793708324432373,-0.39188453555107117
1772024899879821000,2.667821044921875,-0.41339218616485596,-0.5664077401161194,-0.5864420533180237
1772024899889818000,2.677818115234375,-0.21437492966651917,0.3575805425643921,-0.5041592717170715
1772024899899815200,2.687815185546875,0.06809511035680771,0.9689875245094299,-0.4917827844619751
1772024899909811200,2.697811279296875,0.1919592171907425,1.0457549095153809,-0.5361102223396301
1772024899919808300,2.707808349609375,0.2882652282714844,0.45739343762397766,-0.6437386274337769
1772024899929805300,2.717805419921875,0.31886744499206543,-0.7194297313690186,-0.9175660014152527
1772024899939802000,2.727802001953125,0.16654740273952484,-1.9259533882141113,-0.9778112769126892
1772024899949799200,2.737799072265625,-0.02046629972755909,-2.8536787033081055,-0.582159161567688
1772024899959796200,2.747796142578125,-0.12420520931482315,-3.1807382106781006,-0.0965634286403656
1772024899969792000,2.7577919921875,-0.14867323637008667,-2.8263189792633057,-0.015779247507452965
1772024899979789300,2.767789306640625,-0.12054919451475143,-1.9907526969909668,-0.37227848172187805
1772024899989786000,2.7777861328125,-0.04322833567857742,-0.8497531414031982,-0.9049564003944397
1772024899999783200,2.787783203125,0.07431240379810333,0.29765409231185913,-1.4183694124221802
1772024900009780200,2.7977802734375,0.17657363414764404,1.1704026460647583,-1.740217924118042
1772024900019777000,2.807777099609375,0.243915393948555,1.6730910539627075,-1.7222721576690674
1772024900029773300,2.817773193359375,0.25123995542526245,1.8358396291732788,-1.3855650424957275
1772024900039770000,2.82777001953125,0.23317652940750122,1.6319904327392578,-0.8136016726493835
1772024900049767200,2.83776708984375,0.18808220326900482,1.1142277717590332,-0.13287054002285004
1772024900059764200,2.84776416015625,0.11542797833681107,0.4181795120239258,0.4945688545703888
1772024900069761300,2.85776123046875,-0.03137587010860443,-0.29422464966773987,0.9426499605178833
1772024900079758000,2.867758056640625,-0.24361249804496765,-0.8130688667297363,1.1387282609939575
1772024900089754000,2.877754150390625,-0.4365414083003998,-1.1248563528060913,1.0899816751480103
1772024900099751200,2.887751220703125,-0.5571615695953369,-1.23426353931427,0.8562259078025818
1772024900109748200,2.897748291015625,-0.6226029396057129,-1.1094168424606323,0.5209845304489136
1772024900119745300,2.907745361328125,-0.6565289497375488,-0.7898203730583191,0.16975486278533936
1772024900129742000,2.9177421875,-0.6662360429763794,-0.3429163992404938,-0.12284428626298904
1772024900139739400,2.927739501953125,-0.6585685610771179,0.13259340822696686,-0.3187496066093445
1772024900149736200,2.937736083984375,-0.6610774397850037,0.4858040511608124,-0.40760013461112976
1772024900159732200,2.947732177734375,-0.6792863011360168,0.6628517508506775,-0.40297529101371765
1772024900169729300,2.957729248046875,-0.7247288823127747,0.7041481137275696,-0.3315524160861969
1772024900179726000,2.96772607421875,-0.7461305856704712,0.6708585619926453,-0.23958253860473633
1772024900189723100,2.97772314453125,-0.7507149577140808,0.6169784665107727,-0.1664237082004547
1772024900199720200,2.98772021484375,-0.7107561230659485,0.5657245516777039,-0.11785911023616791
1772024900209717200,2.99771728515625,-0.6387755870819092,0.5208300352096558,-0.09803102165460587
1772024900219713300,3.00771337890625,-0.5585851669311523,0.5345016121864319,-0.07967251539230347
1772024900229710000,3.0177099609375,-0.44134145975112915,0.6185980439186096,-0.05707914009690285
1772024900239707100,3.02770703125,-0.3156130909919739,0.5905424356460571,-0.03668385371565819
1772024900249704200,3.0377041015625,-0.17707659304141998,0.559781014919281,0.06644094735383987
1772024900259701200,3.047701171875,0.009502334520220757,0.7474957704544067,0.30907464027404785
1772024900269698000,3.057697998046875,0.22626176476478577,0.9725923538208008,0.5676471590995789
1772024900279694000,3.067694091796875,0.46504849195480347,1.0181540250778198,0.6196328401565552
1772024900289691100,3.077691162109375,0.6110092401504517,0.401592880487442,0.2695302665233612
1772024900299688200,3.087688232421875,0.535067081451416,-0.6075424551963806,-0.26083266735076904
1772024900309685200,3.097685302734375,0.19013164937496185,-1.1176024675369263,-0.5322713255882263
1772024900319682000,3.10768212890625,-0.10305310040712357,-1.0987565517425537,-0.5639797449111938
1772024900329679400,3.117679443359375,-0.05064772069454193,-0.18582598865032196,-0.22989694774150848
1772024900339675100,3.127675048828125,0.2306012511253357,0.7683478593826294,0.17439007759094238
1772024900349672200,3.137672119140625,0.5789289474487305,0.9982654452323914,0.24856925010681152
1772024900359669200,3.147669189453125,0.8289963006973267,0.6774266958236694,0.16355502605438232
1772024900369666000,3.157666015625,1.06813645362854,-0.17580367624759674,0.04624565318226814
1772024900379663000,3.1676630859375,1.1586756706237793,-1.5500086545944214,-0.17021341621875763
1772024900389660200,3.17766015625,1.0301754474639893,-2.8440520763397217,-0.20966477692127228
1772024900399656000,3.187656005859375,0.8933318853378296,-3.5795087814331055,-0.044763173907995224
1772024900409653200,3.1976533203125,0.7720125913619995,-3.704892635345459,0.02279367484152317
1772024900419650000,3.207650146484375,0.6519836783409119,-3.284085273742676,-0.05646013468503952
1772024900429647000,3.217647216796875,0.5306399464607239,-2.369291067123413,-0.2754238545894623
1772024900439644200,3.22764404296875,0.40789803862571716,-1.1398519277572632,-0.7051461935043335
1772024900449641000,3.237640869140625,0.29697832465171814,0.10212595760822296,-1.26435387134552
1772024900459638000,3.247637939453125,0.2075033187866211,1.0870803594589233,-1.6906546354293823
1772024900469634000,3.257634033203125,0.1410251408815384,1.7137144804000854,-1.8181532621383667
1772024900479631000,3.267631103515625,0.13883522152900696,2.0197534561157227,-1.6263889074325562
1772024900489628200,3.277628173828125,0.18376795947551727,2.0027284622192383,-1.174842119216919
1772024900499625200,3.287625244140625,0.22166208922863007,1.6839947700500488,-0.574618399143219
1772024900509622000,3.2976220703125,0.21557818353176117,1.153659462928772,0.04276353865861893
1772024900519619000,3.307619140625,0.1525219827890396,0.5031322836875916,0.5742258429527283
1772024900529615000,3.317614990234375,0.04561092332005501,-0.1831950843334198,0.9563053846359253
1772024900539612200,3.327612060546875,-0.07454344630241394,-0.7212015390396118,1.1914739608764648
1772024900549609200,3.337609130859375,-0.16514138877391815,-1.0071871280670166,1.255732774734497
1772024900559606000,3.34760595703125,-0.2387130707502365,-1.0207923650741577,1.1619207859039307
1772024900569603300,3.357603271484375,-0.33143070340156555,-0.790108323097229,0.9536508321762085
1772024900579600100,3.36760009765625,-0.4353669583797455,-0.4258904457092285,0.6618735790252686
1772024900589596200,3.37759619140625,-0.545440673828125,-0.050822485238313675,0.337688684463501
1772024900599593200,3.38759326171875,-0.6501417756080627,0.2947298586368561,0.04019710049033165
1772024900609590000,3.397590087890625,-0.7449243068695068,0.6148107051849365,-0.19920006394386292
1772024900619587000,3.407587158203125,-0.823655903339386,0.85724276304245,-0.3630416989326477
1772024900629584100,3.417584228515625,-0.8458374738693237,0.9940759539604187,-0.4654764235019684
1772024900639581200,3.427581298828125,-0.807854950428009,1.0619596242904663,-0.5259227156639099
1772024900649578000,3.437577880859375,-0.7141848206520081,1.0814348459243774,-0.5240656137466431
1772024900659574000,3.447573974609375,-0.5808128714561462,1.0239646434783936,-0.4613548517227173
1772024900669571000,3.457571044921875,-0.44296491146087646,0.9028794765472412,-0.2901514768600464
1772024900679568100,3.467568115234375,-0.33873358368873596,0.8349656462669373,-0.007883831858634949
1772024900689565200,3.477565185546875,-0.29533931612968445,0.7056753635406494,0.27526503801345825
1772024900699562000,3.48756201171875,-0.2550041377544403,0.37898164987564087,0.41749221086502075
1772024900709559300,3.497559326171875,-0.1761900633573532,0.025304773822426796,0.3415282964706421
1772024900719555000,3.50755517578125,-0.07221253961324692,-0.027997061610221863,0.05061178281903267
1772024900729552100,3.51755224609375,0.1603034883737564,0.20417723059654236,-0.24493525922298431
1772024900739549200,3.527549072265625,0.47717705368995667,0.3923572599887848,-0.445183128118515
1772024900749546000,3.5375458984375,0.5949670076370239,0.41015106439590454,-0.6001777648925781
1772024900759543300,3.547543212890625,0.3937595784664154,0.27372080087661743,-0.679918646812439
1772024900769540000,3.5575400390625,0.14049525558948517,0.21401946246623993,-0.7034016847610474
1772024900779536100,3.5675361328125,-0.009111018851399422,0.6303898096084595,-0.35878223180770874
1772024900789533200,3.577533203125,0.1147465631365776,1.1599645614624023,0.32329246401786804
1772024900799530000,3.587530029296875,0.44282829761505127,1.3922524452209473,0.7773499488830566
1772024900809527000,3.597527099609375,0.6728707551956177,1.1810617446899414,0.8903778791427612
1772024900819524000,3.607524169921875,0.7941516637802124,0.4789070785045624,0.7501267790794373
1772024900829521200,3.617521240234375,0.7270451188087463,-0.7321532368659973,0.2584623694419861
1772024900839517200,3.62751708984375,0.3937702476978302,-2.058314085006714,-0.40778568387031555
1772024900849514000,3.637513916015625,0.0948655903339386,-2.796916961669922,-0.8435181379318237
1772024900859511000,3.647510986328125,-0.057509828358888626,-2.8404479026794434,-1.0775465965270996
1772024900869508000,3.657508056640625,-0.1342383772134781,-2.3654329776763916,-1.1943230628967285
1772024900879505200,3.667505126953125,-0.17228402197360992,-1.5634852647781372,-1.2555547952651978
1772024900889502000,3.677501953125,-0.1425175815820694,-0.64101642370224,-1.2980824708938599
1772024900899499300,3.687499267578125,-0.06904628872871399,0.222677081823349,-1.3347667455673218
1772024900909495000,3.6974951171875,-0.06657256931066513,0.8158125877380371,-1.3559517860412598
1772024900919492000,3.7074921875,-0.12426303327083588,1.0716283321380615,-1.2575048208236694
1772024900929489200,3.7174892578125,-0.1740577518939972,1.0992738008499146,-0.9793848395347595
1772024900939486000,3.72748583984375,-0.1927635371685028,0.96640944480896,-0.5548684597015381
1772024900949483300,3.737483154296875,-0.2042146474123001,0.7089800238609314,-0.08731238543987274
1772024900959480000,3.74747998046875,-0.19888727366924286,0.37339112162590027,0.32574203610420227
1772024900969476000,3.75747607421875,-0.1713637113571167,0.06544547528028488,0.647573709487915
1772024900979473200,3.76747314453125,-0.12402176856994629,-0.1891159862279892,0.8704275488853455
1772024900989470000,3.777469970703125,-0.0781436413526535,-0.4436245262622833,0.994750440120697
1772024900999467000,3.787467041015625,-0.044400326907634735,-0.6717162728309631,1.0228911638259888
1772024901009464000,3.797464111328125,-0.04553265869617462,-0.8359957337379456,0.9757978916168213
1772024901019461000,3.807461181640625,-0.1071653962135315,-0.8909308910369873,0.874506950378418
1772024901029457200,3.81745703125,-0.22933126986026764,-0.8225780129432678,0.7367162108421326
1772024901039454000,3.827453857421875,-0.39531251788139343,-0.6751416921615601,0.5775619745254517
1772024901049451000,3.837450927734375,-0.564347505569458,-0.47691580653190613,0.41116806864738464
1772024901059448000,3.847447998046875,-0.6932364702224731,-0.2257871776819229,0.22141198813915253
1772024901069445000,3.857445068359375,-0.7636762857437134,0.018404165282845497,0.022756729274988174
1772024901079442000,3.86744189453125,-0.7825464010238647,0.21551324427127838,-0.171780526638031
1772024901089439200,3.877439208984375,-0.7716274261474609,0.39139828085899353,-0.3709924817085266
1772024901099435000,3.88743505859375,-0.7418559789657593,0.4627414345741272,-0.5530394911766052
1772024901109432000,3.89743212890625,-0.6863128542900085,0.42859548330307007,-0.6664782166481018
1772024901119429000,3.90742919921875,-0.5921035408973694,0.3451698422431946,-0.6683975458145142
1772024901129426000,3.917426025390625,-0.5062344074249268,0.2449062168598175,-0.5993406772613525
1772024901139423200,3.92742333984375,-0.45250222086906433,-0.03584901615977287,-0.506506085395813
1772024901149420000,3.937419921875,-0.38114383816719055,-0.5608706474304199,-0.425742506980896
1772024901159416300,3.947416259765625,-0.1959414929151535,-1.1146100759506226,-0.2796470820903778
1772024901169413000,3.9574130859375,0.12343118339776993,-1.2509418725967407,-0.009621740318834782
1772024901179410000,3.967409912109375,0.48231449723243713,-0.864111065864563,0.2596414387226105
1772024901189407200,3.9774072265625,0.7214077711105347,-0.24784013628959656,0.3903178870677948
1772024901199404000,3.987404052734375,0.7649198174476624,0.25705471634864807,0.3065372407436371
1772024901209401000,3.997401123046875,0.5381380915641785,0.5923592448234558,0.08174553513526917
1772024901219398100,4.007398193359375,0.19344329833984375,0.6786795258522034,-0.13733355700969696
1772024901229394200,4.017394287109375,0.03731544315814972,0.9301833510398865,-0.020189745351672173
1772024901239391000,4.027390869140625,0.14660197496414185,1.3285865783691406,0.5804910063743591
1772024901249388000,4.037387939453125,0.5352553725242615,1.5696583986282349,1.2654969692230225
1772024901259385000,4.047385009765625,0.9741443395614624,1.6447256803512573,1.672363519668579
1772024901269382000,4.0573818359375,1.2795125246047974,1.378322958946228,1.703973650932312
1772024901279379200,4.067379150390625,1.3044288158416748,0.550208330154419,1.2815829515457153
1772024901289375000,4.077375,0.9163191914558411,-0.8155557513237,0.4648112952709198
1772024901299372300,4.087372314453125,0.36136355996131897,-2.142178535461426,-0.28119179606437683
1772024901309369000,4.097369140625,-0.04736018553376198,-2.7887301445007324,-0.7673733234405518
1772024901319366000,4.107365966796875,-0.3544794023036957,-2.7233335971832275,-1.2246220111846924
1772024901329363200,4.11736328125,-0.5203820466995239,-2.066920280456543,-1.7401162385940552
1772024901339360000,4.127360107421875,-0.5219714641571045,-0.9437049627304077,-2.2591121196746826
1772024901349357000,4.137357177734375,-0.39560723304748535,0.39937180280685425,-2.6993136405944824
1772024901359353000,4.14735302734375,-0.16040056943893433,1.7274484634399414,-2.8941807746887207
1772024901369350100,4.15735009765625,0.1312834918498993,2.797067880630493,-2.7588210105895996
1772024901379347200,4.16734716796875,0.40630626678466797,3.337538003921509,-2.2972142696380615
1772024901389344000,4.177343994140625,0.6142735481262207,3.3574655055999756,-1.5636142492294312
1772024901399345400,4.187345458984375,0.7589282393455505,2.8246543407440186,-0.6356679797172546
1772024901409342500,4.197342529296875,0.8136506080627441,1.788150668144226,0.36957716941833496
1772024901419338500,4.20733837890625,0.7860349416732788,0.5445636510848999,1.3229249715805054
1772024901429335300,4.217335205078125,0.7032342553138733,-0.6656790375709534,2.0838961601257324
1772024901439332600,4.22733251953125,0.6264313459396362,-1.6681493520736694,2.5742621421813965
1772024901449329400,4.237329345703125,0.589438259601593,-2.2847115993499756,2.7564473152160645
1772024901459326500,4.247326416015625,0.5712441205978394,-2.464843511581421,2.639033794403076
1772024901469323500,4.257323486328125,0.5373317003250122,-2.32576584815979,2.2601888179779053
1772024901479320600,4.267320556640625,0.4370918869972229,-1.9408601522445679,1.6952215433120728
1772024901489316400,4.27731640625,0.2932969033718109,-1.408860683441162,1.047904133796692
1772024901499313400,4.2873134765625,0.09629303216934204,-0.8066118359565735,0.41543447971343994
1772024901509310500,4.297310546875,-0.12306436151266098,-0.20979729294776917,-0.1237826943397522
1772024901519307300,4.307307373046875,-0.3054397702217102,0.3158068358898163,-0.5338972210884094
1772024901529304600,4.3173046875,-0.44582608342170715,0.7109976410865784,-0.799472451210022
1772024901539301400,4.32730126953125,-0.5428058505058289,0.9338487982749939,-0.9248628616333008
1772024901549297400,4.33729736328125,-0.5503461956977844,1.0019325017929077,-0.9152538776397705
1772024901559294500,4.34729443359375,-0.4735720157623291,0.9592998027801514,-0.7940744161605835
1772024901569291300,4.357291259765625,-0.3546118438243866,0.8413583636283875,-0.5928915739059448
1772024901579288600,4.36728857421875,-0.19337046146392822,0.5965955257415771,-0.3685716390609741
1772024901589285400,4.377285400390625,0.00257613486610353,0.2770875096321106,-0.11228020489215851
1772024901599282400,4.387282470703125,0.14712533354759216,-0.08426427841186523,0.15121027827262878
1772024901609279500,4.397279541015625,0.19851109385490417,-0.36128246784210205,0.3768868148326874
1772024901619275300,4.407275146484375,0.23474419116973877,-0.3807730972766876,0.5218298435211182
1772024901629272600,4.4172724609375,0.359777569770813,0.1163213700056076,0.5595594048500061
1772024901639269400,4.427269287109375,0.5398181676864624,0.9975019693374634,0.41998815536499023
1772024901649266400,4.437266357421875,0.609046220779419,1.3350967168807983,-0.0015171749982982874
1772024901659263500,4.447263427734375,0.36400580406188965,1.0958831310272217,-0.49225252866744995
1772024901669260500,4.457260498046875,-0.11433231085538864,0.7313299775123596,-0.743654727935791
1772024901679257300,4.46725732421875,-0.4813137650489807,0.39683133363723755,-0.7317602634429932
1772024901689253400,4.47725341796875,-0.6060859560966492,0.5712279677391052,-0.1321142017841339
1772024901699250400,4.48725048828125,-0.43172773718833923,0.7141656875610352,0.7029812335968018
1772024901709247200,4.497247314453125,-0.07356660813093185,0.6987758874893188,1.1729907989501953
1772024901719244500,4.50724462890625,0.2341182380914688,0.49558836221694946,1.245086908340454
1772024901729241300,4.517241455078125,0.3386099934577942,-0.09671077132225037,0.9492656588554382
1772024901739238400,4.52723828125,0.10533785820007324,-1.1858490705490112,0.28861233592033386
1772024901749234400,4.537234375,-0.2651439607143402,-2.201270580291748,-0.2642190158367157
1772024901759231200,4.547231201171875,-0.45154738426208496,-2.7158360481262207,-0.32553350925445557
1772024901769228500,4.557228515625,-0.4870179295539856,-2.7732338905334473,-0.12192066758871078
1772024901779225300,4.567225341796875,-0.5046720504760742,-2.36700701713562,0.03766845911741257
1772024901789222400,4.577222412109375,-0.5165064930915833,-1.6239818334579468,-0.027362562716007233
1772024901799219500,4.587219482421875,-0.46112582087516785,-0.6927401423454285,-0.24904194474220276
1772024901809216500,4.597216552734375,-0.36245986819267273,0.20328401029109955,-0.5527598261833191
1772024901819212500,4.607212646484375,-0.2671056389808655,0.8348001837730408,-0.7726905941963196
1772024901829209300,4.617209228515625,-0.18860185146331787,1.1523923873901367,-0.7505976557731628
1772024901839206400,4.627206298828125,-0.12251949310302734,1.2233011722564697,-0.4710163176059723
1772024901849203500,4.637203369140625,-0.06090489774942398,1.055917501449585,-0.025389960035681725
1772024901859200500,4.647200439453125,0.00439927214756608,0.6866270899772644,0.47704067826271057
1772024901869197300,4.657197265625,0.07436051219701767,0.2038564383983612,0.9030205011367798
1772024901879194600,4.667194580078125,0.129277303814888,-0.3040544390678406,1.1814602613449097
1772024901889190400,4.6771904296875,0.16200529038906097,-0.7389596104621887,1.2977064847946167
1772024901899187200,4.687187255859375,0.19183349609375,-1.0081266164779663,1.2761969566345215
1772024901909184500,4.6971845703125,0.25333404541015625,-1.1050758361816406,1.163362979888916
1772024901919181300,4.707181396484375,0.3063112497329712,-1.0546164512634277,0.9759779572486877
1772024901929178400,4.717178466796875,0.3049173951148987,-0.8755947351455688,0.7489145994186401
1772024901939175400,4.727175537109375,0.25100356340408325,-0.6092259287834167,0.5190390348434448
1772024901949171500,4.73717138671875,0.15993882715702057,-0.3309246301651001,0.3283860683441162
1772024901959168500,4.74716845703125,0.034576646983623505,-0.11824511736631393,0.18092845380306244
1772024901969165300,4.757165283203125,-0.112711600959301,0.011236177757382393,0.07823536545038223
1772024901979162400,4.767162353515625,-0.25390174984931946,0.08106105774641037,0.008337504230439663
1772024901989159400,4.777159423828125,-0.361090749502182,0.08944539725780487,-0.0656827762722969
1772024901999156500,4.787156494140625,-0.423326700925827,0.07289331406354904,-0.11347852647304535
1772024902009153300,4.7971533203125,-0.4287800192832947,0.11050818860530853,-0.12960687279701233
1772024902019149600,4.807149658203125,-0.3830799162387848,0.16802820563316345,-0.10575853288173676
1772024902029146400,4.817146484375,-0.3146560490131378,0.23955939710140228,-0.02580440603196621
1772024902039143400,4.827143310546875,-0.20958290994167328,0.3243357837200165,0.10904369503259659
1772024902049140500,4.837140380859375,-0.14625421166419983,0.25196823477745056,0.2462511658668518
1772024902059137300,4.84713720703125,-0.13088564574718475,0.056277282536029816,0.36191409826278687
1772024902069134600,4.857134521484375,-0.16168251633644104,-0.24205835163593292,0.4089065492153168
1772024902079131400,4.86713134765625,-0.15136675536632538,-0.46629172563552856,0.39934977889060974
1772024902089127400,4.87712744140625,-0.007674869149923325,-0.25898176431655884,0.326732873916626
1772024902099124500,4.88712451171875,0.1720578819513321,0.06585435569286346,0.08594051748514175
1772024902109121300,4.897121337890625,0.18825383484363556,-0.1283896416425705,-0.4315665364265442
1772024902119118300,4.907118408203125,-0.1111278235912323,-0.5986940264701843,-1.0568797588348389
1772024902129115400,4.917115478515625,-0.6572033762931824,-0.9816924333572388,-1.4531933069229126
1772024902139112400,4.927112548828125,-1.1502313613891602,-0.6104797124862671,-1.5438991785049438
1772024902149108500,4.9371083984375,-1.2335375547409058,0.742519736289978,-1.1723814010620117
1772024902159105500,4.94710546875,-0.7622523307800293,1.930440902709961,-0.7201228141784668
1772024902169102300,4.957102294921875,-0.1236177608370781,2.4735512733459473,-0.5351444482803345
1772024902179099400,4.967099365234375,0.30553388595581055,2.4180965423583984,-0.513056218624115
1772024902189096400,4.977096435546875,0.5589580535888672,1.5878428220748901,-0.6043960452079773
1772024902199093200,4.98709326171875,0.5917503833770752,-0.06144189089536667,-0.8960771560668945
1772024902209090600,4.997090576171875,0.42160457372665405,-1.8562291860580444,-1.1382533311843872
1772024902219086300,5.00708642578125,0.3539605438709259,-3.0543506145477295,-1.0343272686004639
1772024902229083600,5.017083740234375,0.4792768955230713,-3.520954132080078,-0.6401922702789307
1772024902239080400,5.02708056640625,0.6555384993553162,-3.191744327545166,-0.14036305248737335
1772024902249077200,5.0370771484375,0.712278425693512,-2.381389856338501,0.19717776775360107
1772024902259074600,5.047074462890625,0.6428977847099304,-1.4223896265029907,0.3220779001712799
1772024902269071400,5.0570712890625,0.5113430619239807,-0.5204792618751526,0.26645100116729736
1772024902279068400,5.067068359375,0.3631889522075653,0.19306017458438873,0.07393694669008255
1772024902289064400,5.077064453125,0.18823553621768951,0.7283717393875122,-0.14989489316940308
1772024902299061500,5.0870615234375,0.0016669874312356114,1.1506627798080444,-0.2950286567211151
1772024902309058300,5.097058349609375,-0.1281927078962326,1.4973641633987427,-0.2918848395347595
1772024902319055400,5.107055419921875,-0.1804220974445343,1.6542456150054932,-0.16459506750106812
1772024902329052400,5.117052490234375,-0.1916981339454651,1.5779649019241333,0.02211344614624977
1772024902339049200,5.12704931640625,-0.19172316789627075,1.3222359418869019,0.19852949678897858
1772024902349045500,5.13704541015625,-0.15982215106487274,0.9553283452987671,0.3344486355781555
1772024902359042300,5.147042236328125,-0.09793322533369064,0.5346612930297852,0.4114731252193451
1772024902369039600,5.15703955078125,-0.01152739766985178,0.13478468358516693,0.4511437714099884
1772024902379036400,5.167036376953125,0.07112354040145874,-0.16441985964775085,0.4489871561527252
1772024902389033200,5.177033203125,0.12273924052715302,-0.34701815247535706,0.40956106781959534
1772024902399026200,5.187026123046875,0.12956386804580688,-0.41546061635017395,0.38647252321243286
1772024902409023000,5.19702294921875,0.06175478547811508,-0.36931347846984863,0.3780088424682617
1772024902419019000,5.20701904296875,-0.043653663247823715,-0.2779305875301361,0.3594423532485962
1772024902429016000,5.21701611328125,-0.1498207300901413,-0.14477525651454926,0.3211250901222229
1772024902439013000,5.22701318359375,-0.2452884018421173,0.0020602631848305464,0.2673851549625397
1772024902449010200,5.23701025390625,-0.30570188164711,0.11506558954715729,0.20218195021152496
1772024902459007000,5.247007080078125,-0.31576037406921387,0.21744601428508759,0.15221545100212097
1772024902469004000,5.257004150390625,-0.2693789303302765,0.30187925696372986,0.14952799677848816
1772024902479001000,5.2670009765625,-0.19555211067199707,0.3486550450325012,0.20054909586906433
1772024902488996900,5.276996826171875,-0.11713065207004547,0.3139546513557434,0.33323386311531067
1772024902498994200,5.286994140625,-0.03565123677253723,0.18950754404067993,0.5512050986289978
1772024902508991000,5.296990966796875,0.0532175749540329,0.08052492886781693,0.8425841927528381
1772024902518988000,5.306988037109375,0.12881512939929962,-0.02166748046875,1.1041853427886963
1772024902528984000,5.316984130859375,0.14504723250865936,-0.18563434481620789,1.2689191102981567
1772024902538980000,5.32697998046875,0.1108919307589531,-0.2606215178966522,1.231230616569519
1772024902548977200,5.33697705078125,0.06172921508550644,-0.07068789005279541,0.9668532013893127
1772024902558974000,5.346973876953125,-0.10958953946828842,-0.005302761681377888,0.30281609296798706
1772024902568971300,5.35697119140625,-0.4547508955001831,-0.5418447256088257,-0.8179460763931274
1772024902578968000,5.366968017578125,-0.7512070536613464,-1.2223435640335083,-1.789881944656372
1772024902588964900,5.37696484375,-0.8685815930366516,-1.4801123142242432,-2.3461267948150635
1772024902598962200,5.386962158203125,-0.8249236345291138,-0.43235674500465393,-2.3387742042541504
1772024902608958000,5.3969580078125,-0.6296051740646362,1.0779099464416504,-1.9478085041046143
1772024902618955000,5.406955078125,-0.17893338203430176,2.0460381507873535,-1.5119355916976929
1772024902628952000,5.4169521484375,0.32554247975349426,2.3428735733032227,-1.1469838619232178
1772024902638949000,5.42694921875,0.6806814074516296,1.8958054780960083,-0.8549044728279114
1772024902648946000,5.43694580078125,0.7837916612625122,0.7203052043914795,-0.7113059759140015
1772024902658943000,5.44694287109375,0.6826415657997131,-0.6335673332214355,-0.6565343737602234
1772024902668940000,5.45693994140625,0.5440741181373596,-1.6367119550704956,-0.4872785210609436
1772024902678936000,5.46693603515625,0.4717296361923218,-2.2743165493011475,-0.09794645756483078
1772024902688933000,5.47693310546875,0.551398515701294,-2.5148656368255615,0.35567373037338257
1772024902698930000,5.486929931640625,0.7798678874969482,-2.2867767810821533,0.5542371273040771
1772024902708927200,5.49692724609375,0.9725410342216492,-1.7094184160232544,0.3728797137737274
1772024902718924000,5.506924072265625,1.0121186971664429,-0.8752152323722839,-0.048285629600286484
1772024902728920800,5.5169208984375,0.931717574596405,0.0551939532160759,-0.49425503611564636
1772024902738917000,5.526917236328125,0.7939119935035706,0.8933663964271545,-0.7906185388565063
1772024902748914000,5.536913818359375,0.6214939951896667,1.5573382377624512,-0.8797730803489685
1772024902758911200,5.5469111328125,0.4526335895061493,1.962464690208435,-0.7689152359962463
1772024902768908000,5.556907958984375,0.3218529522418976,1.9978790283203125,-0.4670664966106415
1772024902778905000,5.566905029296875,0.21695689857006073,1.6744145154953003,-0.012566106393933296
1772024902788902100,5.576902099609375,0.12734447419643402,1.1207609176635742,0.5035684108734131
1772024902798899000,5.58689892578125,0.035872604697942734,0.4530622661113739,1.0008492469787598
1772024902808895200,5.596895263671875,-0.0667816773056984,-0.1949203759431839,1.4110944271087646
1772024902818892000,5.60689208984375,-0.16015291213989258,-0.7100827693939209,1.6372308731079102
1772024902828889000,5.61688916015625,-0.21639633178710938,-1.0605103969573975,1.6306726932525635
1772024902838886100,5.62688623046875,-0.2507748305797577,-1.1820446252822876,1.3887114524841309
1772024902848883200,5.63688330078125,-0.30405208468437195,-1.0818356275558472,0.9977051615715027
1772024902858880000,5.6468798828125,-0.3943324685096741,-0.8216895461082458,0.5801393985748291
1772024902868877000,5.656876953125,-0.5142229199409485,-0.4873858094215393,0.20530472695827484
1772024902878873000,5.666873046875,-0.6495668888092041,-0.15879088640213013,-0.08374278992414474
1772024902888870000,5.676869873046875,-0.756213366985321,0.12082992494106293,-0.24762949347496033
1772024902898867200,5.6868671875,-0.8143935799598694,0.28212350606918335,-0.25913116335868835
1772024902908864000,5.696864013671875,-0.8130581974983215,0.30680909752845764,-0.13316437602043152
1772024902918861000,5.706861083984375,-0.7715795040130615,0.2132410705089569,0.07383008301258087
1772024902928858000,5.716858154296875,-0.7039793729782104,0.013265982270240784,0.2962341010570526
1772024902938855200,5.726855224609375,-0.643721342086792,-0.22737646102905273,0.5203521847724915
1772024902948851200,5.736851318359375,-0.5779018402099609,-0.4326484799385071,0.7154720425605774
1772024902958848000,5.746847900390625,-0.500638484954834,-0.6077417135238647,0.8541572093963623
1772024902968845000,5.756844970703125,-0.43735605478286743,-0.7674031853675842,0.9322918057441711
1772024902978842000,5.766842041015625,-0.4371115565299988,-0.8603642582893372,0.921534538269043
1772024902988839200,5.776839111328125,-0.45260706543922424,-0.7651123404502869,0.8500187397003174
1772024902998836000,5.7868359375,-0.3332737386226654,-0.33615991473197937,0.6754522919654846
1772024903008833300,5.796833251953125,-0.09776166081428528,0.3040980100631714,0.27859175205230713
1772024903018829000,5.8068291015625,0.10008563846349716,0.7433011531829834,-0.3735404908657074
1772024903028826000,5.816826171875,-0.019626783207058907,0.5304717421531677,-1.266908049583435
1772024903038823200,5.8268232421875,-0.4980487525463104,0.4365883469581604,-1.7555123567581177
1772024903048820000,5.836820068359375,-1.026566505432129,0.502265214920044,-1.6135687828063965
1772024903058817000,5.846817138671875,-1.1216925382614136,0.7972691655158997,-1.0192995071411133
1772024903068814000,5.85681396484375,-0.7666910886764526,1.1644433736801147,-0.11450233310461044
1772024903078811100,5.86681103515625,-0.22474263608455658,1.0402843952178955,0.5195581912994385
1772024903088807200,5.87680712890625,0.32885318994522095,0.6713806986808777,0.758192241191864
1772024903098804000,5.886803955078125,0.789629340171814,0.15064962208271027,0.7491582632064819
1772024903108801000,5.896801025390625,1.076764464378357,-0.598613977432251,0.5801981687545776
1772024903118798000,5.906798095703125,1.0926843881607056,-1.3166828155517578,0.4293380677700043
1772024903128797000,5.916796875,0.9732839465141296,-1.8049646615982056,0.4507363736629486
1772024903138794000,5.9267939453125,0.8687602281570435,-2.0797431468963623,0.6428261399269104
1772024903148790000,5.9367900390625,0.8461837768554688,-2.0098681449890137,0.8530790209770203
1772024903158787000,5.946787109375,0.8858470320701599,-1.466395616531372,0.7652977705001831
1772024903168784100,5.9567841796875,0.9047381281852722,-0.5493496656417847,0.25117748975753784
1772024903178781000,5.966781005859375,0.8813422322273254,0.42400720715522766,-0.5034533739089966
1772024903188778200,5.9767783203125,0.7986482381820679,1.280973196029663,-1.269837737083435
1772024903198775000,5.986775146484375,0.6403006911277771,1.9291852712631226,-1.884114146232605
1772024903208771800,5.996771728515625,0.4449031949043274,2.2644286155700684,-2.2740023136138916
1772024903218768100,6.00676806640625,0.2463376373052597,2.252424478530884,-2.390073299407959
1772024903228765000,6.016764892578125,-0.010905640199780464,1.9327079057693481,-2.20139741897583
1772024903238762200,6.02676220703125,-0.20131659507751465,1.4539381265640259,-1.7234899997711182
1772024903248759000,6.036759033203125,-0.19963811337947845,0.9505855441093445,-1.028087854385376
1772024903258756000,6.046756103515625,-0.19149869680404663,0.4978334605693817,-0.3318434953689575
1772024903268753200,6.056753173828125,-0.24807585775852203,0.009348941035568714,0.12990714609622955
1772024903278750000,6.06675,-0.31573212146759033,-0.40432971715927124,0.3392752707004547
1772024903288746200,6.076746337890625,-0.3667660057544708,-0.7242186665534973,0.3220756947994232
1772024903298743000,6.086742919921875,-0.2776065766811371,-0.8426425457000732,0.04332688823342323
1772024903308740000,6.096739990234375,-0.14173607528209686,-0.8565160632133484,-0.25410592555999756
1772024903318737200,6.106737060546875,0.050242695957422256,-0.6928059458732605,-0.5458139181137085
1772024903328734200,6.116734130859375,0.27408096194267273,-0.279926598072052,-0.7397153973579407
1772024903338731000,6.12673095703125,0.46979081630706787,0.23239237070083618,-0.8219825625419617
1772024903348728000,6.13672802734375,0.5274397134780884,0.6688687205314636,-0.7839735150337219
1772024903358724000,6.14672412109375,0.4430089592933655,0.9234461188316345,-0.597536027431488
1772024903368721000,6.156720947265625,0.3156531751155853,1.0390669107437134,-0.3365582823753357
1772024903378718200,6.16671826171875,0.22450968623161316,1.0190109014511108,-0.09577924758195877
1772024903388715000,6.176715087890625,0.15821272134780884,0.9879793524742126,0.14355581998825073
1772024903398712800,6.186712890625,0.18108075857162476,0.9882877469062805,0.31870952248573303
1772024903408710000,6.1967099609375,0.29056036472320557,1.0233080387115479,0.3904823958873749
1772024903418707000,6.20670703125,0.4633598327636719,1.197987675666809,0.4232134521007538
1772024903428702700,6.21670263671875,0.6313025951385498,1.4819486141204834,0.4459150433540344
1772024903438700000,6.226699951171875,0.7455324530601501,1.720697283744812,0.4571687877178192
1772024903448696800,6.23669677734375,0.7736924886703491,1.799114465713501,0.46774545311927795
1772024903458694000,6.24669384765625,0.6900229454040527,1.6987721920013428,0.5079237222671509
1772024903468691000,6.25669091796875,0.504382312297821,1.240044116973877,0.5748779773712158
1772024903478688000,6.26668798828125,0.20924146473407745,0.4228244721889496,0.6127060651779175
1772024903488684800,6.276684814453125,-0.12452961504459381,-0.7368122935295105,0.45016634464263916
1772024903498680800,6.286680908203125,-0.5141708850860596,-1.517637848854065,0.28611111640930176
1772024903508678000,6.296677978515625,-0.8946771621704102,-1.4836070537567139,0.21521742641925812
1772024903518675000,6.306675048828125,-0.8619889616966248,-0.7820016145706177,0.18577857315540314
1772024903528672000,6.316672119140625,-0.43542733788490295,0.2966788411140442,0.3866734504699707
1772024903538668800,6.326668701171875,-0.043168216943740845,1.0615322589874268,0.44556471705436707
1772024903548666000,6.336666015625,0.2019558548927307,1.2636196613311768,0.24541723728179932
1772024903558663000,6.346662841796875,0.26570233702659607,0.968453049659729,-0.048386164009571075
1772024903568660000,6.356659912109375,0.19804474711418152,0.1846325695514679,-0.3974556028842926
1772024903578656000,6.366656005859375,-0.047799646854400635,-0.9043377041816711,-0.6750856637954712
1772024903588652800,6.37665283203125,-0.35770896077156067,-1.832938551902771,-0.7221073508262634
1772024903598649900,6.38664990234375,-0.5763789415359497,-2.4004476070404053,-0.5951179265975952
1772024903608647000,6.39664697265625,-0.6310105323791504,-2.43647837638855,-0.4341508746147156
1772024903618644000,6.40664404296875,-0.5112617611885071,-1.9397331476211548,-0.38561317324638367
1772024903628640800,6.416640869140625,-0.2887061536312103,-1.1774743795394897,-0.527875542640686
1772024903638638000,6.42663818359375,-0.07585274428129196,-0.3771938979625702,-0.7931506633758545
1772024903648633900,6.4366337890625,0.030734846368432045,0.2692611515522003,-1.0678248405456543
1772024903658631000,6.446630859375,-0.005495063960552216,0.6972433924674988,-1.2457866668701172
1772024903668628000,6.4566279296875,-0.09090826660394669,0.8228599429130554,-1.2475759983062744
1772024903678624800,6.466624755859375,-0.27204903960227966,0.772750973701477,-1.0907983779907227
1772024903688622000,6.4766220703125,-0.5015236735343933,0.49546852707862854,-0.7677029371261597
1772024903698619000,6.486618896484375,-0.6413534283638,0.1358669549226761,-0.40556198358535767
1772024903708616000,6.496615966796875,-0.614470362663269,-0.19288362562656403,-0.0846593976020813
1772024903718612000,6.506612060546875,-0.4474206268787384,-0.4050709903240204,0.17364513874053955
1772024903728608800,6.51660888671875,-0.20240575075149536,-0.5404134392738342,0.3338918685913086
1772024903738606000,6.526606201171875,0.04243622347712517,-0.5533363819122314,0.4061703085899353
1772024903748603000,6.536602783203125,0.23477502167224884,-0.4433225989341736,0.44590264558792114
1772024903758600000,6.546599853515625,0.3415403366088867,-0.35129281878471375,0.4957021474838257
1772024903768597000,6.556596923828125,0.34978997707366943,-0.30664002895355225,0.5316264033317566
1772024903778594000,6.566593994140625,0.2358303815126419,-0.3604241609573364,0.5512374043464661
1772024903788590800,6.5765908203125,0.013310554437339306,-0.4699336588382721,0.5652354955673218
1772024903798587000,6.5865869140625,-0.24927181005477905,-0.5735055804252625,0.5686911940574646
1772024903808584000,6.596583984375,-0.4480447769165039,-0.6021687984466553,0.5797215104103088
1772024903818581000,6.6065810546875,-0.5376434326171875,-0.5363556742668152,0.5932130813598633
1772024903828578000,6.616578125,-0.5475863218307495,-0.3672342002391815,0.5780157446861267
1772024903838574800,6.626574951171875,-0.47490039467811584,-0.12808258831501007,0.5269259214401245
1772024903848572000,6.636572021484375,-0.34686434268951416,0.11642593145370483,0.4496440291404724
1772024903858569000,6.64656884765625,-0.24462930858135223,0.2769959270954132,0.3894081115722656
1772024903868564700,6.656564697265625,-0.21629394590854645,0.3053627610206604,0.37282976508140564
1772024903878562000,6.66656201171875,-0.24386538565158844,0.18017660081386566,0.453607976436615
1772024903888558800,6.676558837890625,-0.3051699697971344,-0.04631533473730087,0.6503348350524902
1772024903898556000,6.686555908203125,-0.388391375541687,-0.25381338596343994,0.932259738445282
1772024903908553000,6.696552978515625,-0.41571518778800964,-0.24511343240737915,1.1398334503173828
1772024903918550000,6.706550048828125,-0.30234575271606445,0.012634742073714733,1.074501633644104
1772024903928546800,6.716546875,-0.02304159477353096,0.47550901770591736,0.7142007350921631
1772024903938544000,6.726544189453125,0.31053104996681213,0.7180449962615967,0.1679672747850418
1772024903948540000,6.736539794921875,0.4959203898906708,0.026595259085297585,-0.5121595859527588
1772024903958537000,6.746536865234375,0.319725900888443,-1.1478843688964844,-1.0592920780181885
1772024903968534000,6.756533935546875,-0.28623509407043457,-1.9361274242401123,-1.059208869934082
1772024903978530800,6.76653076171875,-0.8814390301704407,-1.965381145477295,-0.5867966413497925
1772024903988528000,6.776528076171875,-1.0671539306640625,-1.1626306772232056,0.23556019365787506
1772024903998525000,6.78652490234375,-0.7563244104385376,-0.37159112095832825,0.6777064204216003
1772024904008522000,6.79652197265625,-0.14431273937225342,0.21474888920783997,0.6763119101524353
1772024904018519000,6.80651904296875,0.4519231915473938,0.41246381402015686,0.4931785762310028
1772024904028514800,6.816514892578125,0.821768581867218,0.024654552340507507,0.12926837801933289
1772024904038511900,6.826511962890625,0.8232749104499817,-0.8025144934654236,-0.09721989929676056
1772024904048509000,6.836509033203125,0.5735288858413696,-1.6306180953979492,0.13760258257389069
1772024904058506000,6.846506103515625,0.34556204080581665,-2.1167232990264893,0.5777088403701782
1772024904068502800,6.856502685546875,0.24165719747543335,-2.176328659057617,0.8028982877731323
1772024904078500000,6.8665,0.2495449334383011,-1.7333502769470215,0.710040807723999
1772024904088497000,6.876496826171875,0.368507981300354,-0.912362277507782,0.341395765542984
1772024904098493000,6.886492919921875,0.5294944643974304,0.05969230830669403,-0.16449806094169617
1772024904108490000,6.896489990234375,0.652522623538971,0.9658158421516418,-0.6003844141960144
1772024904118486800,6.90648681640625,0.6799534559249878,1.6303973197937012,-0.8468993902206421
1772024904128484000,6.916484130859375,0.6296271681785583,2.0177671909332275,-0.8937321305274963
1772024904138481000,6.92648095703125,0.533047616481781,2.1791832447052,-0.7734070420265198
1772024904148478000,6.93647802734375,0.36157146096229553,2.106154680252075,-0.5643044710159302
1772024904158475000,6.94647509765625,0.14108754694461823,1.8134582042694092,-0.34334835410118103
1772024904168471800,6.956471923828125,-0.08051736652851105,1.3511210680007935,-0.12918905913829803
1772024904178468000,6.966468017578125,-0.24701234698295593,0.806682825088501,0.07151927798986435
1772024904188465000,6.97646484375,-0.3526502847671509,0.31169435381889343,0.24620170891284943
1772024904198462000,6.9864619140625,-0.36161503195762634,-0.06519806385040283,0.3770926296710968
1772024904208459000,6.996458984375,-0.2830483019351959,-0.2852768898010254,0.4299406409263611
1772024904218456000,7.0064560546875,-0.11652138829231262,-0.2960675060749054,0.41082075238227844
1772024904228452900,7.016452880859375,0.12394948303699493,-0.1622002124786377,0.3255310356616974
1772024904238450000,7.026449951171875,0.33319780230522156,0.00876086950302124,0.20640119910240173
1772024904248447000,7.036447021484375,0.41903573274612427,0.1280185580253601,0.12814553081989288
1772024904258442800,7.04644287109375,0.38483914732933044,0.14664949476718903,0.11820262670516968
1772024904268440000,7.056440185546875,0.25800490379333496,0.08911829441785812,0.1611429750919342
1772024904278436900,7.066436767578125,0.0685979500412941,0.0005303717916831374,0.22849218547344208
1772024904288434000,7.076433837890625,-0.1255667507648468,-0.05572202429175377,0.25914713740348816
1772024904298431000,7.086430908203125,-0.2793930470943451,-0.06160494685173035,0.21973049640655518
1772024904308427800,7.096427734375,-0.37513890862464905,0.029236765578389168,0.16012459993362427
1772024904318424800,7.1064248046875,-0.393373042345047,0.2019113451242447,0.14789189398288727
1772024904328422000,7.116421875,-0.31712591648101807,0.3110600709915161,0.21307557821273804
1772024904338418000,7.12641796875,-0.13322824239730835,0.32541903853416443,0.3573366105556488
1772024904348415000,7.1364150390625,0.039325300604104996,0.3354349434375763,0.5093058347702026
1772024904358412000,7.146412109375,0.056469399482011795,0.32378655672073364,0.6043673753738403
1772024904368408800,7.156408935546875,-0.05618493631482124,0.28292104601860046,0.5645810961723328
1772024904378406000,7.166406005859375,-0.15608489513397217,0.39179161190986633,0.4472030997276306
1772024904388403000,7.17640283203125,-0.17038626968860626,0.6327335834503174,0.28437885642051697
1772024904398403000,7.186403076171875,-0.14457517862319946,0.7260915040969849,-0.006498515605926514
1772024904408400100,7.196400146484375,-0.3276624083518982,0.6029887199401855,-0.4267493784427643
1772024904418396000,7.20639599609375,-0.7016538381576538,0.6014614105224609,-0.7407430410385132
1772024904428393200,7.216393310546875,-0.8442839980125427,0.8611170053482056,-0.8784434199333191
1772024904438390000,7.22639013671875,-0.6911937594413757,1.3901426792144775,-0.6087967753410339
1772024904448387000,7.236386962890625,-0.39247870445251465,1.5533733367919922,-0.20993812382221222
1772024904458384100,7.246384033203125,-0.10765471309423447,1.2619459629058838,-0.032636042684316635
1772024904468381200,7.256381103515625,0.032265547662973404,0.7763447761535645,-0.03244679048657417
1772024904478378000,7.2663779296875,0.1124514639377594,0.13605724275112152,-0.10611994564533234
1772024904488375000,7.276375,0.17562134563922882,-0.6767897009849548,-0.251993328332901
1772024904498371000,7.28637109375,0.1523684859275818,-1.4245320558547974,-0.4393693506717682
1772024904508368100,7.2963681640625,0.058393534272909164,-1.859866738319397,-0.5826642513275146
1772024904518365200,7.306365234375,-0.0025539742782711983,-1.9665361642837524,-0.6394204497337341
1772024904528362000,7.316362060546875,0.00440634461119771,-1.7219700813293457,-0.6265262365341187
1772024904538359000,7.326359130859375,0.04241231456398964,-1.2389373779296875,-0.6578524708747864
1772024904548356000,7.336356201171875,0.13293610513210297,-0.6101769804954529,-0.7693103551864624
1772024904558353000,7.346352783203125,0.26732856035232544,0.06378787755966187,-0.9613346457481384
1772024904568350000,7.356349853515625,0.35847559571266174,0.6750518679618835,-1.210211992263794
1772024904578346000,7.366345947265625,0.3717266917228699,1.0549564361572266,-1.4016422033309937
1772024904588343000,7.376343017578125,0.3278767764568329,1.164450764656067,-1.433139443397522
1772024904598340000,7.386340087890625,0.2546329200267792,0.9942025542259216,-1.2554205656051636
1772024904608337200,7.396337158203125,0.17483775317668915,0.6413723826408386,-0.9062724709510803
1772024904618334000,7.406333984375,0.1404733806848526,0.19616776704788208,-0.44718262553215027
1772024904628331000,7.4163310546875,0.2510233223438263,-0.10240460187196732,0.04242876172065735
1772024904638328000,7.426328125,0.49398189783096313,-0.2161543369293213,0.5070992112159729
1772024904648324900,7.436324951171875,0.7716889381408691,-0.19537316262722015,0.8825958371162415
1772024904658321200,7.446321044921875,1.0079408884048462,-0.10527975112199783,1.165500521659851
1772024904668318000,7.45631787109375,1.1789288520812988,-0.07182454317808151,1.3415309190750122
1772024904678315300,7.466315185546875,1.3043829202651978,-0.09343982487916946,1.3557074069976807
1772024904688312000,7.47631201171875,1.3364193439483643,-0.09792549163103104,1.2495455741882324
1772024904698308900,7.486308837890625,1.2890886068344116,0.0007377067813649774,1.1170717477798462
1772024904708306200,7.49630615234375,1.2256052494049072,0.14311839640140533,0.9461573958396912
1772024904718303000,7.506302978515625,1.1340771913528442,0.36740928888320923,0.745851457118988
1772024904728300000,7.516300048828125,1.0104435682296753,0.7124782800674438,0.5924853086471558
1772024904738296000,7.526296142578125,0.9181839227676392,1.1162313222885132,0.5167844295501709
1772024904748293000,7.536293212890625,0.9190552830696106,1.5424267053604126,0.5213321447372437
1772024904758290200,7.546290283203125,0.9706268906593323,1.8621852397918701,0.5150428414344788
1772024904768287000,7.556286865234375,0.9841475486755371,1.8583004474639893,0.46319910883903503
1772024904778284000,7.566283935546875,0.9429252743721008,1.72636079788208,0.5014346241950989
1772024904788281000,7.576281005859375,0.8577905893325806,1.6791208982467651,0.5959374308586121
1772024904798278100,7.586278076171875,0.7968774437904358,1.6986069679260254,0.521980881690979
1772024904808275000,7.59627490234375,0.7402480244636536,1.8256579637527466,0.20634029805660248
1772024904818271200,7.606271240234375,0.6390247344970703,1.9534844160079956,-0.20966996252536774
1772024904828268000,7.61626806640625,0.650251030921936,1.7409287691116333,-0.49938395619392395
1772024904838264800,7.626264892578125,0.8705631494522095,1.240634560585022,-0.4398801624774933
1772024904848262100,7.63626220703125,1.216983675956726,0.5023711323738098,-0.005882373079657555
1772024904858259000,7.646259033203125,1.3812501430511475,-0.6891372203826904,0.3782586455345154
1772024904868256000,7.656256103515625,1.1180856227874756,-1.7133032083511353,0.49904319643974304
1772024904878253000,7.666253173828125,0.4291597008705139,-1.7883105278015137,0.6251672506332397
1772024904888250000,7.67625,-0.16626378893852234,-1.3276972770690918,0.6980641484260559
1772024904898246100,7.68624609375,-0.4025341272354126,-0.45993396639823914,0.8005239367485046
1772024904908243000,7.696242919921875,-0.5393072962760925,0.6377224326133728,1.184157133102417
1772024904918240000,7.706239990234375,-0.32129958271980286,1.2726002931594849,0.7779603600502014
1772024904928237000,7.716237060546875,-0.014435021206736565,1.1524678468704224,0.2048734873533249
1772024904938234000,7.726234130859375,0.03649101033806801,0.4563593864440918,-0.40948182344436646
1772024904948231000,7.73623095703125,-0.1408785581588745,-0.3279481828212738,-0.9263285398483276
1772024904958228200,7.746228271484375,-0.29330697655677795,-0.9475136995315552,-1.1974533796310425
1772024904968225000,7.75622509765625,-0.2856957018375397,-1.4509657621383667,-1.1496952772140503
1772024904978221000,7.766220947265625,-0.205124169588089,-1.9369266033172607,-0.9043717384338379
1772024904988218000,7.776218017578125,-0.20658907294273376,-2.3976924419403076,-0.5666366815567017
1772024904998215000,7.78621484375,-0.5797080993652344,-1.9903593063354492,-0.0636155977845192
1772024905008212000,7.7962119140625,-0.824272096157074,-1.142618179321289,0.21056799590587616
1772024905018209000,7.806208984375,-0.7661209106445312,-0.0269212294369936,0.3115345537662506
1772024905028206000,7.8162060546875,-0.46613621711730957,0.787316083908081,0.26097872853279114
1772024905038203000,7.826202880859375,-0.14872443675994873,1.1465104818344116,0.25045257806777954
1772024905048200200,7.8362001953125,0.03386220335960388,1.257846474647522,0.49613499641418457
1772024905058196000,7.846196044921875,0.14234501123428345,1.092768907546997,1.0027433633804321
1772024905068193000,7.856193115234375,0.28502368927001953,0.770904541015625,1.4680743217468262
1772024905078190000,7.866190185546875,0.4393448233604431,0.5119853615760803,1.7377023696899414
1772024905088187000,7.876186767578125,0.6190122961997986,0.4869360029697418,1.8515360355377197
1772024905098184200,7.88618408203125,0.7828986644744873,0.5860260725021362,1.7812049388885498
1772024905108181000,7.896180908203125,0.8418699502944946,0.5300946235656738,1.4979029893875122
1772024905118178000,7.906177978515625,0.804189145565033,0.08280659466981888,1.2540706396102905
1772024905128175000,7.916175048828125,0.7207831740379333,-0.35226061940193176,1.293740153312683
1772024905138171000,7.9261708984375,0.5965232253074646,-0.6208880543708801,1.5894551277160645
1772024905148168200,7.936168212890625,0.39905473589897156,-0.8370729088783264,1.8698920011520386
1772024905158165000,7.9461650390625,0.15177945792675018,-1.0074225664138794,1.9881457090377808
1772024905168162000,7.956162109375,-0.0886770635843277,-0.9960015416145325,2.0199592113494873
1772024905178159000,7.9661591796875,-0.2823525369167328,-0.8313185572624207,2.07673716545105
1772024905188156200,7.97615625,-0.34261828660964966,-0.6053920984268188,2.1034317016601562
1772024905198153000,7.986153076171875,-0.3008743226528168,-0.06466200947761536,1.9151263236999512
1772024905208150300,7.996150390625,-0.28277572989463806,0.6061038374900818,1.4919700622558594
1772024905218147000,8.00614697265625,-0.25446048378944397,1.459213137626648,0.9366844296455383
1772024905228143000,8.01614306640625,-0.13668228685855865,2.0649633407592773,0.39349931478500366
1772024905238140200,8.02614013671875,-0.05500020831823349,2.6160717010498047,-0.029626645147800446
1772024905248137000,8.036136962890625,-0.0718008428812027,3.2135813236236572,-0.1414632946252823
1772024905258134000,8.046134033203124,-0.30689537525177,3.151735305786133,0.15239734947681427
1772024905268131000,8.056131103515625,-0.5710597634315491,2.6053736209869385,0.7713710069656372
1772024905278128000,8.066128173828124,-0.4709877669811249,1.7071858644485474,1.704383134841919
1772024905288125000,8.076125,-0.35111990571022034,0.6469870209693909,2.4045655727386475
1772024905298122200,8.086122314453124,-0.4219573140144348,-0.010378871113061905,2.2429094314575195
1772024905308118000,8.096117919921875,-0.29786819219589233,-0.48512107133865356,1.160712718963623
1772024905318115000,8.106114990234374,0.0384749174118042,-0.4762149155139923,-0.40836167335510254
1772024905328112000,8.116112060546875,0.17733894288539886,-0.03915286064147949,-1.5445611476898193
1772024905338109000,8.12610888671875,0.08476240187883377,-0.004709931090474129,-1.7474796772003174
1772024905348106200,8.136106201171875,-0.06496582925319672,-0.0002907942980527878,-1.215480089187622
1772024905358103000,8.14610302734375,0.02405671961605549,-0.20974841713905334,-0.5470255017280579
1772024905368100000,8.15610009765625,0.15403661131858826,-0.40731510519981384,-0.19250062108039856
1772024905378097200,8.16609716796875,0.051037538796663284,-0.44377991557121277,-0.5250780582427979
1772024905388093000,8.176093017578125,-0.11031311750411987,-0.37737128138542175,-1.4371227025985718
1772024905398086100,8.186086181640626,-0.2415025681257248,-0.17692101001739502,-2.3412399291992188
1772024905408083000,8.1960830078125,-0.23311389982700348,0.41960641741752625,-2.7495062351226807
1772024905418079700,8.206079833984376,-0.3564494252204895,0.3235619068145752,-2.7939083576202393
1772024905428077000,8.2160771484375,-0.4129948019981384,-0.5463141202926636,-2.8010950088500977
1772024905438073900,8.226073974609376,-0.27108266949653625,-1.1048730611801147,-2.5994982719421387
1772024905448071000,8.23607080078125,-0.04513746127486229,-1.566866397857666,-2.370030164718628
1772024905458068000,8.24606787109375,0.1826014220714569,-2.0175673961639404,-2.123304605484009
1772024905468064000,8.25606396484375,0.2841816842556,-2.246908664703369,-1.7545523643493652
1772024905478061000,8.26606103515625,0.2029627412557602,-2.3248555660247803,-1.3100790977478027
1772024905488057900,8.276057861328125,0.01691567525267601,-2.275430202484131,-0.7928970456123352
1772024905498055000,8.286054931640624,-0.1915096938610077,-2.0989816188812256,-0.2919495105743408
1772024905508052000,8.296052001953125,-0.3536614179611206,-1.7724124193191528,0.13596874475479126
1772024905518049000,8.306049072265624,-0.3951321840286255,-1.3821029663085938,0.42934709787368774
1772024905528045800,8.3160458984375,-0.2879699170589447,-0.9215649366378784,0.5732555389404297
1772024905538043100,8.326043212890625,-0.07372792810201645,-0.41339921951293945,0.6208456754684448
1772024905548039000,8.336038818359375,0.13030344247817993,0.11829587072134018,0.6183808445930481
1772024905558036000,8.346035888671874,0.2624915838241577,0.6266368627548218,0.5908051133155823
1772024905568033000,8.356032958984375,0.31604915857315063,1.0959848165512085,0.557648777961731
1772024905578029800,8.36602978515625,0.32949599623680115,1.461322546005249,0.5197519659996033
1772024905588027000,8.37602685546875,0.3067609369754791,1.6788691282272339,0.5011529922485352
1772024905598024000,8.38602392578125,0.27268630266189575,1.6375932693481445,0.5842180848121643
1772024905608021000,8.39602099609375,0.26089346408843994,1.4220107793807983,0.7148919105529785
1772024905618017800,8.406017822265625,0.2715088129043579,1.0564384460449219,0.81722491979599
1772024905628015000,8.41601513671875,0.33127203583717346,0.7514854669570923,0.8378779292106628
1772024905638011000,8.426010986328125,0.4668578505516052,0.6318591833114624,0.7149754166603088
1772024905648008000,8.436008056640626,0.5353797674179077,0.6301190257072449,0.5840034484863281
1772024905658005000,8.4460048828125,0.5564379096031189,0.713578999042511,0.5284770727157593
1772024905668001800,8.456001708984376,0.5544020533561707,1.0211150646209717,0.4620240330696106
1772024905677999000,8.4659990234375,0.5033354163169861,1.485922932624817,0.38103196024894714
1772024905687996000,8.475995849609374,0.38881680369377136,1.7061874866485596,0.2976815104484558
1772024905697993000,8.485992919921875,0.24444685876369476,1.5045585632324219,0.2735452651977539
1772024905707990000,8.495989990234374,0.17532981932163239,1.0975687503814697,0.2872403562068939
1772024905717985800,8.50598583984375,0.1726626604795456,0.6089086532592773,0.5245482325553894
1772024905727983000,8.515983154296874,0.16442470252513885,0.5988106727600098,1.0075255632400513
1772024905737980000,8.52597998046875,0.021739723160862923,0.7467436790466309,1.4265385866165161
1772024905747977000,8.53597705078125,-0.19131247699260712,0.8051689863204956,1.3284659385681152
1772024905757974000,8.54597412109375,-0.3508930802345276,0.8349018692970276,0.6647372245788574
1772024905767971000,8.55597119140625,-0.4172036647796631,1.0490165948867798,-0.022890901193022728
1772024905777967900,8.5659677734375,-0.22821085155010223,0.6080191135406494,-0.19245144724845886
1772024905787965200,8.575965087890625,0.16263331472873688,0.006588779389858246,0.05911353975534439
1772024905797961000,8.5859609375,0.30306074023246765,-0.10834845900535583,0.48322832584381104
1772024905807957800,8.595957763671874,0.2948623299598694,0.036575522273778915,0.6188684105873108
1772024905817955000,8.605955078125,0.24689321219921112,0.3136116564273834,0.38391047716140747
1772024905827951900,8.615951904296875,0.1308385133743286,0.5021381974220276,-0.11440254002809525
1772024905837949000,8.625948974609376,-0.07451517134904861,0.3071119785308838,-0.9389819502830505
1772024905847946000,8.635946044921875,-0.3181997835636139,0.043901219964027405,-1.8413225412368774
1772024905857943000,8.645943115234376,-0.5474390983581543,-0.06259460002183914,-2.445305109024048
1772024905867939800,8.65593994140625,-0.7181627750396729,-0.10885745286941528,-2.66398024559021
1772024905877937200,8.665937255859374,-0.7265285849571228,-0.07701243460178375,-2.5725526809692383
1772024905887933000,8.675932861328125,-0.6103183031082153,0.03823348507285118,-2.2086734771728516
1772024905897930000,8.685929931640626,-0.4518927037715912,0.11431760340929031,-1.6927539110183716
1772024905907927000,8.695927001953125,-0.2482454925775528,0.04125494137406349,-1.1257020235061646
1772024905917923800,8.705923828125,-0.03178376704454422,-0.16486626863479614,-0.626559853553772
1772024905927921200,8.715921142578125,0.1331324428319931,-0.4310768246650696,-0.20348598062992096
1772024905937918000,8.72591796875,0.2152283787727356,-0.6169379949569702,0.17017628252506256
1772024905947915000,8.7359150390625,0.207821786403656,-0.6972182393074036,0.481370210647583
1772024905957912000,8.745912109375,0.19749164581298828,-0.7073542475700378,0.5991743803024292
1772024905967907800,8.755907958984375,0.1514779031276703,-0.6209235191345215,0.5288249254226685
1772024905977905200,8.7659052734375,0.029106713831424713,-0.4462587237358093,0.37090128660202026
1772024905987902000,8.77590185546875,-0.11628567427396774,-0.2706063985824585,0.20140905678272247
1772024905997899000,8.78589892578125,-0.23558968305587769,-0.14838539063930511,0.06602273881435394
1772024906007896000,8.79589599609375,-0.30185920000076294,-0.1264694333076477,-0.029719289392232895
1772024906017893000,8.80589306640625,-0.3105855882167816,-0.21710292994976044,-0.09450414776802063
1772024906027890000,8.815889892578125,-0.26134300231933594,-0.35521888732910156,-0.12117291241884232
1772024906037887000,8.825886962890625,-0.1193709447979927,-0.4531062841415405,-0.06489020586013794
1772024906047884000,8.835884033203126,0.0717032179236412,-0.4609111547470093,0.1613147258758545
1772024906057879800,8.8458798828125,0.24715226888656616,-0.38028448820114136,0.49941766262054443
1772024906067877000,8.855877197265626,0.40969666838645935,-0.2614986300468445,0.7912877202033997
1772024906077874000,8.8658740234375,0.5282965302467346,-0.10191429406404495,0.9445734024047852
1772024906087871000,8.87587109375,0.5802515745162964,0.05789688602089882,0.9656994342803955
1772024906097868000,8.885867919921875,0.5853105187416077,0.21693181991577148,0.8756222724914551
1772024906107864800,8.89586474609375,0.5414838790893555,0.3015318810939789,0.7300463914871216
1772024906117862000,8.90586181640625,0.4795409142971039,0.32719674706459045,0.6016982197761536
1772024906127859000,8.91585888671875,0.4560774266719818,0.2764536142349243,0.5424244999885559
1772024906137855000,8.92585498046875,0.4835894703865051,0.1582753211259842,0.5777150988578796
1772024906147852000,8.93585205078125,0.5095428824424744,0.03333166614174843,0.6241164207458496
1772024906157849000,8.94584912109375,0.5233580470085144,-0.09035458415746689,0.5890228748321533
1772024906167846000,8.955845947265624,0.5248652100563049,-0.05988720431923866,0.48972946405410767
1772024906177843000,8.965843017578125,0.4423053562641144,0.20912402868270874,0.46547338366508484
1772024906187840000,8.975840087890624,0.33636316657066345,0.4114955961704254,0.6551191210746765
1772024906197836800,8.9858369140625,0.2476349025964737,0.4292663335800171,0.8043394684791565
1772024906207834000,8.995834228515625,0.20017173886299133,0.4826650321483612,0.3548536002635956
1772024906217831000,9.005830810546875,0.21497412025928497,0.8209347128868103,-0.6099784970283508
1772024906227827200,9.0158271484375,0.3115710914134979,0.6438506841659546,-1.2682855129241943
1772024906237824000,9.025823974609375,0.574837327003479,-0.11322984844446182,-1.1813569068908691
1772024906247820800,9.03582080078125,0.6622995734214783,-0.6247477531433105,-0.40094560384750366
1772024906257817900,9.04581787109375,0.5452499389648438,-0.5478968620300293,0.3882342278957367
1772024906267815000,9.05581494140625,0.33659231662750244,-0.23758581280708313,0.7367998957633972
1772024906277812000,9.06581201171875,0.1326863318681717,0.07116297632455826,0.7250492572784424
1772024906287808800,9.075808837890625,-0.0804046019911766,0.2804681658744812,0.24785883724689484
1772024906297806000,9.08580615234375,-0.3523136079311371,0.4503490626811981,-0.4608272314071655
1772024906307801900,9.0958017578125,-0.5758876800537109,0.5527721643447876,-0.8987128734588623
1772024906317799000,9.105798828125,-0.614511251449585,0.5098204612731934,-0.8889989852905273
1772024906327796000,9.1157958984375,-0.5403026342391968,0.362394779920578,-0.6100382208824158
1772024906337792800,9.125792724609376,-0.4703933000564575,0.1337064802646637,-0.276694655418396
1772024906347790000,9.1357900390625,-0.46574851870536804,-0.10774367302656174,0.022425109520554543
1772024906357787000,9.145786865234374,-0.5259324908256531,-0.30887171626091003,0.22361813485622406
1772024906367784000,9.155783935546875,-0.599581241607666,-0.4827391803264618,0.35217955708503723
1772024906377781000,9.165781005859374,-0.638516366481781,-0.6004669070243835,0.45045632123947144
1772024906387778000,9.175778076171875,-0.6112491488456726,-0.6561717391014099,0.5679357647895813
1772024906397774600,9.185774658203124,-0.5489237308502197,-0.6693106889724731,0.6753612756729126
1772024906407772000,9.19577197265625,-0.45879626274108887,-0.6728079319000244,0.7456462383270264
1772024906417768700,9.205768798828124,-0.38087353110313416,-0.6223631501197815,0.7298145294189453
1772024906427765500,9.215765625,-0.32661575078964233,-0.45964330434799194,0.6145211458206177
1772024906437762800,9.2257626953125,-0.29130545258522034,-0.25105413794517517,0.41583409905433655
1772024906447759600,9.235759521484376,-0.26543983817100525,-0.07544346153736115,0.10608513653278351
1772024906457756700,9.245756591796875,-0.21651571989059448,0.020348845049738884,-0.297331839799881
1772024906467753700,9.255753662109376,-0.16941766440868378,0.09258265048265457,-0.7067159414291382
1772024906477750800,9.265750732421875,-0.10504106432199478,0.14055363833904266,-0.9905412793159485
1772024906487746800,9.275746826171876,-0.012215922586619854,0.15072421729564667,-1.0794426202774048
1772024906497743600,9.28574365234375,0.12516216933727264,0.11913912743330002,-0.9986177682876587
1772024906507740700,9.29574072265625,0.2970083951950073,0.03272244706749916,-0.8329673409461975
1772024906517737700,9.30573779296875,0.4281802773475647,-0.04137148708105087,-0.6211264729499817
1772024906527734800,9.31573486328125,0.49581459164619446,-0.05803484097123146,-0.4448903799057007
1772024906537729800,9.325729736328125,0.5140863060951233,-0.08138677477836609,-0.3526901304721832
1772024906547726600,9.3357265625,0.4535197615623474,-0.24742740392684937,-0.32132771611213684
1772024906557723600,9.3457236328125,0.319955050945282,-0.42067959904670715,-0.3731946647167206
1772024906567720700,9.355720703125,0.19476644694805145,-0.5744119882583618,-0.4730518162250519
1772024906577717800,9.3657177734375,0.10695723444223404,-0.7040895223617554,-0.5357439517974854
1772024906587713800,9.3757138671875,0.04287293553352356,-0.7562718987464905,-0.5707724094390869
1772024906597710600,9.385710693359375,0.058498233556747437,-0.6786500811576843,-0.5825777053833008
1772024906607707600,9.395707763671876,0.1327248364686966,-0.5070177912712097,-0.554257333278656
1772024906617704700,9.40570458984375,0.21470040082931519,-0.3346793055534363,-0.5749064087867737
1772024906627701800,9.41570166015625,0.2852877378463745,-0.1465626060962677,-0.6290593147277832
1772024906637698600,9.425698486328125,0.24896061420440674,0.14358294010162354,-0.5693656206130981
1772024906647696000,9.43569580078125,0.010189441032707691,0.5720950961112976,-0.15388543903827667
1772024906657692700,9.445692626953125,-0.012608549557626247,1.0761436223983765,0.013034840114414692
1772024906667689700,9.455689697265624,0.2566586136817932,1.7156611680984497,-0.3745630085468292
1772024906677685800,9.465685791015625,0.4030246138572693,1.692927360534668,-1.0252108573913574
1772024906687682600,9.4756826171875,0.4849899411201477,0.9064507484436035,-1.2123723030090332
1772024906697680000,9.485679931640625,0.5976139307022095,-0.10817047953605652,-0.7419954538345337
1772024906707676700,9.4956767578125,0.33334246277809143,-0.8818835616111755,-0.012376448139548302
1772024906717673700,9.505673828125,-0.08105207979679108,-1.0231839418411255,0.3783945143222809
1772024906727670800,9.5156708984375,-0.3357352912425995,-0.8518903851509094,0.29976412653923035
1772024906737667800,9.525667724609375,-0.43848323822021484,-0.5927544236183167,-0.17729300260543823
1772024906747664600,9.53566455078125,-0.4321262240409851,-0.24881279468536377,-0.8324655294418335
1772024906757661700,9.54566162109375,-0.43537047505378723,0.23361723124980927,-1.3813533782958984
1772024906767657700,9.55565771484375,-0.5121943950653076,0.5770026445388794,-1.6503117084503174
1772024906777654500,9.565654541015626,-0.5642775297164917,0.6439366936683655,-1.7347384691238403
1772024906787651800,9.57565185546875,-0.5651980638504028,0.4931083023548126,-1.6873054504394531
1772024906797648600,9.585648681640626,-0.5712442398071289,0.14313217997550964,-1.559388518333435
1772024906807645700,9.595645751953125,-0.5719375610351562,-0.2672131061553955,-1.3786845207214355
1772024906817642800,9.605642822265626,-0.5589147210121155,-0.5951560735702515,-1.12378990650177
1772024906827639800,9.615639892578125,-0.5455644726753235,-0.8205868005752563,-0.7897453904151917
1772024906837636600,9.62563671875,-0.5125210285186768,-0.9615300893783569,-0.41250279545783997
1772024906847634000,9.635634033203125,-0.4678506553173065,-1.0215740203857422,-0.09132654964923859
1772024906857629700,9.645629638671876,-0.45446985960006714,-0.9995968341827393,0.20678476989269257
1772024906867626800,9.655626708984375,-0.5042473077774048,-0.9375317096710205,0.5355820655822754
1772024906877623800,9.665623779296874,-0.5953530073165894,-0.839326024055481,0.8178097605705261
1772024906887620600,9.67562060546875,-0.6517890095710754,-0.6039639115333557,1.000240445137024
1772024906897618000,9.685617919921874,-0.683729887008667,-0.22568237781524658,1.011289358139038
1772024906907614700,9.69561474609375,-0.6422551274299622,0.18431887030601501,0.8733043074607849
1772024906917611800,9.70561181640625,-0.4400964379310608,0.5571515560150146,0.6388358473777771
1772024906927608800,9.71560888671875,-0.16133683919906616,0.7619330286979675,0.41262194514274597
1772024906937605600,9.725605712890625,0.11067736893892288,0.8402965664863586,0.31834524869918823
1772024906947602000,9.735601806640625,0.28095659613609314,0.7298310995101929,0.3882130980491638
1772024906957598700,9.7455986328125,0.34028464555740356,0.44207626581192017,0.49844348430633545
1772024906967595800,9.755595703125,0.32493022084236145,0.13386322557926178,0.602735161781311
1772024906977592800,9.7655927734375,0.27655282616615295,-0.0858134776353836,0.6842470765113831
1772024906987590000,9.77558984375,0.25049835443496704,-0.17537006735801697,0.7315894961357117
1772024906997586700,9.785586669921875,0.25444167852401733,-0.17170928418636322,0.7537169456481934
1772024907007583700,9.795583740234376,0.26510193943977356,-0.12580835819244385,0.7704164981842041
1772024907017580800,9.805580810546875,0.2882504165172577,0.016143720597028732,0.7526804208755493
1772024907027577600,9.81557763671875,0.32126641273498535,0.2268197238445282,0.7282544374465942
1772024907037574000,9.825573974609375,0.28907573223114014,0.34750914573669434,0.7518361806869507
1772024907047570700,9.83557080078125,0.16692648828029633,0.29219362139701843,0.8202420473098755
1772024907057567700,9.845567626953125,0.040687594562768936,0.13089635968208313,0.8288491368293762
1772024907067564800,9.855564697265624,-0.055319834500551224,-0.06781847029924393,0.731067419052124
1772024907077561600,9.8655615234375,-0.17126454412937164,-0.16587074100971222,0.6881157159805298
1772024907087558700,9.87555859375,-0.29969578981399536,-0.015365847386419773,0.6966186165809631
1772024907097555700,9.8855556640625,-0.23274312913417816,0.6090950965881348,0.48314812779426575
1772024907107552800,9.895552734375,0.11174090206623077,1.4812369346618652,0.043096210807561874
1772024907117549600,9.905549560546875,0.428056001663208,1.8868571519851685,-0.35713404417037964
1772024907127545900,9.9155458984375,0.5458101034164429,1.5612351894378662,-0.40778306126594543
1772024907137542700,9.925542724609375,0.5828597545623779,0.7621086835861206,0.049187421798706055
1772024907147540700,9.935540771484375,0.37300553917884827,0.05482260510325432,0.7309170365333557
1772024907157537800,9.945537841796876,-0.02671469748020172,-0.22268091142177582,1.1133695840835571
1772024907167534800,9.955534912109375,-0.2822136878967285,-0.32665330171585083,1.0847229957580566
1772024907177531600,9.96553173828125,-0.3403933644294739,-0.3168044090270996,0.6902267932891846
1772024907187528700,9.97552880859375,-0.263740211725235,-0.12816929817199707,-0.1290084421634674
1772024907197525800,9.98552587890625,-0.17578080296516418,0.06932167708873749,-1.0683892965316772
1772024907207522600,9.9955224609375,-0.14209340512752533,0.13531135022640228,-1.7270234823226929
1772024907217519900,10.005519775390624,-0.16370521485805511,0.21180371940135956,-1.939189076423645
1772024907227516700,10.0155166015625,-0.21140563488006592,0.2503681182861328,-1.6955012083053589
1772024907237513700,10.025513671875,-0.2734178602695465,0.1371757835149765,-1.2693551778793335
1772024907247509800,10.035509765625,-0.357135146856308,-0.07233931869268417,-0.9102643132209778
1772024907257506600,10.045506591796874,-0.5057240724563599,-0.3193850517272949,-0.6802617311477661
1772024907267503600,10.055503662109375,-0.648611307144165,-0.47450268268585205,-0.5422614216804504
1772024907277500700,10.065500732421874,-0.7412616014480591,-0.6115873456001282,-0.39013928174972534
1772024907287497700,10.075497802734375,-0.7600057125091553,-0.7693008184432983,-0.12338544428348541
1772024907297494500,10.08549462890625,-0.7044772505760193,-0.8679069876670837,0.2473800927400589
1772024907307491800,10.095491943359375,-0.6011009216308594,-0.8324277997016907,0.5891270637512207
1772024907317488600,10.105488525390625,-0.48980289697647095,-0.7646386623382568,0.8260852694511414
1772024907327485700,10.115485595703126,-0.39918234944343567,-0.682918906211853,0.88541579246521
1772024907337481700,10.125481689453125,-0.28396040201187134,-0.5088467001914978,0.716854453086853
1772024907347478500,10.135478515625,-0.1348254680633545,-0.2696789801120758,0.4136493504047394
1772024907357475800,10.145475830078125,0.03636331111192703,-0.0296567901968956,0.13918928802013397
1772024907367472600,10.15547265625,0.19014084339141846,0.09210227429866791,-0.004303197376430035
1772024907377469700,10.1654697265625,0.2882671356201172,0.09446290135383606,0.0031222281977534294
1772024907387466800,10.175466796875,0.30488741397857666,-0.002522038295865059,0.10290666669607162
1772024907397463800,10.1854638671875,0.24032361805438995,-0.1822771579027176,0.24202701449394226
1772024907407460600,10.195460693359376,0.1965862363576889,-0.3286561369895935,0.39721786975860596
1772024907417457700,10.205457763671875,0.20933479070663452,-0.39097490906715393,0.5201345086097717
1772024907427454700,10.215454833984374,0.26578524708747864,-0.3846282958984375,0.5680776834487915
1772024907437450800,10.22545068359375,0.38337475061416626,-0.28755685687065125,0.5270569920539856
1772024907447447800,10.23544775390625,0.5163928270339966,-0.14192472398281097,0.4744420349597931
1772024907457444600,10.245444580078125,0.5744092464447021,-0.01530818734318018,0.4778237044811249
1772024907467442000,10.25544189453125,0.5777423977851868,0.09323941171169281,0.5524949431419373
1772024907477438700,10.265438720703125,0.5388421416282654,0.13897813856601715,0.6525430083274841
1772024907487435500,10.275435546875,0.4466630220413208,0.09020495414733887,0.7758086323738098
1772024907497432800,10.285432861328125,0.2977292239665985,0.008870687335729599,0.8405956625938416
1772024907507429600,10.2954296875,0.12065085023641586,-0.019823044538497925,0.8717947006225586
1772024907517426700,10.3054267578125,-0.10144400596618652,0.05618783086538315,0.8692905306816101
1772024907527423700,10.315423828125,-0.3180650770664215,0.1598639190196991,0.791602373123169
1772024907537419800,10.325419677734375,-0.3553706407546997,0.5300984382629395,0.4623245894908905
1772024907547416600,10.33541650390625,-0.04590018838644028,1.1439855098724365,-0.12547658383846283
1772024907557413600,10.34541357421875,0.3004990220069885,1.324480652809143,-0.6195989847183228
1772024907567410700,10.35541064453125,0.4113786220550537,0.8561908602714539,-0.7773239016532898
1772024907577407500,10.365407470703126,0.4804495573043823,0.1635356843471527,-0.5545486211776733
1772024907587404800,10.37540478515625,0.4824323356151581,-0.0724809393286705,-0.27481329441070557
1772024907597401600,10.385401611328126,0.27488526701927185,0.07647232711315155,-0.2766956388950348
1772024907607398700,10.395398681640625,0.05685525760054588,0.1604282706975937,-0.5293824076652527
1772024907617395700,10.405395751953124,-0.013063641265034676,0.09957849979400635,-0.7883617877960205
1772024907627391500,10.4153916015625,0.0016937399050220847,0.014398855157196522,-0.8717129826545715
1772024907637388800,10.425388916015624,0.0033108112402260303,-0.12814976274967194,-0.8083789944648743
1772024907647385600,10.435385498046875,-0.06482122838497162,-0.32428133487701416,-0.6666494607925415
1772024907657382700,10.445382568359374,-0.18176676332950592,-0.4610453248023987,-0.5344563126564026
1772024907667379700,10.455379638671875,-0.28873276710510254,-0.4677044451236725,-0.4015392065048218
1772024907677376800,10.465376708984374,-0.35915765166282654,-0.3818981945514679,-0.2931533455848694
1772024907687373600,10.47537353515625,-0.37070032954216003,-0.26908156275749207,-0.22076120972633362
1772024907697371000,10.485370849609374,-0.35524600744247437,-0.18872518837451935,-0.1400887370109558
1772024907707367700,10.49536767578125,-0.34770792722702026,-0.14886729419231415,-0.029614534229040146
1772024907717364700,10.50536474609375,-0.3685793876647949,-0.14376680552959442,0.10303938388824463
1772024907727360800,10.51536083984375,-0.3998686671257019,-0.19642364978790283,0.24808959662914276
1772024907737357600,10.525357666015625,-0.41269126534461975,-0.29383543133735657,0.3700317442417145
1772024907747354600,10.535354736328125,-0.407876580953598,-0.3704831898212433,0.4352083206176758
1772024907757351700,10.5453515625,-0.397449791431427,-0.38851091265678406,0.4882294535636902
1772024907767348700,10.5553486328125,-0.38128557801246643,-0.3672870397567749,0.5293731093406677
1772024907777345500,10.565345458984375,-0.32863569259643555,-0.267455518245697,0.5529910922050476
1772024907787342800,10.5753427734375,-0.26206737756729126,-0.16841551661491394,0.5854032635688782
1772024907797339600,10.585339599609375,-0.1860482543706894,-0.06914753466844559,0.6326325535774231
1772024907807336400,10.59533642578125,-0.1014537364244461,0.03567292541265488,0.6862397193908691
1772024907817333800,10.605333740234375,-0.06142616644501686,0.0846354067325592,0.7465052008628845
1772024907827329500,10.61532958984375,-0.038966163992881775,0.09839633852243423,0.7823477983474731
1772024907837326800,10.625326904296875,-0.031975630670785904,0.09602372348308563,0.7693457007408142
1772024907847323600,10.63532373046875,-0.05385281890630722,0.10009200870990753,0.7196721434593201
1772024907857320700,10.64532080078125,-0.07339562475681305,0.1396804302930832,0.605130672454834
1772024907867317800,10.65531787109375,-0.07173065096139908,0.21429671347141266,0.46111342310905457
1772024907877314600,10.665314453125,-0.04870389774441719,0.2994707524776459,0.30409398674964905
1772024907887311600,10.6753115234375,-0.00534332450479269,0.3275618851184845,0.14169925451278687
1772024907897308700,10.68530859375,0.03759988024830818,0.2623714208602905,0.0037499084137380123
1772024907907305700,10.6953056640625,0.05744423344731331,0.13143157958984375,-0.07846671342849731
1772024907917302500,10.705302490234375,0.03652643412351608,-0.01276154164224863,-0.07714872062206268
1772024907927298800,10.715298828125,0.004401316866278648,-0.11867460608482361,-0.031179005280137062
1772024907937295600,10.725295654296875,-0.023975197225809097,-0.16539230942726135,0.02027672901749611
1772024907947292700,10.735292724609375,-0.04231438413262367,-0.12332276999950409,0.055265918374061584
1772024907957289700,10.745289794921876,-0.038000062108039856,-0.0026054061017930508,0.04752064868807793
1772024907967286500,10.75528662109375,-0.0022043054923415184,0.13847997784614563,-0.01105783972889185
1772024907977283800,10.765283935546876,0.054285068064928055,0.2494954615831375,-0.1027776375412941
1772024907987280600,10.77528076171875,0.1166924238204956,0.3256821036338806,-0.21095159649848938
1772024907997277700,10.785277587890626,0.15792427957057953,0.33718883991241455,-0.32145464420318604
1772024908007274800,10.795274658203125,0.17138274013996124,0.2549821734428406,-0.3948771059513092
1772024908017271800,10.805271728515624,0.14128954708576202,0.09117297828197479,-0.44346675276756287
1772024908027267600,10.815267578125,0.09211856871843338,-0.08315974473953247,-0.47806888818740845
1772024908037264600,10.8252646484375,0.02068406529724598,-0.1793653666973114,-0.4774734079837799
1772024908047261700,10.83526171875,-0.03842667490243912,-0.2267743945121765,-0.49433377385139465
1772024908057258500,10.845258544921874,-0.06593393534421921,-0.28749018907546997,-0.5830553770065308
1772024908067255800,10.855255859375,-0.06402532756328583,-0.3090972602367401,-0.6463879346847534
1772024908077252600,10.865252685546874,-0.0580153726041317,-0.3117697238922119,-0.6603463888168335
1772024908087249700,10.875249755859375,-0.0403277724981308,-0.28857558965682983,-0.6250949501991272
1772024908097246700,10.885246826171874,-0.02836671471595764,-0.2404615879058838,-0.5466350317001343
1772024908107243800,10.895243896484375,-0.046410396695137024,-0.21668151021003723,-0.4570821523666382
1772024908117240600,10.905240478515625,-0.07973852753639221,-0.23056429624557495,-0.35667914152145386
