time,seconds_elapsed,z,y,x
1772024990471793200,0.079793212890625,0.7536848626494407,-0.31761399728655815,0.4350416319129988
1772024990481789700,0.089789794921875,0.7727239096403121,-0.3387143607214093,-0.49709787325561045
1772024990491786800,0.099786865234375,0.45757133403122424,0.18462649955451488,-3.9049581052839755
1772024990501783600,0.109783447265625,0.363556833294034,0.6960904595538974,-3.3243890448763964
1772024990511780900,0.11978076171875,0.7416910579949617,0.9506614329501986,-2.3508191761560737
1772024990521777700,0.129777587890625,1.5331383728057144,0.8604051157027482,-1.8380197297692298
1772024990531774700,0.139774658203125,0.01471592309474945,1.2699410253614187,0.04773898044293746
1772024990541771800,0.149771728515625,-4.849614452600479,0.966917863485217,1.9810022595539687
1772024990551768800,0.159768798828125,-3.351753729403019,-0.185329387126863,1.9531772640392182
1772024990561765600,0.169765625,1.1524269910931586,0.17645926745086907,0.5088584902087226
1772024990571762700,0.1797626953125,1.0301724842995406,0.29043168358951804,-1.2351947061508892
1772024990581759700,0.189759765625,1.8819424581259487,-0.012009586745500563,-1.4525515089184045
1772024990591756800,0.1997568359375,2.1160031429350377,-0.4824366029575467,-0.569069505543448
1772024990601753600,0.209753662109375,1.6064853485673665,-0.7855036039754748,0.0014611403274349868
1772024990611750700,0.219750732421875,1.3270903150379656,-0.4600590591937303,0.22017847259212284
1772024990621747700,0.229747802734375,0.9097627285897731,-0.12611176674365995,0.0651152316210093
1772024990631745800,0.239745849609375,0.7679284920573234,-0.1021273723050952,-0.07965743755009025
1772024990641742600,0.24974267578125,0.6780921537876129,-0.12504764464348553,0.008090144854510435
1772024990651739600,0.25973974609375,0.2421376082807779,-0.26828327240645883,0.2201367340759374
1772024990661736700,0.26973681640625,-0.3421826213538646,-0.49767012018561363,0.36629608553219584
1772024990671733500,0.2797333984375,0.9602741876870393,-0.2591281983092427,0.5104529563259333
1772024990681730800,0.289730712890625,1.236952363473177,0.24171646025925872,0.1608128951055929
1772024990691727600,0.2997275390625,0.36058746209442616,-0.12628712331056594,0.24039103860808536
1772024990701724700,0.309724609375,0.1680821919888258,-0.45389673717170953,0.3995269586784765
1772024990711721700,0.3197216796875,-0.33747429753243924,-0.2725193025410175,0.6472644693255424
1772024990721718800,0.32971875,-0.42065351600050926,0.019232231475412843,0.32088819665163754
1772024990731715600,0.339715576171875,-0.6366968980818987,0.07307371177822351,0.0806504854417406
1772024990741713000,0.349712890625,-0.7842530193924904,0.12116408120840787,0.26176367964567615
1772024990751709700,0.359709716796875,-0.9691600894540547,-0.04654313998818397,0.3797348648305982
1772024990761706500,0.36970654296875,-1.2944775007247924,-0.4241267450690269,0.6029691813293844
1772024990771703800,0.379703857421875,-1.5010393532335757,-0.6604600509852171,0.9078424280516803
1772024990781700600,0.38970068359375,-1.4563129072785377,-0.755282653234899,0.855212369365245
1772024990791697700,0.39969775390625,-1.2707383132189511,-0.8243141038849949,0.5169035207048058
1772024990801694700,0.40969482421875,-1.000361283403635,-0.9119500095009804,0.28431829700944944
1772024990811691800,0.41969189453125,-0.9088660720109939,-0.8884057600453495,0.31938268745951354
1772024990821688600,0.4296884765625,-0.9167699770033358,-0.8056184635043144,0.36869361166059966
1772024990831686000,0.439685791015625,-0.862608178704977,-0.6247741128370166,0.247795761906635
1772024990841682700,0.4496826171875,-0.6053747081011533,-0.3129416215613484,0.0653155719321221
1772024990851679700,0.4596796875,-0.2406470774620771,-0.13073708845674992,-0.13256908965688197
1772024990861676800,0.4696767578125,0.09738660751879215,-0.13691519256979226,-0.13576702718166633
1772024990871673900,0.479673828125,0.6200222421348095,-0.18442367045879363,0.26042079540304836
1772024990881670700,0.489670654296875,0.5786690720051527,-0.46234220169484613,0.6068439404034986
1772024990891667700,0.499667724609375,-0.2772428239315748,-0.45835517788529395,0.5178591409292072
1772024990901664800,0.509664794921875,0.41782559909820555,-0.2634337865486741,0.1679348376736976
1772024990911661600,0.51966162109375,0.6839210060715675,0.1595896734535694,0.10842535820445046
1772024990921659000,0.529658935546875,1.0754238309115172,0.3821650876522064,0.06331471697110683
1772024990931655700,0.53965576171875,2.0038380684792996,0.19518179583847522,-0.29767876864094284
1772024990941653800,0.54965380859375,2.1872481779813766,0.38471184952557086,-0.6232697726886719
1772024990951650600,0.559650634765625,2.2157880437672137,1.1411977410703897,-1.1092597572788596
1772024990961647900,0.56964794921875,2.130618528264761,1.3312217157542705,-0.7976905931144952
1772024990971644700,0.579644775390625,2.551667765584588,1.0107283636391162,-0.6179612910170108
1772024990981641700,0.589641845703125,3.3843197819650173,1.2021189505010843,-1.4198777581982314
1772024990991638800,0.599638671875,4.542544645681977,0.9308779973328113,-2.2070951803542673
1772024991001635800,0.6096357421875,4.785577156975865,1.6708669275850057,-1.3645758499540388
1772024991011632600,0.619632568359375,4.5431052021741865,0.9499234740644693,-0.10294515496138483
1772024991021629700,0.629629638671875,3.6788293825179337,0.27816666077822444,0.8525866970367729
1772024991031626800,0.639626708984375,3.3640777889251705,0.49161213532090187,1.1357732318036258
1772024991041623600,0.64962353515625,3.7640924215227365,0.7353317520961165,0.3757726832013577
1772024991051620600,0.65962060546875,3.843807178750634,0.5923775716230273,-0.8208965505264699
1772024991061617700,0.66961767578125,2.924651767915487,1.0789932138308882,-2.3635265359073876
1772024991071614700,0.67961474609375,1.8380442796885965,1.2292939576745032,-3.5818802896335717
1772024991081611500,0.689611572265625,-0.6124509300976991,0.11813421199321746,-3.6600039782777425
1772024991091608800,0.69960888671875,-3.5638095031529664,-1.816918489551544,-1.515088044591248
1772024991101605600,0.709605712890625,-7.044988653892278,-4.038151062460243,-0.12110438691042363
1772024991111602700,0.719602783203125,-10.298440999019146,-5.98586655396223,-0.14851360469851643
1772024991121599700,0.729599853515625,-11.831101817440986,-7.063464221781492,-0.983826401253417
1772024991131596800,0.7395966796875,-12.98087040297985,-7.260015552407503,-2.0226614268928764
1772024991141593600,0.749593505859375,-13.954676856935023,-6.257047301375866,-3.1693428600713607
1772024991151591000,0.7595908203125,-14.049112213432789,-4.712145425540209,-3.671905720734596
1772024991161587700,0.769587646484375,-13.443139539438485,-3.017471505910158,-3.7859818895086645
1772024991171584500,0.77958447265625,-13.070002976894378,-1.4687190921261906,-3.2896286971405146
1772024991181581800,0.789581787109375,-12.114169402003288,-0.8958744884908199,-1.9762277386285363
1772024991191578600,0.79957861328125,-10.31827499577999,-1.100409511347115,-0.37424751946069296
1772024991201575700,0.80957568359375,-8.721998322016,-1.3891639093741774,1.06210681482926
1772024991211572700,0.81957275390625,-7.485664967224001,-1.355986446915567,2.3884192773625252
1772024991221569800,0.82956982421875,-5.787478655558824,-1.3016183123901486,3.0055706402361393
1772024991231567600,0.839567626953125,-4.122876633587479,-1.132383150973916,2.961006691366434
1772024991241564700,0.849564697265625,-2.4980115787208077,-0.32740678476542234,2.8275407624676823
1772024991251561700,0.859561767578125,-0.8583797473549842,0.728029320128262,2.5652289656862615
1772024991261558800,0.869558837890625,0.654391544726491,1.6466493089124559,2.1471265954732894
1772024991271555600,0.8795556640625,1.9665654456615447,2.52618787189126,1.806213847924769
1772024991281553000,0.889552978515625,3.1460511240720748,3.263233734428882,1.4985552813328802
1772024991291549700,0.8995498046875,4.148191107586026,3.8058684932395814,1.1988441666141152
1772024991301546800,0.909546630859375,5.045840789055824,4.233308016118407,0.8913675324603915
1772024991311543800,0.919543701171875,5.811589014464617,4.454582284590602,0.6029925987375899
1772024991321540600,0.92954052734375,6.331579103007912,4.489345262674987,0.5011046977441758
1772024991331537700,0.93953759765625,6.855769565850496,4.324623779290914,0.5958812688950449
1772024991341534700,0.94953466796875,7.467825359150767,3.89633290027976,0.8163786347106099
1772024991351531800,0.95953173828125,8.067078954023122,3.4263431064411995,0.9837833658292889
1772024991361528600,0.969528564453125,8.402195874774456,3.166529848477244,0.9558963379289954
1772024991371526000,0.97952587890625,8.582462425553798,3.0506951455980538,0.8034578514043241
1772024991381522700,0.989522705078125,8.64842513628304,2.8136753187224266,0.6930135363265871
1772024991391519700,0.999519775390625,8.550181619673968,2.5456840149998663,0.5291759231049568
1772024991401516800,1.009516845703125,8.377034545511007,2.384213934627175,0.46409562123343345
1772024991411513900,1.019513916015625,8.177035120257734,2.479091481934488,0.23599121448025107
1772024991421510700,1.0295107421875,8.117080125510691,2.0604113118335605,0.38293979835174974
1772024991431507700,1.0395078125,7.676426024010777,1.7077648718714713,0.3015866262670606
1772024991441504800,1.0495048828125,7.6719386494636534,2.0973475423038006,0.17569157101400196
1772024991451501600,1.05950146484375,7.624849566030502,2.2821248485058545,0.05411704584117979
1772024991461498600,1.06949853515625,7.434338684612512,2.104362681762874,-0.1430013806156814
1772024991471495700,1.07949560546875,7.420241770198941,2.0301611349985,-0.22745785247795283
1772024991481492700,1.08949267578125,7.249144029781222,2.057276813200116,-0.4039846322070807
1772024991491494700,1.09949462890625,6.712187608867883,2.1640324298277496,-0.5030658782819286
1772024991501492500,1.109492431640625,6.0045297533780335,2.210912546685338,-0.532498272460699
1772024991511489500,1.119489501953125,5.445550301226973,2.108081117764115,-0.7686203467790037
1772024991521486600,1.129486572265625,4.866785952153801,1.9129463759377598,-1.282873133779317
1772024991531483600,1.139483642578125,3.9111961228907104,1.7592010445982216,-1.8505431112557649
1772024991541480400,1.14948046875,2.819448349165916,1.3730854657545686,-2.4363135396987197
1772024991551477500,1.1594775390625,1.152390750735998,0.501002187217772,-2.9467642310023305
1772024991561474600,1.169474609375,-1.3798299715787172,-0.7616638787046074,-3.3204201412454246
1772024991571471400,1.179471435546875,-3.9391315930426116,-2.297198206736147,-3.37072760220319
1772024991581468700,1.18946875,-6.141504859441518,-3.994234763844311,-3.2571573371246454
1772024991591465500,1.199465576171875,-8.294798160851002,-5.856015016168356,-2.6830975124806162
1772024991601462500,1.209462646484375,-10.520146644645928,-7.905575555902719,-1.8016437635302542
1772024991611459600,1.21945947265625,-13.120790914845466,-8.845869031834601,-1.2609366117812693
1772024991621456600,1.22945654296875,-14.257565578776598,-7.245750295689701,-2.22388834811449
1772024991631453400,1.239453369140625,-13.392600607812405,-4.5905619498759505,-4.761137712246179
1772024991641450800,1.24945068359375,-11.533023710751532,-3.6398435260415076,-5.037162392559647
1772024991651447600,1.259447509765625,-10.137373654228448,-4.701859009325504,-2.1110225780434906
1772024991661444400,1.2694443359375,-9.916301630330086,-5.593021082341671,1.1434023384425789
1772024991671441700,1.279441650390625,-8.46673469018042,-5.82676261819899,2.7868668067738414
1772024991681438500,1.2894384765625,-6.410701155039668,-5.933772794109583,3.836134452165663
1772024991691435500,1.299435546875,-5.604347947520017,-5.040024796253443,4.214528789107502
1772024991701432600,1.3094326171875,-4.968518479922413,-3.4763182667046784,4.026454779447615
1772024991711429600,1.3194296875,-3.692844463866949,-2.0422209906265136,3.126408265969157
1772024991721426400,1.329426513671875,-2.233385659778118,-0.31367022809684275,1.855966305348277
1772024991731423700,1.339423828125,-0.9813993933022022,1.599790819364786,0.8759205916773527
1772024991741420500,1.349420654296875,0.15285188963115215,3.084011432005465,0.32056027987152336
1772024991751418600,1.359418701171875,1.2614561056107283,3.8699139721706506,0.02515435153339058
1772024991761415400,1.36941552734375,2.1557950550973413,4.283910368369519,-0.028353622498735784
1772024991771412700,1.379412841796875,2.944346648466587,4.404487005078792,0.2523751438524574
1772024991781409500,1.389409423828125,3.836046481621265,4.101048540399969,0.7743195813339203
1772024991791406600,1.399406494140625,4.8474359395176165,3.6272175609633326,1.3359312086194752
1772024991801403600,1.409403564453125,5.849371340370178,3.238910901816189,1.7427853318482636
1772024991811400700,1.419400634765625,6.558639553666114,2.8821666711464524,2.106361746625602
1772024991821397500,1.4293974609375,7.034588840430975,2.5973759160533545,2.4957705217957495
1772024991831394600,1.43939453125,7.417863935151696,2.293651912431419,2.7716008485808965
1772024991841391600,1.4493916015625,7.664032406383752,2.057989053122699,2.8525910325720907
1772024991851388400,1.459388427734375,7.766229044532776,1.9973603968977927,2.7342209659963843
1772024991861385500,1.469385498046875,7.788415741899609,1.9961387461483477,2.6142931485846637
1772024991871382500,1.479382568359375,7.786862082716822,2.0646131474375724,2.4329066538646815
1772024991881379600,1.489379638671875,7.730664394676685,2.1935966702252627,2.1806597395017744
1772024991891376400,1.49937646484375,7.673335072258114,2.3109286259248853,1.9463244755350053
1772024991901373700,1.509373779296875,7.5302166411340234,2.413077041018009,1.8217554081887006
1772024991911370500,1.51937060546875,7.302982002952694,2.470371876645088,1.6520494143903255
1772024991921367600,1.529367431640625,6.890426453211903,2.487422087906301,1.5264759923070668
1772024991931364600,1.539364501953125,6.414830802190304,2.345099775595963,1.4224315343342722
1772024991941361400,1.549361328125,5.85609977184236,2.0473300042033196,1.0123957123294471
1772024991951358500,1.5593583984375,4.848564066764712,1.5470719133511184,0.46954292685389515
1772024991961355500,1.56935546875,3.23274565718472,1.1039449919968842,0.2937051523022354
1772024991971353600,1.579353515625,1.1974205635517834,0.8015525292396545,-0.259524431085214
1772024991981350400,1.589350341796875,-1.2564607815414666,0.1903743955567479,-1.602570367080718
1772024991991347500,1.599347412109375,-3.8359716628193854,-0.7468935950741171,-3.347926280069351
1772024992001344500,1.609344482421875,-5.555298377668858,-3.0661364603579044,-3.972153572678566
1772024992011341600,1.619341552734375,-7.336936879524588,-3.9265170261412856,-4.217813509866595
1772024992021338400,1.62933837890625,-9.721075410827995,-4.404011204260588,-4.188156038227677
1772024992031335700,1.639335693359375,-11.632607536053657,-6.489111843931674,-3.843441560308635
1772024992041332500,1.64933251953125,-13.44387720606327,-6.937258347013592,-3.282188025745749
1772024992051329500,1.65932958984375,-13.586313500142097,-5.5387949866354464,-3.8642391414046284
1772024992061326600,1.66932666015625,-12.261597513020037,-4.504345555669069,-4.928434891337156
1772024992071323600,1.67932373046875,-11.043243467032909,-4.726061722689867,-3.9784392288193104
1772024992081320400,1.689320556640625,-9.899964243513345,-5.803019339039921,-1.4809920059829949
1772024992091317800,1.69931787109375,-8.829799940565229,-6.585937894958257,0.8368927226901054
1772024992101314600,1.709314453125,-7.417238496729731,-6.432027436184883,1.895389822589606
1772024992111311400,1.719311279296875,-5.859012444418668,-6.110153443366289,2.490748894241452
1772024992121308700,1.72930859375,-5.144576473096013,-5.464650723016262,2.878743126438558
1772024992131305500,1.739305419921875,-4.4249949555784465,-3.9897389137297865,2.5854230279311534
1772024992141302500,1.749302490234375,-2.9689918449014425,-2.454654375292361,1.7627315568119286
1772024992151299600,1.759299560546875,-1.5364695630550385,-0.6218710848718881,0.8677581818792969
1772024992161296600,1.769296630859375,-0.09793605809509753,1.116549329765141,0.2437011678030714
1772024992171293400,1.77929345703125,1.2300257790803908,2.218766475056112,-0.3191111770417541
1772024992181290800,1.789290771484375,2.045299375158548,2.9072730553522703,-0.8072723681911825
1772024992191288600,1.79928857421875,2.5089678570210934,3.1993829012870787,-0.7390685274716466
1772024992201285600,1.80928564453125,3.100689302822947,3.2232351937785744,-0.5096895707380026
1772024992211282400,1.819282470703125,3.932475057762861,3.3258284300297496,-0.30272417892962694
1772024992221279700,1.82927978515625,4.970778241547942,3.4236429075717925,-0.20454832072928547
1772024992231276500,1.839276611328125,6.014801556545495,3.425901792414486,-0.050166152790933845
1772024992241273600,1.849273681640625,6.7398857631325715,3.3897269017055627,0.29569881033748385
1772024992251270700,1.859270751953125,7.260375617891549,3.2462951668485998,0.7017981696762144
1772024992261267500,1.869267333984375,7.8240861902177326,3.0351027319297192,0.9975675610318779
1772024992271264500,1.879264404296875,8.290112048861383,2.876546200916171,1.1046350200876593
1772024992281261600,1.889261474609375,8.482567050084471,2.7068837539985773,1.1564818925071507
1772024992291258600,1.899258544921875,8.521990128934382,2.586727388527989,1.1220322912208736
1772024992301255400,1.90925537109375,8.482424426743387,2.534356857560575,1.1235026560343802
1772024992311252500,1.91925244140625,8.40394301070273,2.482558281262219,1.1161005630843341
1772024992321249500,1.92924951171875,8.201969655027986,2.512321843624115,0.9901337577693163
1772024992331246600,1.93924658203125,7.911700176262855,2.632010299322009,0.8242559439569711
1772024992341243400,1.949243408203125,7.571324896591902,2.8064468287736175,0.6427534216418862
1772024992351240700,1.95924072265625,7.23316437036097,2.917325955072045,0.4581314521320164
1772024992361237500,1.969237548828125,6.757409144863486,2.895138088661432,0.10609459543563425
1772024992371234600,1.979234619140625,6.126420103034377,2.738720615503192,-0.2825321625113487
1772024992381231600,1.989231689453125,5.355452681672573,2.483568627348542,-0.8998248335517942
1772024992391228400,1.999228515625,4.155686431777477,2.0579846692085266,-1.61746383869946
1772024992401226500,2.0092265625,2.620157948964834,1.2178110251516103,-2.182575217734277
1772024992411223600,2.0192236328125,0.7034183182239532,-0.15663023912608623,-2.4922283191442487
1772024992421220600,2.029220703125,-1.8675123662352562,-1.9262083008319137,-2.5367168646901845
1772024992431217400,2.039217529296875,-4.388181766965985,-4.357719408684969,-2.3669151554323733
1772024992441214500,2.04921435546875,-6.776515996393561,-6.686650432029366,-1.9841972562029957
1772024992451211500,2.05921142578125,-9.896478154963255,-8.683046952331066,-1.0639740700058637
1772024992461208600,2.06920849609375,-13.125918340861796,-10.43955744267106,0.09087437608055769
1772024992471205400,2.079205322265625,-14.156378994452952,-9.36542598965764,-1.386886758222431
1772024992481202700,2.08920263671875,-13.233822250741719,-6.959515771529078,-3.706386082485318
1772024992491195600,2.099195556640625,-12.14717618407011,-6.964741397222876,-2.986702858158946
1772024992501192400,2.1091923828125,-11.9225362385571,-7.432488088309764,-1.6131496287621556
1772024992511189800,2.119189697265625,-10.880825876677036,-7.505819281980395,-0.6196943253546953
1772024992521186600,2.1291865234375,-9.042782766032218,-6.9200663891941305,0.006904902283940464
1772024992531183600,2.13918359375,-7.126323705798387,-6.384427480620145,0.9773715990908444
1772024992541180700,2.1491806640625,-5.745058148458599,-5.4928077269643545,1.9206410220935939
1772024992551177700,2.159177734375,-4.230255642810464,-3.9047096834808586,1.9266423083350062
1772024992561174500,2.169174560546875,-2.466772975370288,-2.0867647734910246,1.2771610397428272
1772024992571171800,2.179171875,-0.8997194734811782,-0.318323022338748,0.4539184375468641
1772024992581168600,2.189168701171875,0.20561025087237356,1.1912579492688178,-0.12297646439261734
1772024992591165700,2.199165771484375,0.9911708457320928,2.3585732974141833,-0.32534853706136346
1772024992601163500,2.20916357421875,1.5885650764733552,3.2627170170783995,-0.44221119474880394
1772024992611160800,2.219160888671875,2.230424471884966,3.984900241526961,-0.5996979045737535
1772024992621157600,2.22915771484375,3.0617922936737534,4.4346717154622075,-0.4733431959196925
1772024992631154700,2.23915478515625,4.075359095609188,4.594541959422826,-0.14193243620991705
1772024992641151700,2.24915185546875,5.099218158978223,4.6609950840175145,0.09725596687644719
1772024992651148500,2.2591484375,6.004612755486368,4.641174531260132,0.3571674245178699
1772024992661145600,2.2691455078125,6.7413476523786775,4.468863907921314,0.8682481573533266
1772024992671142700,2.279142578125,7.327994863656163,4.166521714046597,1.4543028826303779
1772024992681139700,2.2891396484375,7.857984368166327,3.8871173281669615,1.9327111068546772
1772024992691136500,2.299136474609375,8.123078489142657,3.536254556751251,2.2248355658367274
1772024992701133800,2.3091337890625,8.300632273831964,3.1941222042798993,2.48181009324342
1772024992711130600,2.319130615234375,8.43700766043663,2.9827994209796187,2.6302006195515393
1772024992721127700,2.329127685546875,8.402072540655732,2.966897502970695,2.641842542028427
1772024992731124700,2.339124755859375,8.259224158644676,2.959520252200961,2.555042794975638
1772024992741121800,2.349121826171875,8.09052880319357,2.926507040393352,2.3591211405552923
1772024992751118600,2.35911865234375,7.82321466808021,3.0877456500977276,2.181693466463685
1772024992761115600,2.36911572265625,7.614500605973601,3.2708804497897623,1.9278478847324847
1772024992771112700,2.37911279296875,7.344279643502831,3.322670258259773,1.5113070647478102
1772024992781109500,2.389109619140625,7.017884958389401,3.352299088326096,1.154670459171012
1772024992791106800,2.39910693359375,6.638647740882635,3.3817104762494563,0.7993219206433743
1772024992801104600,2.409104736328125,6.1341352074563495,3.2911043226510284,0.4345617759741843
1772024992811101700,2.419101806640625,5.525470810160041,3.1034634437113997,0.05423479046933353
1772024992821098500,2.429098388671875,4.826781274023652,2.8557974273979663,-0.41311216071024537
1772024992831095800,2.439095703125,4.137041352540255,2.3146651821047066,-0.877375247465074
1772024992841092600,2.449092529296875,3.207403710657358,1.586387147912383,-1.1107594212520866
1772024992851089700,2.459089599609375,1.9348685771495102,0.8170148867875338,-0.9625666825383901
1772024992861086700,2.469086669921875,0.7763017681270837,-0.8470043668597936,-0.6701091191444546
1772024992871083800,2.479083740234375,-0.6331050110697746,-3.395332758888602,0.013530293506756424
1772024992881080600,2.48908056640625,-3.8936856006413696,-5.856442886191606,1.166938039265573
1772024992891077600,2.49907763671875,-7.743162057200074,-8.242230353745818,2.3402479516506194
1772024992901074700,2.50907470703125,-11.727468424487114,-10.39947911478281,2.8930139361143112
1772024992911071700,2.51907177734375,-14.806089103364943,-10.03317327504158,-0.03361088543981314
1772024992921068500,2.529068603515625,-15.907207932025193,-8.270262270009518,-3.6126708569556474
1772024992931065600,2.539065673828125,-15.531850186300277,-7.697334372004867,-4.891419165889919
1772024992941062700,2.549062744140625,-15.548947451573609,-7.420209621495008,-5.6954848469942805
1772024992951059500,2.5590595703125,-15.298312648582458,-7.864238752385973,-5.79408959813118
1772024992961056800,2.569056884765625,-14.027164585518836,-7.610083958575129,-5.279986229538917
1772024992971053600,2.579053466796875,-12.330341963422297,-7.185195581483841,-3.9805841318935156
1772024992981050600,2.589050537109375,-10.606236197602747,-6.056432374572753,-2.545073189625144
1772024992991047700,2.599047607421875,-8.369860123836993,-4.247266983366012,-1.5441205161996185
1772024993001045800,2.609045654296875,-6.191827517968416,-2.31074187118113,-1.2924560778997838
1772024993011042600,2.61904248046875,-4.345067432382702,-1.11685883410573,-1.530070655798167
1772024993021039600,2.62903955078125,-3.2834424097210166,-0.6045961249440908,-1.5860279592111706
1772024993031036700,2.63903662109375,-2.436501755747199,0.0420107572555542,-1.3033810842789708
1772024993041033700,2.64903369140625,-1.0275479810148478,0.8717027547866105,-1.4687773981846868
1772024993051030500,2.659030517578125,0.30936113272607324,1.549077700215578,-1.7362155980691312
1772024993061027800,2.66902783203125,1.5467027877777815,2.0986124476730823,-1.5605910278767345
1772024993071024600,2.679024658203125,2.9053005862355232,2.491577161759138,-1.0917843063428998
1772024993081021400,2.689021484375,4.093757506608963,2.761641472363472,-0.49303866099268195
1772024993091018800,2.699018798828125,5.055757202914357,3.064081865915656,0.10114537553042173
1772024993101015600,2.709015625,5.959056288447976,3.320074396547675,0.6759051651373505
1772024993111012600,2.7190126953125,6.8017270100176335,3.597970715951919,1.1801251453578472
1772024993121009700,2.729009765625,7.58675101378262,3.8508874924004077,1.6398299842864275
1772024993131006700,2.7390068359375,8.052595086118579,3.8580332725018263,2.096961757856607
1772024993141003500,2.74900341796875,8.34520966670513,3.8769694436401125,2.367262653695792
1772024993151000800,2.759000732421875,8.519528122735023,4.0183915922403335,2.493147187554836
1772024993160997600,2.76899755859375,8.640050691169499,4.1956829266011715,2.636491828650236
1772024993170994700,2.77899462890625,8.749037720111012,4.3145203184276815,2.7317478538811204
1772024993180991700,2.78899169921875,8.726900707104802,4.332663293361664,2.4959610759317874
1772024993190989800,2.79898974609375,8.723632645219563,4.912172323322296,2.1221014598101378
1772024993200986600,2.808986572265625,8.759228859257698,5.323134466391801,2.12670340064764
1772024993210983700,2.818983642578125,8.59637229296267,5.424246816435456,2.0777467697769403
1772024993220980700,2.828980712890625,8.314341065710783,5.243004698622227,1.86425044182986
1772024993230977800,2.838977783203125,8.10168031180501,4.9325364814370865,1.4612646844670176
1772024993240974600,2.848974609375,7.829577773371338,4.743296935129165,1.0154456014193594
1772024993250971600,2.8589716796875,7.239587096884846,4.802210311868786,0.508420208389312
1772024993260968700,2.86896875,6.54865065909326,4.42914739908278,0.01936769442334771
1772024993270965500,2.878965576171875,6.060853698146343,3.857983588141203,-0.4219408523973077
1772024993280962800,2.888962890625,4.428728296887875,2.526633277571201,-0.3317174145061523
1772024993290959600,2.898959716796875,1.710976819655299,-0.09716916537582873,-0.16660192683581262
1772024993300956700,2.908956787109375,-2.103583221822977,-3.3975627098977563,-0.26711141561549157
1772024993310953700,2.91895361328125,-5.597623607701063,-6.142085289677977,-0.7719324670016765
1772024993320950800,2.92895068359375,-7.2705346083343025,-8.181486838969589,-0.9641512483160942
1772024993330947600,2.938947509765625,-9.58314636504054,-9.68786638418734,-0.4495718231773004
1772024993340944600,2.948944580078125,-14.507327106064556,-11.988064649522304,0.633500220932439
1772024993350941700,2.958941650390625,-18.277849852895734,-12.809556389462948,0.7533284504272043
1772024993360938500,2.9689384765625,-18.693215783882142,-9.6242160420537,-1.7393223319128155
1772024993370935600,2.978935546875,-17.060302447116374,-7.005218953561783,-2.2079605650119483
1772024993380934000,2.988933837890625,-15.845619198596477,-6.435378500178456,-1.120944276788458
1772024993390930700,2.9989306640625,-14.783056602823734,-6.561917552423477,0.14381459669470786
1772024993400927700,3.008927734375,-13.293255267441271,-5.978475274667144,0.9046823565855622
1772024993410924800,3.0189248046875,-11.121316886794567,-5.1773091143965715,1.5648323187083004
1772024993420921600,3.028921630859375,-9.147516813704371,-4.8659693750739095,2.585115861678123
1772024993430918700,3.038918701171875,-7.262068393284082,-4.441272136640548,3.0193688639640808
1772024993440915700,3.048915771484375,-5.043178291848301,-3.769723705407977,2.7723417300760747
1772024993450912800,3.058912841796875,-2.7733284030258654,-2.3990312722697853,1.912405839320272
1772024993460909600,3.06890966796875,-0.5124322205096483,-0.6815335264131427,1.0733503856383264
1772024993470906600,3.07890673828125,1.388450500407815,1.0387164407610892,0.11775273839496075
1772024993480903700,3.088903564453125,2.823790762284398,2.5172104924485086,-0.5819496280457824
1772024993490901800,3.09890185546875,3.9682431212365623,3.6326910239383574,-0.9502722144369036
1772024993500898600,3.108898681640625,5.007494399526715,4.4173397646501655,-1.3971249513812363
1772024993510895600,3.1188955078125,5.889326334139704,5.079435015621781,-1.9123948795348404
1772024993520892700,3.128892578125,6.461843897777795,5.283293454390764,-1.9743556611463426
1772024993530889700,3.1388896484375,6.921923415237665,4.931343472260236,-1.1852868389699607
1772024993540886500,3.148886474609375,7.78460991987586,4.920041157001257,-0.42385625756457446
1772024993550883800,3.1588837890625,8.919638616922498,5.520359166234732,-0.3987101258702576
1772024993560880600,3.168880615234375,8.818916142979264,5.6687721966356035,-0.34995829685665664
1772024993570877400,3.17887744140625,8.532842362338304,5.0701668365389105,-0.04616371221654117
1772024993580874800,3.188874755859375,8.753055139058828,4.590096962712705,0.2283683914516121
1772024993590872800,3.198872802734375,8.808109502282738,4.401447491252422,0.48009720022454855
1772024993600869600,3.20886962890625,8.55306506615579,4.261135349720716,0.6363159359402955
1772024993610866400,3.218866455078125,8.331973168513178,4.1045565485209226,0.5517164023455232
1772024993620863700,3.22886376953125,8.129211292809247,3.821074537938833,0.2556717742450535
1772024993630860500,3.238860595703125,8.008716196903586,3.794514447793364,0.13566840737909078
1772024993640857600,3.248857666015625,8.31106306695342,4.300273766410351,-0.07124583876393735
1772024993650854700,3.258854736328125,8.017614958152175,4.4841275280267,-0.2022444642337039
1772024993660851700,3.268851806640625,7.758346766850352,4.306363315457105,-0.3292138707200065
1772024993670848500,3.2788486328125,7.84785168120861,4.215333383488655,-0.5011262885214761
1772024993680845800,3.288845703125,7.6296724561423055,4.048478687468171,-0.6304418562751263
1772024993690842600,3.298842529296875,7.075893495243787,3.86011417042911,-0.7536275795042514
1772024993700839700,3.308839599609375,6.491189234727621,3.813365278735757,-0.8959868628241121
1772024993710836700,3.318836669921875,5.8279299084126945,3.6820723099619146,-1.0253066318288444
1772024993720833800,3.328833740234375,4.908095867663621,3.133501439100504,-1.149890166091919
1772024993730830600,3.33883056640625,3.512990001019835,2.2145617168426512,-1.3167520225055516
1772024993740827600,3.34882763671875,1.3532301339447497,1.119193999055028,-1.1238776268266142
1772024993750824700,3.35882470703125,-1.188971299636364,-0.24094810623526572,-0.7455247909389435
1772024993760821500,3.368821533203125,-3.3486189385086296,-2.4177198983877894,-0.9436828261092305
1772024993770819600,3.378819580078125,-5.283945780819654,-5.35314498925209,-0.7920062638677656
1772024993780816600,3.388816650390625,-7.90693632286191,-8.37288677818179,0.5464528192615136
1772024993790813700,3.398813720703125,-12.158494865942,-10.595242509901523,1.7086736572794614
1772024993800810500,3.408810546875,-15.898918242585658,-11.552288383191824,2.3055951559424397
1772024993810807800,3.418807861328125,-17.488511493062973,-11.491204676675796,2.5276170279115435
1772024993820804600,3.4288046875,-17.786906410616634,-8.427443128755689,0.3452459544472396
1772024993830801700,3.4388017578125,-16.07715065718889,-5.751624667367339,-0.8831002009831368
1772024993840798700,3.448798828125,-14.537639242219925,-5.935551494219899,-0.09270502557381988
1772024993850795800,3.458795654296875,-13.39012691117525,-6.307768603831529,0.8005246474966407
1772024993860792600,3.46879248046875,-12.692039432585238,-5.885942536920309,1.4975199469357727
1772024993870790000,3.478789794921875,-11.764330712938309,-5.583764593696594,2.1398896299570795
1772024993880786700,3.48878662109375,-10.801946985751389,-5.071192672455311,2.691529825261235
1772024993890783500,3.498783447265625,-9.51341348812282,-3.8102079837486147,3.077535806250572
1772024993900780800,3.50878076171875,-7.179775894522667,-2.650324246908724,2.5909830001458523
1772024993910777600,3.518777587890625,-4.224340281286835,-1.5772884801775215,1.0951887079589069
1772024993920774700,3.528774658203125,-1.2848743905991316,-0.39827480319291353,-0.45624224085193127
1772024993930771700,3.538771728515625,0.6853565918326378,0.7368669988393783,-1.3095108192056417
1772024993940768800,3.548768798828125,1.5635440324634313,1.6727347672834991,-1.7099733417011795
1772024993950765600,3.558765625,2.404460603842139,2.3561913707137108,-1.912859866698086
1772024993960763600,3.568763671875,3.064259560570121,3.0819232275545594,-1.880232877729088
1772024993970760700,3.5787607421875,3.3567204118996856,3.6555993135780094,-1.3041628823064266
1772024993980757800,3.5887578125,4.032238915807008,4.05443028934896,-0.5021204506579786
1772024993990754600,3.598754638671875,5.239729037952423,4.0212364602774375,-0.01964819186516106
1772024994000751600,3.608751708984375,6.504976937061548,3.770467801773548,-0.144805836221762
1772024994010748700,3.618748779296875,7.411516611951589,3.6642671886801716,-0.01730374763086438
1772024994020745700,3.628745849609375,8.01681942386031,3.6047231128215786,0.22130455401260404
1772024994030742500,3.638742431640625,8.350067043608426,3.4319717599779365,0.23019973506461827
1772024994040739800,3.64873974609375,8.607639536908268,3.269008226177096,0.23686324807442724
1772024994050736600,3.658736572265625,8.848187245649099,3.1752614364653824,0.280884322239086
1772024994060733400,3.6687333984375,8.920144228357076,3.0043934131503103,0.149007671825774
1772024994070730800,3.678730712890625,8.82194221280217,3.015992665529251,0.054544514005631206
1772024994080727600,3.6887275390625,8.607740074673295,3.261240514785051,0.03853372879475355
1772024994090724600,3.698724609375,8.372006488215924,3.5090415556550023,-0.08000219586715102
1772024994100721700,3.7087216796875,8.060453982925415,3.747997611290216,-0.409740930711478
1772024994110718700,3.71871875,7.740444030413031,4.0193326724827285,-0.7830427668198943
1772024994120715500,3.728715576171875,8.144805752304196,4.130080865877867,-0.5469255148071795
1772024994130712800,3.738712890625,7.801246581900119,4.01533980345428,-0.9423478511784226
1772024994140709600,3.748709716796875,7.568630250680446,4.151147034782171,-1.1776012529034168
1772024994150707700,3.758707763671875,7.237394555276632,4.215245120683313,-1.4284317976623773
1772024994160704500,3.76870458984375,6.862186447155476,4.135798074480891,-1.7272252130143344
1772024994170701800,3.778701904296875,6.331138958024979,4.0545951245218514,-2.0582325064897535
1772024994180698600,3.78869873046875,5.388367109280824,3.7895968651354313,-2.0355556875184178
1772024994190695700,3.79869580078125,4.285053985446691,2.8628713113069533,-2.0994050593554974
1772024994200692700,3.808692626953125,2.686867094147205,1.5913322030991315,-2.2826740068212152
1772024994210689800,3.818689697265625,0.052824996736645695,0.5779957027882338,-1.721043309509009
1772024994220686600,3.8286865234375,-2.5201684654712677,-0.7132663430213928,-1.4083151845678685
1772024994230683600,3.83868359375,-3.7145500997185703,-3.6363393173128364,-1.4959107581734656
1772024994240680700,3.8486806640625,-5.053796131974458,-7.225520577609538,-0.4031747771289199
1772024994250677500,3.858677490234375,-8.48014712946117,-9.389232981702685,1.7499555157385764
1772024994260674800,3.8686748046875,-13.08857674446106,-10.096136803954838,3.1980177504137157
1772024994270671600,3.878671630859375,-15.27091143143773,-11.01045646519661,4.288396866133809
1772024994280668700,3.888668701171875,-14.753419004929064,-8.899702913352847,2.5686197771683332
1772024994290665700,3.898665771484375,-13.267903384041785,-5.856702413910627,0.3148404409199953
1772024994300662800,3.908662841796875,-11.938769580477475,-5.782784944784641,0.3207517838556319
1772024994310659600,3.91865966796875,-11.902460249733924,-6.091175186651944,0.718234852148965
1772024994320657000,3.928656982421875,-11.663405994421243,-5.8075067135870455,1.223660335701704
1772024994330653700,3.93865380859375,-10.674973633742331,-5.67883181835711,1.8972467025026678
1772024994340651800,3.94865185546875,-9.610528877484798,-5.344747747784853,1.6352100694008171
1772024994350648600,3.958648681640625,-8.506521926167606,-4.512887758564949,1.3498283626772463
1772024994360646000,3.96864599609375,-6.942717781463265,-3.7394215061247347,1.3249436583980918
1772024994370642700,3.978642578125,-4.955778825336695,-2.674942847597599,0.7817382600925862
1772024994380639500,3.988639404296875,-2.925474774736166,-1.4919278260171414,-0.13298632868826388
1772024994390636800,3.99863671875,-1.3951485367417336,-0.3178413763016462,-0.8018109609801322
1772024994400633600,4.008633544921875,-0.30435937891602516,0.913310191938281,-0.9582594868637621
1772024994410630700,4.018630615234375,0.876500510457158,1.8941753322333097,-0.8148850351519882
1772024994420627700,4.028627685546875,2.0587024620890615,2.5604151356637477,-0.5958038928098977
1772024994430624800,4.038624755859375,3.1661656913399696,2.959350156331062,-0.35210941047593947
1772024994440621600,4.04862158203125,4.229874534538388,3.0217718334525823,-0.117555973713845
1772024994450618600,4.05861865234375,5.199948816227913,2.8176147039979695,0.16451003259047864
1772024994460615700,4.06861572265625,6.127874393495917,2.497459790056944,0.5429756812028587
1772024994470612700,4.07861279296875,6.957084744989872,2.2932792797267436,0.8139597370006143
1772024994480609500,4.088609619140625,7.5397876025557515,2.2130694324582816,0.9277785700127482
1772024994490606000,4.098606201171875,7.886558136221766,2.1770190449118614,0.9401503411341458
1772024994500603000,4.108602783203125,8.002936444458365,2.244681545296311,1.0516935573644934
1772024994510600200,4.11860009765625,7.862386402517557,2.3491139796733855,1.216710151237622
1772024994520597000,4.128596923828125,7.641597871735692,2.3299399081259966,1.2798977712303399
1772024994530595000,4.138594970703125,7.591857397010922,2.3236223955422637,1.2641751553110778
1772024994540591900,4.148591796875,7.613416317868232,2.499453009700775,1.2527150191418825
1772024994550589200,4.158589111328125,7.599007268765568,2.7669799107819792,1.2744729697026311
1772024994560586000,4.1685859375,7.561732307860255,3.0586113255500793,1.1853604887280613
1772024994570583000,4.1785830078125,7.573478275233507,3.395015363502502,1.0957214996613562
1772024994580580000,4.188580078125,7.598813792020082,3.694413320618868,0.9981447763979434
1772024994590577200,4.1985771484375,7.626625343531369,3.914533742880821,0.8949649724304676
1772024994600574000,4.208573974609375,7.660434089630842,4.049163162600994,0.8087156988672911
1772024994610571300,4.2185712890625,7.622212787786125,4.106940228787065,0.6926765594571829
1772024994620568000,4.228568115234375,7.601217930552363,4.1330940762192006,0.5816985028289258
1772024994630564900,4.23856494140625,7.504525735038518,4.140028259396553,0.518606306034699
1772024994640562200,4.248562255859375,7.147927634841203,4.037703026431799,0.37745168579686433
1772024994650559000,4.25855908203125,6.570163402721286,3.6456337998807427,0.09233536114436573
1772024994660556000,4.26855615234375,5.607078833788633,3.0574837828248738,-0.4841257616208866
1772024994670553000,4.278552978515625,3.8839164862990376,2.556615743380785,-0.9920734936602413
1772024994680550100,4.288550048828125,1.6109586945891379,1.7100217108875513,-1.1874146447788922
1772024994690547000,4.298546875,-0.9123860628306865,-0.35091011768877506,-0.8020799141146242
1772024994700544000,4.3085439453125,-3.8903678543955085,-3.5823230649650095,-0.0693930505041033
1772024994710542000,4.3185419921875,-6.985039504364132,-6.711013888913393,-0.5234877944659442
1772024994720539100,4.3285390625,-10.427774650418758,-7.87131322081685,-1.3502435193493962
1772024994730536000,4.338535888671875,-13.63028474381566,-8.262968605870007,-0.6933809813994913
1772024994740533000,4.348532958984375,-15.160843621522186,-7.982587483912706,-0.18489148889994247
1772024994750530000,4.358530029296875,-14.866384874373674,-4.990366154593229,-2.1943337523281574
1772024994760527000,4.368527099609375,-13.067746722400187,-3.6246114701181646,-3.1927792652383444
1772024994770524000,4.37852392578125,-11.753922716170548,-4.764029926556349,-1.4618237796545028
1772024994780521200,4.388521240234375,-12.05851356575489,-5.589138687950372,0.777612266203761
1772024994790518000,4.39851806640625,-11.06192712471485,-5.68713027562499,1.9916580936029553
1772024994800514800,4.408514892578125,-9.51358241494894,-5.71443387761414,2.442852439948171
1772024994810512100,4.41851220703125,-8.478099549281596,-4.960615159451962,2.6602754398196935
1772024994820509000,4.428509033203125,-6.707403881722688,-3.747845051077008,2.6488834004506465
1772024994830506000,4.438506103515625,-4.583926457384228,-2.926136453515291,1.948909815853089
1772024994840503000,4.4485029296875,-2.678431858757138,-2.2275720050632954,0.789684689052403
1772024994850500000,4.4585,-1.235907822856307,-1.3341326347649096,-0.31355441969744857
1772024994860497000,4.468496826171875,-0.19141572130322454,-0.47308980568051334,-0.8504952777154743
1772024994870494200,4.478494140625,0.5335404749900102,0.3724357207983732,-1.1360296177174896
1772024994880491000,4.488490966796875,1.100029279857874,1.0926596278727054,-1.2685428490012884
1772024994890489000,4.498489013671875,1.8973609765321016,1.506930164837837,-1.0939530286841095
1772024994900486000,4.50848583984375,2.808223190796375,1.9334435127824543,-0.7343389416664838
1772024994910483200,4.518483154296875,3.589662321811914,2.1851175956934688,-0.34261005298569797
1772024994920480000,4.52847998046875,4.345398856294155,2.160122562907636,0.06093874508738517
1772024994930477000,4.53847705078125,5.078751709532737,2.0223314642861485,0.3471866401862353
1772024994940474000,4.54847412109375,5.683745893883705,1.8832769216001033,0.420844727723673
1772024994950471000,4.558470947265625,6.1076645491600035,1.791597293551266,0.42588286802135406
1772024994960468000,4.568468017578125,6.335411228516698,1.6078127977788448,0.5324770835421979
1772024994970465000,4.578465087890625,6.398949926969409,1.5380378352850674,0.5519701213782653
1772024994980462000,4.588462158203125,6.569293634149432,1.5091063398331404,0.46837435799855737
1772024994990459000,4.598458984375,6.82172584195137,1.5015969871163368,0.4696821161288768
1772024995000456200,4.608456298828125,6.951632909324765,1.4996908612340687,0.5406649200424551
1772024995010453000,4.618452880859375,7.051552834713458,1.6409353151798247,0.5865989151563495
1772024995020450000,4.628449951171875,7.18174573329091,1.927498632903397,0.602561111985147
1772024995030447000,4.638447021484375,7.340203187844157,2.2116914221033452,0.5881324813991785
1772024995040444200,4.648444091796875,7.443848271235823,2.4698051826730367,0.5600531823297962
1772024995050441000,4.65844091796875,7.479086757877469,2.7056214789777995,0.5076009644282982
1772024995060438300,4.668438232421875,7.3889873847573995,2.952589576154947,0.41192591006774454
1772024995070435000,4.67843505859375,7.260595398122072,3.1960297914668914,0.22726457666186614
1772024995080431900,4.688431884765625,7.084356787684559,3.4387639043360947,0.10098410228779539
1772024995090430000,4.698429931640625,6.619645518770813,3.602562719917297,0.06239535537017509
1772024995100427300,4.70842724609375,5.899259114611149,3.538818269759416,-0.02659903391636908
1772024995110424000,4.718424072265625,4.998222128790617,3.216012549048662,-0.30023042588513343
1772024995120420900,4.7284208984375,3.822407832369208,2.842593662431836,-0.6282664849974214
1772024995130418200,4.738418212890625,2.059222102048993,1.9400030174285172,-1.0563025855299084
1772024995140415000,4.7484150390625,0.1936222914367914,0.27873919996917246,-0.7976337483607232
1772024995150412000,4.758412109375,-2.769056717056036,-2.453051908531785,-0.41362982790879904
1772024995160409000,4.7684091796875,-6.633100628149509,-4.958615510067343,0.26559564075767994
1772024995170406100,4.77840625,-10.042250899988412,-5.941604218387603,0.5890497423745692
1772024995180403000,4.78840283203125,-13.013106785196065,-6.549035274496674,0.5120150910761208
1772024995190400000,4.79839990234375,-15.72910761936903,-7.199122400027513,0.1444905962601304
1772024995200397000,4.80839697265625,-16.42732486181855,-4.82243886090517,-1.4783429527789353
1772024995210394000,4.81839404296875,-14.987122546863555,-1.3825070818334817,-4.353322927291691
1772024995220391000,4.828390869140625,-13.451053965824842,-1.426460789850354,-4.480672419136762
1772024995230388000,4.838387939453125,-13.538894746363162,-3.1458272521883246,-1.3859952162101865
1772024995240385000,4.848385009765625,-12.891601050943136,-4.285970223508775,1.7427008684352039
1772024995250381800,4.8583818359375,-11.259812334293127,-4.757454055297375,3.038290422055125
1772024995260380000,4.8683798828125,-10.370949770390986,-4.640980469992757,3.3831101139143107
1772024995270377000,4.878376953125,-9.13584391156733,-3.6580125121995803,3.217322170342505
1772024995280374000,4.8883740234375,-7.277093528458476,-2.7539897885665297,2.954656153295934
1772024995290370800,4.898370849609375,-5.382785509756207,-1.9896359401255845,2.429946050493419
1772024995300368100,4.9083681640625,-3.63211790022552,-1.2580208704650402,1.6540414649903774
1772024995310365000,4.918364990234375,-2.1033581808954476,-0.49522068120688195,1.2089183283176272
1772024995320362000,4.928362060546875,-0.6808768160700798,-0.5205167427659034,1.164184210512787
1772024995330359000,4.938359130859375,0.3453109825074672,-0.6187970842540264,1.008023634725064
1772024995340356000,4.948356201171875,1.001370168185234,0.4177759147375822,0.9774330469544976
1772024995350353000,4.958352783203125,1.9838398210674524,0.9906979675233364,1.3248979195602237
1772024995360350200,4.96835009765625,3.238181710758805,0.7086202707812189,1.827475393270701
1772024995370347000,4.978346923828125,4.2260961850434535,0.4279109397828579,2.01823966492787
1772024995380344000,4.988343994140625,4.998095872062445,0.28740853637605907,2.0988824967861173
1772024995390341000,4.998341064453125,5.744583516684174,0.22889935652315616,2.2038589749120177
1772024995400338000,5.008337890625,6.347580974259972,0.4236357466816902,2.164016355475783
1772024995410335000,5.0183349609375,6.659399437010288,0.5555085611701012,2.1100975721530615
1772024995420332000,5.02833203125,6.858362504953146,0.46959144217073917,2.2284014416247606
1772024995430329000,5.0383291015625,7.207364158672094,0.305978504550457,2.3382339814797044
1772024995440327000,5.048326904296875,7.526579161414504,0.44512890882641076,2.249356843630969
1772024995450324000,5.058323974609375,7.719887564596533,0.826371036414802,2.0500794490419327
1772024995460321000,5.068321044921875,8.025648042482137,1.0642784597799182,1.873957158460468
1772024995470318000,5.078318115234375,8.34340290954411,1.3205302258700131,1.7636394654370844
1772024995480315000,5.08831494140625,8.480625268366932,1.749821514095366,1.6627622393235564
1772024995490315500,5.0983154296875,8.564419403862953,2.485564769601822,1.5985886039681731
1772024995500312300,5.108312255859375,7.737246695676445,3.4356899037182327,0.8382353694707154
1772024995510309400,5.118309326171875,7.146489710992574,3.5864039045378564,1.3766861205950378
1772024995520306400,5.128306396484375,6.752230865442752,3.3310596086814996,1.5790905611634254
1772024995530303500,5.138303466796875,6.7314084421664475,2.8907471602261063,1.5211168033614755
1772024995540300300,5.14830029296875,8.067396933931112,3.067406626424193,1.22970589947626
1772024995550297600,5.158297607421875,5.972463467031717,2.5951515180021523,-1.4848209166213868
1772024995560294400,5.16829443359375,2.1716846981465814,2.6521774735599757,-3.2920456951543686
1772024995570291500,5.17829150390625,0.6182248373240232,3.1354432208180425,-3.5990202250048515
1772024995580288500,5.18828857421875,0.7869897508800029,2.7356735028922556,-3.6111017079427836
1772024995590285300,5.198285400390625,-0.3891659063249826,1.1895818327501415,-2.9856477961480614
1772024995600282400,5.208282470703125,-2.1968770070701837,-0.45188452056646344,-2.5466423386380077
1772024995610279400,5.218279541015625,-3.4204379740506408,-1.791386573410034,-2.311048160651326
1772024995620276500,5.2282763671875,-3.9440877541452646,-3.574074292057752,-1.535416839131713
1772024995630274300,5.2382744140625,-4.617762676012516,-5.425780601873994,-1.0303889035291969
1772024995640271400,5.248271240234375,-7.278958737808465,-6.028350189426541,-0.6390887616544961
1772024995650268400,5.258268310546875,-10.984917534792423,-6.14023410885334,1.364362061072886
1772024995660265500,5.268265380859375,-12.082079150259494,-6.957309201395511,4.469201177051663
1772024995670262300,5.27826220703125,-11.125214478754996,-6.270576645034551,5.605065740400552
1772024995680259600,5.288259521484375,-9.747545484602451,-4.58964951120615,4.353900142657756
1772024995690256400,5.29825634765625,-9.615068859001994,-4.065103074532747,2.943048425349593
1772024995700253400,5.30825341796875,-9.252060891762376,-3.621784137737751,2.1696413557507097
1772024995710249500,5.31824951171875,-8.295002743512391,-3.2798943618506193,1.7445628629148004
1772024995720246300,5.328246337890625,-6.997674529531598,-3.2161119177699087,1.8851928382240235
1772024995730243300,5.338243408203125,-4.7405637107729905,-2.6465093647956848,1.7836182774960994
1772024995740240400,5.348240478515625,-2.1587404608994722,-1.8200392519205808,1.4124321183674036
1772024995750237400,5.358237548828125,-0.20223697504699228,-1.2757581872075796,0.8190376247867941
1772024995760234200,5.368234130859375,0.5878682775050401,-0.7237292848467827,0.11910495672151446
1772024995770231600,5.3782314453125,-1.0535562824964522,0.22025778490602968,-0.7932632781915366
1772024995780228400,5.388228271484375,-2.5909230866521598,0.5935708730608225,-1.6488512028709053
1772024995790225400,5.398225341796875,-2.8774644848048685,0.3139630735635757,-2.2389383254691957
1772024995800222500,5.408222412109375,-2.5381828455895183,1.4603431857079268,-2.9700504140436648
1772024995810219500,5.418219482421875,-0.3876502410650253,2.6977695964336394,-3.423268229040503
1772024995820216300,5.42821630859375,1.958673815628886,3.7134891924887894,-1.1705294878862798
1772024995830213400,5.43821337890625,4.292677904453873,3.7013387359678744,1.216612170755863
1772024995840210400,5.44821044921875,4.532638753217459,2.600091897013783,1.183160713661462
1772024995850208500,5.45820849609375,0.27966742072999473,1.2469815900564194,-1.1929803160820156
1772024995860205300,5.468205322265625,1.9030396066904067,-0.15962971320301295,-2.0143112394377587
1772024995870202400,5.478202392578125,7.686247160801291,1.664654044419527,-0.4157040768995881
1772024995880199400,5.488199462890625,8.1439780693084,5.59857871646881,-3.9486087387010453
1772024995890196200,5.4981962890625,9.401517878258227,7.1116405159294604,-5.220047601404786
1772024995900193500,5.508193603515625,9.426357135960458,5.01571102373004,-2.49408213031739
1772024995910190300,5.5181904296875,6.35461569520235,1.928343559294939,0.5151539005585014
1772024995920187400,5.5281875,4.94808417918086,0.16569208198189733,0.9711541128154844
1772024995930184400,5.538184326171875,5.594790430101752,0.7488590499281883,-0.9406753148563206
1772024995940181500,5.548181396484375,6.780345783814788,2.224791434434056,-2.053986831744015
1772024995950178300,5.55817822265625,7.828376580888032,3.062052405914664,-1.498220788681507
1772024995960175600,5.568175537109375,7.76868286742568,3.014741788685322,-0.706680169564113
1772024995970172400,5.57817236328125,7.268297643062472,2.8125457301706076,-0.7824155748322605
1772024995980169200,5.588169189453125,6.731322517448663,3.0356711794674394,-1.2848064399294554
1772024995990166500,5.59816650390625,6.17152824178338,3.5723400156110525,-1.5104307203046976
1772024996000163300,5.608163330078125,5.503448947966098,4.2522739978730675,-1.401385969826579
1772024996010160400,5.618160400390625,4.227263475257158,5.129704482656717,-0.7752208410225808
1772024996020158500,5.628158447265625,5.943995497438311,4.914181325057148,0.1442645324192941
1772024996030155500,5.638155517578125,5.223621368238329,5.180808646950125,0.6946644453387707
1772024996040152300,5.64815234375,5.443333794221282,5.06416204316616,0.9417150331676005
1772024996050149400,5.6581494140625,5.054162042677402,5.165948931470513,1.1147462258659302
1772024996060146400,5.668146484375,4.961977679976821,4.894091307708621,1.2853064984060822
1772024996070143500,5.6781435546875,1.171158579570055,3.2244746724456546,-2.0074210415326057
1772024996080140300,5.688140380859375,-5.217245987987518,-2.471966452360153,-6.6886009815752505
1772024996090137600,5.6981376953125,-4.930104870375991,-6.7244760125547645,-3.5171839455783367
1772024996100134400,5.708134521484375,-5.868749410057068,-8.105721111628412,2.2025603134036063
1772024996110131500,5.71813134765625,-12.861999693405627,-9.636797875729203,3.538872922556102
1772024996120128500,5.72812841796875,-18.231015621006488,-11.71695404473543,3.766881467719376
1772024996130125600,5.73812548828125,-18.70459642507434,-8.538654263487457,3.2432387018874285
1772024996140122400,5.748122314453125,-16.614306400066614,-5.345024811160564,1.8233055602401493
1772024996150119400,5.758119384765625,-13.020457732480764,-6.411673799464106,1.3106963757283985
1772024996160116500,5.768116455078125,-12.074500239437818,-7.691278725227713,1.6790885202243924
1772024996170113300,5.77811328125,-12.527183216905593,-8.399176819214224,2.030529091528058
1772024996180110300,5.7881103515625,-11.925330253189802,-8.135586088538169,2.0107684522643683
1772024996190107400,5.798107421875,-11.076764628362655,-5.756686042410135,2.5312217744052408
1772024996200104400,5.8081044921875,-9.641288172885774,-3.697905838909745,3.379967724235356
1772024996210102300,5.818102294921875,-6.796233673298358,-2.7821014920681715,3.101770083796978
1772024996220099300,5.828099365234375,-3.6339340097367763,-2.315282437220216,1.7957947452411054
1772024996230096400,5.838096435546875,-1.656910298424959,-1.2559037321805953,0.7116860880926251
1772024996240093400,5.848093505859375,-2.457072250089049,-0.54864744322896,0.5529683751679957
1772024996250090200,5.85809033203125,-4.58603190523088,-0.23656419206261634,-0.011473726303130387
1772024996260087600,5.868087646484375,-1.2720184161573647,0.3223220288470387,-1.0767913198724388
1772024996270084400,5.87808447265625,2.5422037716686723,1.3990914291486143,-0.6940015244506299
1772024996280081400,5.888081298828125,4.66616927178502,2.5272888188704847,0.21368658982217312
1772024996290078500,5.898078369140625,5.8717854167520995,2.5970851164132354,-0.3609720774978399
1772024996300075500,5.908075439453125,6.743889153555036,2.757358680477738,-1.3517417950831352
1772024996310072300,5.918072265625,7.633075542584061,2.768906787191331,-1.1023116917066276
1772024996320069400,5.9280693359375,8.409995150348543,2.474853405973315,-0.9703886083357035
1772024996330066400,5.93806640625,8.58402309899926,2.5522896968752145,-0.7209283290166407
1772024996340065500,5.9480654296875,7.871840459561348,3.0981226672053337,-0.03925006037056446
1772024996350062300,5.958062255859375,7.703558361086249,3.810831376343965,0.11560703160315751
1772024996360059400,5.968059326171875,7.890957247963547,3.8383769703954456,0.022080606643855572
1772024996370056400,5.978056396484375,7.7466721111476415,3.7766754242420193,-0.0103963793952018
1772024996380053500,5.988053466796875,7.400049461519718,3.9239655880928037,0.04810103695467114
1772024996390050300,5.99805029296875,7.204338673371076,3.598133797559142,0.13188501638285816
1772024996400047400,6.00804736328125,7.09401718095541,3.8449277072131633,-0.08107373408880084
1772024996410044400,6.01804443359375,7.5968994828313585,3.947650999584794,-0.4346902246594429
1772024996420041200,6.028041259765625,7.730547490298748,3.212330645665526,0.15009415188822894
1772024996430038500,6.03803857421875,7.36516811775267,2.519071317884326,0.23892326761046423
1772024996440035300,6.048035400390625,6.862779152351617,2.829850500714779,-0.2708217961744405
1772024996450032400,6.058032470703125,6.220415314549207,4.605355029860139,-0.648706411762163
1772024996460029400,6.068029541015625,5.697599062669277,5.577784350243211,-0.30041531746536493
1772024996470026500,6.078026611328125,5.413301644051074,6.45459991799891,0.6146819770853966
1772024996480023300,6.088023193359375,4.768476384571194,6.940629284751415,1.0309394500840454
1772024996490017000,6.09801708984375,2.5974001737117764,6.4215650788813825,0.5448053443154319
1772024996500013800,6.108013916015625,0.09939151760041713,5.010200151354074,-0.7409880242921412
1772024996510012000,6.118011962890625,-0.4786339958041906,3.3618238725185394,-1.667984650146961
1772024996520008700,6.1280087890625,-1.977709940010309,1.7498387574911116,-1.0674188766974955
1772024996530006000,6.138006103515625,-3.389469419813156,-0.6580787088066339,0.3792196087848395
1772024996540002800,6.1480029296875,-5.950913898524641,-4.4683296549141405,1.5196408855900168
1772024996549999600,6.15799951171875,-8.21357825975716,-8.758500544983148,1.878627196098119
1772024996559997000,6.167996826171875,-8.880350562629102,-10.875604927158355,0.9322204979829489
1772024996569993700,6.17799365234375,-13.45417180558443,-9.563766541787981,1.877339348244667
1772024996579990800,6.18799072265625,-16.481195568215846,-7.302801385688781,0.7965233029007911
1772024996589987800,6.19798779296875,-15.814501591277121,-3.716716045580804,-1.3379425484418868
1772024996599985000,6.20798486328125,-12.719500270962714,-4.511935572406649,-2.209636535400152
1772024996609981700,6.217981689453125,-9.68773369771838,-5.890065754330158,-1.370048290015757
1772024996619979000,6.22797900390625,-8.905224891644716,-6.119026485651731,-0.39648404731862247
1772024996629975800,6.237975830078125,-8.258049854168295,-7.125835045498609,-0.1789390285026282
1772024996639972900,6.247972900390625,-6.807133252975344,-6.884212401002645,0.09197240045033395
1772024996649970000,6.257969970703125,-5.338908374106884,-4.783315641784668,0.18086290923729537
1772024996659967000,6.267967041015625,-3.6801638459920882,-2.927772530284524,0.21587430912479758
1772024996669963800,6.2779638671875,-2.299828262978792,-1.3370818399593234,0.03517769636511803
1772024996679960800,6.2879609375,-1.734414393866062,0.46187663000971074,0.3631951603747904
1772024996689959000,6.297958984375,-1.524547070071101,1.8485460922196506,0.8941615470930934
1772024996699956000,6.3079560546875,-2.675813200691342,2.3542796918734905,0.6618969519205391
1772024996709952800,6.317952880859375,-2.5466923152595755,2.545248253931105,0.8418895080640911
1772024996719949800,6.32794970703125,1.2784195153713225,2.2591604447647926,0.40558775655478235
1772024996729947000,6.33794677734375,1.9605811105549333,1.6683163663193583,-0.06743950528353453
1772024996739943700,6.347943603515625,4.048164799213409,1.424491535604,0.03313610753491521
1772024996749941000,6.35794091796875,5.627514888095855,1.5286775940045714,-0.2072144711986184
1772024996759937800,6.367937744140625,6.601685499188304,1.7632427212044595,-0.5209568877488374
1772024996769934800,6.377934814453125,7.150009701812267,1.8917159563824533,-0.5657886207092553
1772024996779932000,6.387931884765625,7.411098678800463,1.7137188118398188,-0.3094195849150419
1772024996789929000,6.397928955078125,7.264726798838376,1.3296420453473925,0.07702559120915829
1772024996799925800,6.40792578125,6.828269564506411,1.1490797264918684,0.4447883517604321
1772024996809922800,6.4179228515625,6.493184792459011,1.1383531652942298,0.5908406443793326
1772024996819920000,6.427919921875,6.448080160841346,1.0031669884741305,0.3915205431597307
1772024996829916700,6.437916748046875,6.519042871814966,1.2589341859176755,0.10700213873460888
1772024996839913700,6.447913818359375,6.846777865621447,1.5024796151697635,-0.17933379997387527
1772024996849910800,6.457910888671875,7.1531363094002005,1.6605018931761384,-0.22131039923150092
1772024996859907800,6.467907958984375,7.166431259781122,1.9475959567755459,-0.04823631723951548
1772024996869906000,6.477906005859375,7.175005026859044,2.4858041313156485,-0.07496690511368215
1772024996879902700,6.48790283203125,7.5193059555411335,3.202997292391956,-0.1522013898331672
1772024996889899800,6.497899658203125,7.911744015404581,3.8812355766519904,-0.00832202080655843
1772024996899896800,6.507896728515625,8.073245659959316,4.138790534295142,-0.0028778935238718984
1772024996909893600,6.5178935546875,8.31067202180922,4.205550240620971,0.0977461250135675
1772024996919891000,6.527890869140625,7.7635513497561215,3.9007302584558725,-0.3222932411439717
1772024996929887700,6.5378876953125,6.835840292021632,3.4813650287002322,-0.859119605936855
1772024996939884800,6.547884765625,5.941867253237962,3.1469673621341583,-1.2614412003025413
1772024996949881900,6.5578818359375,4.564792133325338,2.866959749664366,-1.3603700688272713
1772024996959879000,6.56787890625,3.316182065284252,2.555487323872745,-1.1005359872709959
1772024996969875700,6.577875732421875,2.250086619210243,1.43018916272372,-0.8794272115588188
1772024996979873000,6.587873046875,-0.8546861535340547,-0.9477557746365666,-0.6238306945070624
1772024996989869800,6.597869873046875,-4.133074786996842,-4.796110825949907,0.4105540737252682
1772024996999866600,6.60786669921875,-7.734794626349211,-10.071977345210314,1.4006190771073102
1772024997009864000,6.617864013671875,-8.592782159516215,-12.666259679162502,1.46287358096838
1772024997019860700,6.62786083984375,-15.204545985126494,-10.477330416226387,2.729820100688934
1772024997029857800,6.63785791015625,-18.612495649003982,-9.624142392295598,3.3178333396226165
1772024997039854800,6.647854736328125,-19.748315204167366,-6.016046588170528,3.562638998068869
1772024997049853000,6.65785302734375,-18.449436253613232,-3.342172831109166,3.3680344175964594
1772024997059849700,6.667849609375,-15.681125386488437,-4.815853345035016,2.1987916085198522
1772024997069846800,6.6778466796875,-13.710287085813283,-6.489227579265832,1.2876855024971068
1772024997079843800,6.68784375,-13.04202191403508,-6.51431642781496,0.8492522919170558
1772024997089841000,6.6978408203125,-12.468416555160283,-5.203913628205656,0.6540069293230771
1772024997099837700,6.707837646484375,-11.379236001574993,-2.737095352388918,0.40806043027862904
1772024997109835000,6.7178349609375,-8.940924566057324,-1.4810960508793591,-0.48053252290189263
1772024997119831800,6.727831787109375,-5.732670376050472,-0.8427858723819255,-0.9676435474112629
1772024997129828900,6.737828857421875,-2.9170845475316045,0.3538806579321623,-0.6293278306186199
1772024997139826000,6.747825927734375,-1.0870365272939204,1.6381529909849166,-0.0012533610619604586
1772024997149823000,6.757822998046875,0.4205272592723369,2.298715041039884,0.23150135571509597
1772024997159819800,6.76781982421875,1.6557219654232262,2.527508306840062,0.07599296022579073
1772024997169816800,6.77781689453125,2.653668588900566,2.7444898465543983,-0.15653130879625676
1772024997179814000,6.78781396484375,3.715420452812314,2.7765228151530024,-0.37368367503285405
1772024997189810700,6.797810791015625,5.029602770960331,2.4045883218750355,-0.5580475781284272
1772024997199808000,6.80780810546875,6.439264986222982,1.9605635748982428,-0.7104159220263362
1772024997209804800,6.8178046875,7.695901708853245,2.112348712080717,-0.7609735583528876
1772024997219801900,6.8278017578125,8.625133108022808,2.70449189042598,-0.7064137006476521
1772024997229799700,6.837799560546875,9.342666460838913,2.880856173069775,-0.607742387080565
1772024997239797000,6.847796875,9.87352631844282,2.6767081037044522,-0.5756719360157847
1772024997249793800,6.857793701171875,10.248747286045552,2.4096596337899565,-0.7540881827533245
1772024997259790800,6.867790771484375,10.279646282178163,2.284423480837047,-0.9731561733528971
1772024997269788000,6.877787841796875,9.653878774389623,2.422508593969047,-0.9536681404855102
1772024997279785000,6.887784912109375,8.840346469020844,2.679683027862012,-0.6953506009720265
1772024997289781800,6.89778173828125,8.160358710744976,2.8727000468820334,-0.5291882711298763
1772024997299778800,6.90777880859375,7.678499907675385,3.0062618373706935,-0.5378514700569212
1772024997309776000,6.91777587890625,7.634056370314955,3.2030402547508476,-0.5963247018136084
1772024997319772700,6.927772705078125,7.9613284227848045,3.4745430737257004,-0.6418278312295674
1772024997329769700,6.937769775390625,8.365099193045497,3.819112882477045,-0.7013175465524196
1772024997339766800,6.947766845703125,8.647843537002801,4.201372954936326,-0.695741353855282
1772024997349763800,6.957763916015625,8.77849119361043,4.554145943887532,-0.6366675989221781
1772024997359760600,6.9677607421875,8.777975060781836,4.863425243549049,-0.5731170639012009
1772024997369758000,6.977758056640625,8.535991766279935,5.11742718488574,-0.4376369456358254
1772024997379754800,6.987754638671875,8.09048905570507,5.245908603370189,-0.3413771501898765
1772024997389751800,6.997751708984375,7.34314391747117,5.241362192112207,-0.3381714129511267
1772024997399749600,7.00774951171875,6.08452741920054,4.839684010216594,-0.4567261884439736
1772024997409747000,7.017746826171875,4.416383194577693,4.223431057487428,-0.8362836508810519
1772024997419743700,7.02774365234375,2.292802894386649,4.0827524207308885,-1.6701570257499814
1772024997429740800,7.03774072265625,-0.1009744028776884,3.6225776262030003,-2.2169646863311527
1772024997439737900,7.04773779296875,-1.958433577132225,0.9695414899870752,-2.049999807934463
1772024997449735000,7.05773486328125,-3.80362363692224,-5.563420893847942,-1.5625108900234101
1772024997459731700,7.067731689453125,-6.788609754291176,-12.657529260218142,0.002010536104813218
1772024997469729000,7.07772900390625,-12.609702510160208,-13.548847985100746,1.7527260033652186
1772024997479725800,7.087725830078125,-19.779947190749645,-11.585523128795623,3.0587340751469134
1772024997489723000,7.097722900390625,-23.292236350023746,-7.006508408850431,4.053351846462488
1772024997499720200,7.10772021484375,-22.61497421731949,-1.967624307064712,3.164327954518795
1772024997509717000,7.117717041015625,-18.257652283519505,-3.4804227794140576,1.175139319769293
1772024997519714000,7.127714111328125,-13.765695084780454,-7.374522221553325,0.172471586054191
1772024997529711000,7.137711181640625,-12.501596355706452,-7.837090048697591,0.28050862079448996
1772024997539708200,7.147708251953125,-12.781901489818095,-6.474895102530717,0.270928014761582
1772024997549705000,7.157705078125,-12.015277650618552,-4.812252982455492,-0.2381746229339391
1772024997559702300,7.167702392578125,-9.105714730763435,-2.8686393733143807,-0.6282571326471865
1772024997569699000,7.177698974609375,-5.583743550908565,-1.395254042942822,-0.5425279374353588
1772024997579697200,7.187697265625,-3.18311682614088,-0.5967725917115807,0.03183722683079541
1772024997589694000,7.19769384765625,-2.587022572082281,0.09012129269093275,0.6701956283841282
1772024997599691300,7.207691162109375,-2.7602374507844445,0.9456479887023568,0.7793799334634095
1772024997609688000,7.21768798828125,-1.8917390449970959,1.6220833151936531,0.3451177249576896
1772024997619684900,7.227684814453125,-0.07754559649527072,1.9286857968613504,-0.2093010682143271
1772024997629682200,7.23768212890625,1.4572417125612496,1.9586592025816438,-0.3460829897932708
1772024997639679000,7.247678955078125,2.3019383870005607,1.7530670718878507,0.09905461379624902
1772024997649676000,7.257676025390625,2.914700282743573,1.2018132455527781,0.5300877772528678
1772024997659673000,7.267673095703125,3.9954754115551707,0.5936357549905776,0.5461098145101219
1772024997669670100,7.277670166015625,5.492931645604968,0.5738771615535021,0.3340804903756827
1772024997679667000,7.2876669921875,6.967278806746005,1.0904656249597668,0.1309158790897578
1772024997689664000,7.2976640625,8.0376371709615,1.6234437898918985,0.07345003427732735
1772024997699661000,7.3076611328125,8.738719739714265,1.940076082664728,-0.01565977981612086
1772024997709658000,7.317658203125,9.167021140119433,1.9776713615655899,-0.1431708188984543
1772024997719655000,7.327655029296875,9.134323570132254,1.8595847881063818,-0.1300740945033729
1772024997729652000,7.33765185546875,8.666226165911555,1.8795178613275287,-0.005256203495152294
1772024997739649000,7.34764892578125,8.030929197755455,2.15151723164767,0.270329829672724
1772024997749647000,7.357647216796875,7.5631690626651045,2.379432545569539,0.4627070529518649
1772024997759644000,7.367643798828125,7.630731025284528,2.2146990794867274,0.33229455680698156
1772024997769641000,7.377640869140625,7.413128138801455,2.4152955938503147,0.16290522774234414
1772024997779638000,7.387637939453125,7.426007494118809,2.594699098059535,-0.15772826349586247
1772024997789634800,7.397634765625,7.736576833590865,2.828899191339314,-0.330581615409255
1772024997799632100,7.407632080078125,8.00769854429364,3.212830704142153,-0.3311290932241827
1772024997809629000,7.41762890625,8.152561773258448,3.7074428980618714,-0.24582396864332257
1772024997819626000,7.4276259765625,8.14270790324211,4.063927893273532,-0.1542179903525859
1772024997829623000,7.437623046875,8.1061922362715,4.0711891164481635,-0.15009009676761925
1772024997839620000,7.4476201171875,7.851819415795803,3.9995205952927466,-0.03825849204994738
1772024997849617000,7.457616943359375,7.142084169510007,3.836117501030862,0.038602410116791726
1772024997859614200,7.4676142578125,5.734085503545403,3.593161269843578,0.06449146913290023
1772024997869611000,7.477611083984375,3.3315409624576566,3.365272259406745,-0.04727262330651283
1772024997879608000,7.487608154296875,-0.12669278150200844,2.554364457322657,-0.09073146047852933
1772024997889605000,7.497605224609375,-4.3984173297762865,0.043893502262234686,0.28843817168474195
1772024997899602000,7.507601806640625,-9.002734833282231,-5.749320482078194,1.081328671041131
1772024997909599000,7.517598876953125,-11.00914713616371,-12.892640330862998,1.4650234524786472
1772024997919597000,7.52759716796875,-11.81858252760768,-13.423945009624957,1.753312863342464
1772024997929594000,7.537593994140625,-15.611373220348357,-11.670061360657215,1.6477277517989277
1772024997939591000,7.5475908203125,-17.119509838366508,-10.279683691579104,0.5278329840634017
1772024997949588000,7.557587890625,-17.28911120274663,-5.368616114628314,-0.1281844813644886
1772024997959585000,7.5675849609375,-16.370959415996072,-3.684790921270847,-0.1961564860895276
1772024997969582000,7.57758203125,-14.6648779671669,-5.788939960283041,-0.09995726172439753
1772024997979579000,7.587578857421875,-13.080996664595602,-6.639934858083724,-0.0005469663582742213
1772024997989576200,7.597576171875,-11.287595828753709,-6.592436609327793,-0.3462874263241887
1772024997999573000,7.607572998046875,-9.064498923277855,-5.724445568540692,-1.3418714123234152
1772024998009570000,7.617570068359375,-6.382375224265456,-4.034149133342504,-1.825567513822764
1772024998019567000,7.627567138671875,-3.6878736897170543,-2.7450831362724304,-1.6964904675327241
1772024998029564200,7.637564208984375,-1.5482529398292302,-1.6018115115374325,-1.4957652122229337
1772024998039561000,7.64756103515625,-0.16158172405362128,-0.13537848452180623,-1.2592350685603917
1772024998049558000,7.65755810546875,0.5824474215000868,1.28608961160779,-0.9560967558719217
1772024998059555000,7.66755517578125,0.7472095291554928,2.3132500546097754,-0.6298842954576015
1772024998069551900,7.6775517578125,0.49257542739510535,3.037069063566625,-0.5503475251451134
1772024998079549200,7.687549072265625,0.7060165180236101,3.484439613839984,-0.6076559509061277
1772024998089547300,7.69754736328125,1.582522873699665,3.464209603498876,-0.5369897386610508
1772024998099544000,7.7075439453125,3.050457829710841,2.658718565766513,-0.6655813395217061
1772024998109540900,7.717540771484375,4.857884268295765,2.00817375959605,-0.8199553241536021
1772024998119538200,7.7275380859375,6.5796326573342085,2.2756416239663957,-0.8200184525176882
1772024998129535000,7.737534912109375,7.866711864501237,2.968740500488877,-0.9045539079003035
1772024998139532000,7.747531982421875,8.428836044418812,3.511114562536776,-1.0598865084312856
1772024998149529000,7.757529052734375,8.464033614528178,3.74381243456006,-1.1712008112765848
1772024998159526100,7.767526123046875,8.110934462362527,3.7148596040591597,-1.149562687703222
1772024998169523000,7.77752294921875,7.584839042681455,3.5449265235066414,-0.9863789352804422
1772024998179520300,7.787520263671875,7.061997071838379,3.4293162770330903,-0.698586368022859
1772024998189517000,7.79751708984375,6.563268382510542,3.3783807473048566,-0.42346141302809115
1772024998199514000,7.80751416015625,6.274221723538637,3.4787180213227864,-0.2110916048929095
1772024998209511200,7.81751123046875,6.35950112915635,3.775992118152976,-0.07506006328985095
1772024998219508000,7.827508056640625,6.759198366367817,4.0734149758040905,-0.19209099021628498
1772024998229505000,7.837505126953125,7.2465458299815655,4.279514763759076,-0.33999607109501956
1772024998239502000,7.847502197265625,7.643575309288502,4.499542831562459,-0.4296548608407378
1772024998249500200,7.857500244140625,7.99192405205667,4.715700779934227,-0.46985681510865684
1772024998259497000,7.8674970703125,8.225748590022326,4.884228085342049,-0.4143760431662202
1772024998269494000,7.877493896484375,8.240708258745073,4.8988861407697195,-0.2753418856810778
1772024998279491000,7.887490966796875,7.961334852525591,4.847282502521574,-0.060885407464951274
1772024998289488100,7.897488037109375,7.315842069047689,4.710857431556284,0.09639635437242686
1772024998299485000,7.90748486328125,6.288958104899526,4.331339935803413,0.10998458861149847
1772024998309482000,7.91748193359375,5.039832488551736,3.5612820305019617,-0.01715717876702547
1772024998319479000,7.92747900390625,3.3761873289138076,2.3691835387557743,-0.38694625751413403
1772024998329476000,7.93747607421875,1.2651836017012594,0.730979694366455,-1.0854835987634956
1772024998339473000,7.947472900390625,-1.2922335211902856,-1.4980863486468792,-1.2734544403098522
1772024998349470200,7.95747021484375,-4.669311661463976,-5.066752059659361,0.009026771542429923
1772024998359467000,7.967467041015625,-8.303740761241317,-9.488705747845769,2.0438161508634685
1772024998369463800,7.9774638671875,-10.707657759726047,-11.063598857319354,3.191832339777052
1772024998379461000,7.987461181640625,-14.143996482741832,-9.045221391355991,3.108802466651797
1772024998389458000,7.9974580078125,-17.315857755374907,-8.509019588202237,2.4053064070165155
1772024998399455000,8.007455078125,-17.606126649618147,-6.176293264228105,1.5506296058326958
1772024998409452000,8.0174521484375,-16.984527367424963,-2.7683813020125028,1.2644044340223073
1772024998419450000,8.0274501953125,-15.567068799197672,-3.8469463535591957,0.8977094488330185
1772024998429447000,8.037447021484375,-13.988485603034496,-5.809622682827711,0.16816234455294907
1772024998439444000,8.04744384765625,-11.901969251346587,-5.7281011684387915,-0.2470723978018388
1772024998449441000,8.05744091796875,-10.00465562108755,-6.003689795422554,-0.9678593090537935
1772024998459438000,8.06743798828125,-8.720939168351888,-5.423932343658804,-2.009462776493281
1772024998469435000,8.077434814453126,-6.65730684864521,-3.7296217043831943,-2.0426015143767
1772024998479432200,8.08743212890625,-3.9697535257995127,-2.266776180465519,-1.2751350868731737
1772024998489428500,8.097428466796876,-2.0247031618535516,-1.286106270481646,-0.43674511136263605
1772024998499425500,8.107425537109375,-0.9973907431602478,-0.42328240319937466,0.011706146819517016
1772024998509422600,8.117422607421876,-0.564483310264349,0.5385264467090368,0.3088253453489393
1772024998519419600,8.127419677734375,-0.31224983990490435,1.7322955020159483,0.3971102163929492
1772024998529416400,8.13741650390625,-0.31503274862170216,3.0818472397089,0.5753302829712629
1772024998539413800,8.147413818359375,0.45334757885634897,3.7915699187740683,0.6106646312028169
1772024998549410600,8.15741064453125,1.767564968317747,3.945994172288477,0.7588393228031695
1772024998559407400,8.167407470703125,3.4458120692819354,3.558450314207375,0.7255885759126395
1772024998569404700,8.17740478515625,5.171977105718851,3.0529785803601146,0.4040867774073034
1772024998579401500,8.1874013671875,6.685695907783508,2.7804712605178357,0.16030965829119084
1772024998589399600,8.197399658203125,7.786345365366339,2.7171871213480827,-0.06615297260433435
1772024998599396400,8.207396240234376,8.315134261915087,2.7657354636788365,-0.2760239496611058
1772024998609393700,8.2173935546875,8.459856036582588,2.8197648677691816,-0.3232830558989197
1772024998619390500,8.227390380859376,8.416373453208804,2.849815138117969,-0.16889621178545056
1772024998629387500,8.237387451171875,8.12021783901453,2.9780446276679635,-0.03832191267497837
1772024998639384600,8.247384521484374,7.663730208566784,3.1718852380305527,-0.009308657223731278
1772024998649381600,8.257381591796875,7.271427757781743,3.354780383747816,-0.12372187593244015
1772024998659378400,8.26737841796875,6.93567779982388,3.616714579388499,-0.20439510292895138
1772024998669375700,8.277375732421875,6.785422940948605,3.8836391306623814,-0.2841387939903885
1772024998679372500,8.28737255859375,6.892951587775349,4.145928131090105,-0.3544233134415
1772024998689369600,8.29736962890625,7.153551319941878,4.396911016866564,-0.41370968821197746
1772024998699366700,8.30736669921875,7.551341846749186,4.545775882688164,-0.5036722832098603
1772024998709363700,8.31736376953125,7.958134010657668,4.619966908058524,-0.5737618646107614
1772024998719360500,8.327360595703125,8.240399046665429,4.639054470366239,-0.5633438944382593
1772024998729357600,8.337357666015626,8.472380587112903,4.604107075625658,-0.49508693529199804
1772024998739355600,8.347355712890625,8.532918934705853,4.481167509177327,-0.37026104364041235
1772024998749352700,8.357352783203124,8.33512198793292,4.190799830734729,-0.22866868957243858
1772024998759349500,8.367349609375,7.845299074116348,3.728659289091825,-0.0873402471376583
1772024998769346600,8.3773466796875,6.854843098655342,3.219152016118169,0.06752656251247972
1772024998779343600,8.387343505859375,5.097303265267611,2.4269123818859457,0.04452873142585158
1772024998789340400,8.39734033203125,2.794862189441919,0.9510632917493581,-0.3058801587425172
1772024998799337700,8.407337646484375,-0.21473931374549865,-1.3339841662049292,-0.842675836136192
1772024998809334500,8.41733447265625,-3.648841071489453,-4.529675519497692,-0.6806217453304678
1772024998819331600,8.42733154296875,-7.319390116918086,-8.878613948094845,1.0828104340314864
1772024998829328600,8.43732861328125,-10.168443330752849,-11.333388442635535,2.799054964956641
1772024998839325700,8.44732568359375,-12.853556859230995,-9.275241276341676,3.59253261655122
1772024998849322500,8.457322509765625,-16.264199999976157,-9.022732496172189,3.4754473290890453
1772024998859319800,8.46731982421875,-17.415318831080196,-10.714412494683264,2.519445996415615
1772024998869316600,8.477316650390625,-16.607050145328046,-8.424131812250614,2.3703519980132577
1772024998879313400,8.4873134765625,-15.677281570541858,-6.33893180385828,2.9565169787317513
1772024998889310700,8.497310791015625,-13.839544749367237,-7.335155256804823,2.3363072512008247
1772024998899307500,8.5073076171875,-11.711761152267455,-7.76543818641603,1.8653952279508113
1772024998909305600,8.5173056640625,-9.925457581210136,-7.846765055015683,1.9250304892241954
1772024998919302400,8.527302490234375,-8.341838728967309,-8.50683113824725,1.336837071418017
1772024998929299700,8.5372998046875,-7.002123910155892,-7.183337970918417,1.1275137913718818
1772024998939296500,8.547296630859375,-5.365836128520965,-5.124760596513748,1.0225523646846413
1772024998949293600,8.55729345703125,-3.558345977050066,-3.897258198431134,0.7505503640159964
1772024998959290600,8.56729052734375,-2.2771002983421087,-2.6273212647229434,0.5975868307039142
1772024998969287700,8.57728759765625,-1.485695653629303,-1.0861509766310453,0.48305020481124517
1772024998979284500,8.587284423828125,-1.4686416429758071,0.41448271841108797,0.5118301629632711
1772024998989281500,8.597281494140624,-2.3831448440909386,1.9754437486439942,1.087177397069335
1772024998999278600,8.607278564453125,-3.1691660421997305,3.5058266852617264,1.8160577810689806
1772024999009275600,8.617275634765624,-2.8573826507627964,4.643263612493873,2.1219839709103105
1772024999019272400,8.6272724609375,-1.0350661015599965,5.021520586791635,1.736757595991343
1772024999029269800,8.637269775390624,1.4047124839007854,4.8746413418292995,0.9812057704262435
1772024999039266600,8.6472666015625,3.7516467814475294,4.575633845335245,-0.005226794737577438
1772024999049263400,8.657263427734375,5.712017464122176,4.380679428511858,-1.0873489542439578
1772024999059260700,8.6672607421875,7.067991928339004,4.372612441912294,-1.9015978834494947
1772024999069258800,8.6772587890625,7.767988455420732,4.566832699242234,-2.3104443495392797
1772024999079255600,8.687255615234376,8.14073397282064,4.6133395988732575,-2.3291868978016077
1772024999089252400,8.69725244140625,8.226762735500932,4.199076076170802,-2.0220016478098928
1772024999099249700,8.707249755859374,7.883036976358294,3.7415678705036637,-1.5400819083333015
1772024999109246500,8.71724658203125,7.356568047189712,3.557342352965474,-1.055443265286833
1772024999119243500,8.727243408203124,6.920654418215155,3.6309728218436237,-0.6477863012425601
1772024999129240600,8.737240478515625,6.6508350222826,3.873024505406618,-0.45917818470597266
1772024999139237600,8.747237548828124,6.4878977919667955,4.285318773862719,-0.3636925885029137
1772024999149234400,8.757234375,6.5038131539791815,4.85158896754384,-0.26150486431270836
1772024999159231700,8.767231689453125,6.736983027428388,5.358064909997582,-0.18676964906305074
1772024999169228500,8.777228515625,7.130965394124388,5.631102683454752,-0.20754311863109468
1772024999179225600,8.7872255859375,7.539226461541652,5.679388283196091,-0.2903502889163792
1772024999189222700,8.79722265625,7.704680058592557,5.697250687623024,-0.301597512987256
1772024999199219500,8.807219482421875,7.58947371674478,5.745605845469236,-0.28617833699397743
1772024999209216500,8.817216552734376,7.349208332076668,5.788760512062907,-0.3619967443704605
1772024999219213600,8.827213623046875,7.046674415022134,5.786458664861321,-0.3173094613820314
1772024999229210600,8.837210693359374,6.671389150011539,5.532473966920375,-0.21536599427647887
1772024999239208700,8.847208740234375,6.091024964526295,4.960788177931309,-0.17913250524811444
1772024999249205500,8.85720556640625,4.819712650811672,4.085486521869898,-0.3586202536746859
1772024999259202600,8.86720263671875,2.971847818854451,2.8397335968255994,-0.64984973657839
1772024999269199600,8.87719970703125,0.3816109609007835,0.8716910643488168,-0.9457691308639943
1772024999279196400,8.887196533203126,-2.6278859128683805,-2.6966899845033883,-1.1015094354130328
1772024999289193700,8.89719384765625,-4.997546421486139,-7.570196184822916,-0.15842545197978614
1772024999299190500,8.9071904296875,-5.9565218015342944,-11.612913824546336,1.7180296607762575
1772024999309187600,8.9171875,-6.350239964336157,-11.68165359877348,2.5905033999353644
1772024999319184600,8.9271845703125,-8.734100263220071,-9.64952467083335,2.47435042488724
1772024999329181700,8.937181640625,-10.593204866594075,-9.175171128827333,2.165220324438065
1772024999339178500,8.947178466796874,-10.609958432996272,-8.740230728799105,0.8520742174699902
1772024999349175800,8.95717578125,-10.218750791710615,-8.012190595015882,0.18740232094340026
1772024999359172600,8.967172607421874,-9.541038577151298,-8.046925223788618,0.11623685393929481
1772024999369169400,8.97716943359375,-9.084711105701327,-7.273243867293,0.7685277731247245
1772024999379166700,8.987166748046874,-8.254192594218253,-6.934703401833772,1.1116524976342916
1772024999389164800,8.997164794921876,-6.5414668850690125,-7.400415956744551,0.47187743421606715
1772024999399161600,9.00716162109375,-4.71094832471013,-6.3980906797915695,0.18597440703213214
1772024999409158400,9.017158447265626,-2.939122191816568,-3.996398371618986,0.5621912538044155
1772024999419155700,9.02715576171875,-1.6533493910729884,-2.1972411642074583,0.7899212742872536
1772024999429152500,9.037152587890626,-1.417540401291847,-1.209428396731615,0.6769272016614675
1772024999439149600,9.047149658203125,-2.8164900838822127,0.3892562149569392,0.5526708535261452
1772024999449146600,9.057146728515624,-5.267741664993762,3.249135066449642,1.031002359252423
1772024999459143700,9.067143798828125,-6.932295756170153,6.268817818668484,1.79137064518854
1772024999469140500,9.077140380859374,-6.006250001299381,7.4566101376533505,1.8706826668344436
1772024999479137500,9.087137451171875,-3.024883243471384,6.445362134054303,1.6038067770078777
1772024999489134600,9.097134521484374,-0.05522329005002975,4.997697228133678,1.2014518648944794
1772024999499132200,9.107132080078125,2.0247125142037867,4.0038019258737565,0.44004597953893243
1772024999509129000,9.11712890625,3.3234862508177754,3.318259456080198,-0.3145825937014073
1772024999519126300,9.127126220703126,4.304634884229302,2.7147037800997493,-0.7936756583847105
1772024999529123000,9.137123046875,5.202395040336251,2.200514779050648,-1.0289952572137118
1772024999539120000,9.1471201171875,6.0665253140419715,1.7664593451634047,-1.083853440278396
1772024999549118000,9.157117919921875,6.6158350205719465,1.4747376217633485,-0.9749300511576234
1772024999559115300,9.167115234375,6.809575385430454,1.3414248375996947,-0.8244516126595437
1772024999569112000,9.177112060546875,6.884467252546548,1.1960764554664491,-0.8251974625907837
1772024999579109000,9.187109130859374,6.964260335707664,1.1359145399704575,-0.8347885900177061
1772024999589106200,9.197106201171875,7.1893474404662845,1.594406495977938,-0.5860488069929182
1772024999599103000,9.20710302734375,7.457157250142097,2.415596330362558,-0.25118016191422937
1772024999609100000,9.21710009765625,7.605660296913981,3.0653491093724963,-0.1962530783317983
1772024999619097000,9.22709716796875,7.659760135892033,3.3919340563610194,-0.408064229670912
1772024999629094100,9.23709423828125,7.841762716683745,3.554242633384466,-0.6792179429471492
1772024999639091000,9.247091064453125,8.248209428155421,3.653401219011843,-0.8219897525906562
1772024999649088300,9.257088134765626,8.568684660091996,3.753419636338949,-0.8173929263196885
1772024999659085000,9.2670849609375,8.630188053324819,3.8364191143259405,-0.7064492103524506
1772024999669082000,9.27708203125,8.519190269082785,3.894401055434346,-0.5285105179987848
1772024999679079200,9.2870791015625,8.222842347186804,3.8971979926764964,-0.28439839477464557
1772024999689076200,9.297076171875,7.762025163102149,3.735675889855623,-0.10255495006740092
1772024999699073000,9.307072998046875,7.116719426628947,3.472306692975759,0.01648541698530316
1772024999709070000,9.317070068359374,6.112578040164709,3.0212545315802095,-0.10745280511155723
1772024999719066000,9.327066162109375,4.471419437623024,2.2009949637830255,-0.2322960862893611
1772024999729063000,9.33706298828125,1.7229834837913511,0.17267945665121076,-0.3034860301475972
1772024999739060200,9.347060302734375,-1.5942010365337131,-4.604553650349378,-0.35741131627634165
1772024999749057000,9.35705712890625,-4.992795427566766,-10.705680906695127,0.4915328595396131
1772024999759055000,9.36705517578125,-8.231029160773753,-11.47545531888008,2.0215543424338103
1772024999769052000,9.377052001953125,-12.872881152904032,-7.169609889817237,3.009938187795877
1772024999779049200,9.38704931640625,-18.16292349703312,-6.802704330617189,2.9482082923308015
1772024999789046000,9.3970458984375,-19.411537072205544,-6.66454322963953,1.712534278230369
1772024999799043000,9.40704296875,-17.79669013800621,-2.6260359010875223,1.637434029060602
1772024999809040100,9.4170400390625,-15.407225443243979,-2.297436983928084,1.7127409067183732
1772024999819037200,9.427037109375,-13.268665600585937,-5.879115905770659,1.0709719660691916
1772024999829034000,9.437033935546875,-12.246802094948292,-7.27445558117032,0.46960773571841413
1772024999839031000,9.447031005859374,-11.10266011711955,-8.167204046595096,0.08706935777440666
1772024999849028000,9.457028076171875,-9.353144600233435,-8.770056542742251,-0.3996314784988761
1772024999859025000,9.46702490234375,-7.360195590037107,-7.11261082226634,-0.15255948255583643
1772024999869022200,9.477022216796875,-5.6058905007869,-5.027860311207175,0.5959188974916935
1772024999879019000,9.48701904296875,-4.135373127067089,-3.5914302082672713,1.0879403442658484
1772024999889016000,9.49701611328125,-2.3594518338143824,-2.2061796729445455,1.2294573315426707
1772024999899013000,9.50701318359375,-0.7944260383605957,-0.7612263640701771,1.188835106036067
1772024999909010200,9.51701025390625,-0.09930383931696414,0.5016463303402066,1.0803173020415007
1772024999919008000,9.527008056640625,0.3241068664371967,1.4996183805197476,1.0587957905851304
1772024999929005000,9.537005126953124,1.010779217043519,2.14228646196574,0.8979593319408595
1772024999939002000,9.547002197265625,2.2441794409930704,2.364376138474047,0.661350716214627
1772024999948999200,9.556999267578124,3.6439129674375055,2.4203216053187844,0.32886443622782824
1772024999958996000,9.566995849609375,4.922736971956491,2.4687127112612126,-0.23161694491878151
1772024999968993300,9.5769931640625,6.214580617046356,2.5006869354099033,-0.7537646498873829
1772024999978990000,9.586989990234375,7.34187667401433,2.6531679459020494,-1.1296686313182114
1772024999988987000,9.59698681640625,7.980157041895389,2.9624194807738062,-1.3957161074966191
1772024999998984200,9.606984130859376,8.143984499049186,3.16471023183465,-1.4622146786682306
1772025000008981000,9.61698095703125,8.066521320140362,3.1363179578259586,-1.3449180865429342
1772025000018978000,9.62697802734375,7.761362315279245,3.1106802432224154,-1.0824053603619337
1772025000028975000,9.63697509765625,7.343956402897835,3.2632489319980142,-0.8363369885034859
1772025000038972200,9.64697216796875,6.9057748289912935,3.5541660610169172,-0.6545971503011881
1772025000048969000,9.656968994140625,6.6145093249261375,3.8815404048174615,-0.5449930123746395
1772025000058966300,9.66696630859375,6.615892888239026,4.170608691099286,-0.6022206279844046
1772025000068963000,9.676963134765625,7.040964805203676,4.267536448934674,-0.8346401214577257
1772025000078960000,9.686960205078124,7.5688243119478225,4.266091510823369,-1.0534323638558387
1772025000088958000,9.6969580078125,7.894731505805254,4.38736928153932,-1.1174901177465915
1772025000098955300,9.706955322265625,8.045034295475482,4.5632788061529395,-1.1904141919210554
1772025000108952000,9.7169521484375,8.035108529266715,4.683224451482296,-1.1957234042450784
1772025000118949000,9.72694921875,7.85717655891478,4.8569700760602945,-1.1316580515697598
1772025000128946200,9.7369462890625,7.73134594720006,5.007817640131711,-1.06663861304
1772025000138943200,9.746943115234375,7.64102153315246,5.097456410002708,-0.9094673989050089
1772025000148940000,9.75693994140625,7.465813434806465,5.037019769218563,-0.7656726759545505
1772025000158937000,9.76693701171875,7.121299155634642,4.6622938916563985,-0.7349842538326978
1772025000168934100,9.77693408203125,6.271937411993742,3.9278830537974834,-0.9406449197180569
1772025000178931000,9.786930908203125,5.009968680685758,2.659696763148904,-1.304097854246199
1772025000188928000,9.796927978515624,3.318943931213021,0.9281032719224691,-1.6842989483490585
1772025000198925000,9.806925048828125,1.100719015687704,-1.2612713966935871,-1.5237047740280627
1772025000208922000,9.816922119140624,-1.7015666017532347,-4.824558921799063,-0.8490754009801894
1772025000218919000,9.8269189453125,-5.341721093440055,-9.175176974046229,0.3847925135463476
1772025000228916200,9.836916259765625,-9.211497995227575,-9.939434668636322,2.222870695504546
1772025000238913000,9.8469130859375,-14.101798678481577,-7.929680654111504,3.276326732496917
1772025000248911000,9.8569111328125,-19.52369980857372,-9.481607898539304,3.004075433242321
1772025000258908200,9.866908203125,-20.803589981019496,-8.174336967214941,2.0161229650348425
1772025000268905200,9.8769052734375,-19.564459688985348,-3.661745561248064,2.2152868162468073
1772025000278902000,9.886902099609374,-17.58062746670246,-4.269168434050679,2.512327104321122
1772025000288899000,9.896899169921875,-15.281186157214641,-6.033920098513365,2.2092546964757145
1772025000298896100,9.906896240234374,-13.656851263701915,-6.0841188383996485,1.8366313441507518
1772025000308893000,9.916892822265625,-12.01008008197546,-7.871908848622441,1.290139033129066
1772025000318892000,9.92689208984375,-10.562266122972964,-8.635992355689407,0.49471550816372034
1772025000328889000,9.93688916015625,-9.28750571463108,-7.043804997065663,0.4498936390101909
1772025000338886100,9.94688623046875,-7.757593902656436,-5.580529849559069,0.7645883878491818
1772025000348883200,9.95688330078125,-5.913461242964863,-4.367552820435166,1.0189205840535462
1772025000358880000,9.9668798828125,-3.8296155717909333,-2.609820387084782,1.1995834406740962
1772025000368877000,9.976876953125,-1.830154403221607,-0.8573074419483542,1.0785226737096905
1772025000378874000,9.9868740234375,-0.2711070976555347,0.3084101156115532,0.8669586289994418
1772025000388871200,9.99687109375,1.011692824757099,0.9775108614310621,0.39404344923347234
1772025000398868000,10.006867919921875,1.966119455459714,1.441377203953266,-0.02350157935768366
1772025000408865000,10.016864990234374,2.7380308796733615,1.9696639961987732,-0.3217249397367239
1772025000418863000,10.026863037109376,3.919267201143503,2.381866494718194,-0.8271566338345407
1772025000428860200,10.036860107421875,5.354657147380709,2.4538433511704203,-1.25571332417503
1772025000438857000,10.04685693359375,6.707930535945296,2.3001538416713476,-1.6538723920337854
1772025000448854000,10.05685400390625,7.934918554764986,2.2673165709525347,-2.0473621529072523
1772025000458851000,10.06685107421875,8.842427366948128,2.57635680116117,-2.2699404897153377
1772025000468847900,10.076847900390625,9.258100171926618,2.888510194954276,-2.1394234737500546
1772025000478845200,10.08684521484375,9.154731567388772,2.9561031372338533,-1.8628472970336674
1772025000488842000,10.096842041015625,8.794538073047995,2.9814275481045245,-1.6896562375985085
1772025000498838800,10.1068388671875,8.576179399761557,3.039305152055621,-1.5064023415714503
1772025000508835800,10.1168359375,8.395451661211252,3.210299432098865,-1.2992137354664504
1772025000518832600,10.12683251953125,8.107918913933634,3.5483874776154756,-1.1057330444574356
1772025000528829700,10.13682958984375,7.6694082542032,4.1430484840005635,-0.8969441635489463
1772025000538826800,10.14682666015625,7.479721548649668,4.627468077468872,-0.9642761168047785
1772025000548823800,10.15682373046875,7.639688238722085,4.938881466549635,-1.0476816913746296
1772025000558820600,10.166820556640625,7.792603256717324,5.368216886177659,-0.9506666936472058
1772025000568818000,10.17681787109375,7.725294392076134,5.846925700783729,-0.8435363984882831
1772025000578815700,10.186815673828125,7.5695935427546495,6.163408063691854,-0.7463062967054546
1772025000588812800,10.196812744140624,7.493030527555942,6.507263586694002,-0.5513135936982929
1772025000598809600,10.2068095703125,7.386002815988659,6.897759864839911,-0.2851527933385223
1772025000608807000,10.216806884765624,7.2302154574275015,7.069643787199259,-0.18380049705915152
1772025000618803700,10.2268037109375,6.995610582739114,6.856280437982082,-0.14007482564449308
1772025000628800800,10.23680078125,6.653309887963533,6.264459038937091,-0.2710251915257424
1772025000638797800,10.2467978515625,5.9940533675491805,5.243293452435732,-0.5795118064396083
1772025000648795000,10.256794921875,4.769975683218241,3.741349259316921,-1.0443939749408513
1772025000658791700,10.266791748046876,2.6233576217889785,1.551994464445114,-1.6597162957563996
1772025000668788700,10.276788818359375,-0.5580319421678781,-1.833903526622057,-1.672528138795495
1772025000678785800,10.286785888671876,-4.451092688909172,-6.856786049416661,-0.8076877440590411
1772025000688782600,10.296782470703125,-8.110324221509694,-10.701847612142561,0.7382897251188755
1772025000698780000,10.30677978515625,-10.81183125090599,-9.880383929252623,2.3637885478444396
1772025000708776700,10.316776611328125,-14.588901811945437,-8.490186877438425,3.0898379462018606
1772025000718773800,10.326773681640624,-18.38558542047143,-9.648891633626818,3.0206629954278466
1772025000728770800,10.336770751953125,-18.187344821584222,-7.28773474946022,1.8456939176589249
1772025000738769000,10.346768798828125,-16.411075153285264,-3.9137247645854947,1.9451701909333465
1772025000748765700,10.356765625,-14.315679914093018,-5.959808568120002,1.7200062215462326
1772025000758762800,10.3667626953125,-13.044725912296771,-8.031291016805172,1.3266298579193652
1772025000768759800,10.376759765625,-12.75328329809904,-8.743596990361809,0.9734099289182573
1772025000778756900,10.3867568359375,-12.024278118675946,-10.79897995263934,0.27472718784883615
1772025000788753700,10.396753662109376,-11.00582938991785,-10.225449412566423,0.03251344559192657
1772025000798751000,10.4067509765625,-10.28925582204461,-7.313126380348205,0.4330275521442294
1772025000808747800,10.416747802734376,-9.566796118742227,-5.1326206623643635,1.0779147709444166
1772025000818744800,10.426744873046875,-7.688986230376362,-3.382697733721137,1.6156905454166233
1772025000828742000,10.436741943359374,-5.34945197995305,-1.3929595022648573,1.900406481707841
1772025000838738700,10.44673876953125,-2.9232138440668582,0.07460720495581627,1.7511439948707819
1772025000848735700,10.45673583984375,-0.4372831637620926,0.9155331286847591,1.3529194605603814
1772025000858732800,10.46673291015625,1.4420125792473555,1.5514625495254992,0.6537197829447686
1772025000868729900,10.476729736328124,2.8393805456042287,1.7843588667303323,0.1925941174328327
1772025000878726700,10.4867265625,3.615536183258891,2.2453712811261415,-0.5741835971541702
1772025000888724700,10.496724853515625,4.396339938980341,3.113014531388879,-1.1502221745252608
1772025000898721800,10.5067216796875,5.641620570337772,3.7417449806362386,-1.547270358532667
1772025000908718800,10.51671875,7.209381928235292,4.039814319497347,-1.8494596999332307
1772025000918715600,10.526715576171876,8.56489169754982,4.301439303058386,-1.8829390679478644
1772025000928713000,10.536712890625,9.243086727190017,4.5597640760302545,-1.9618881015002727
1772025000938709800,10.546709716796874,9.428156294336915,4.53923858987391,-2.151537689913809
1772025000948706800,10.556706787109375,9.430255312442778,4.27623530369699,-2.286862398421764
1772025000958703900,10.566703857421874,9.327982686448097,4.228295740914344,-2.231678563599288
1772025000968701000,10.576700927734375,9.000203853499888,4.799593991890549,-1.966418584536761
1772025000978697700,10.58669775390625,8.339733865642547,5.793261915135384,-1.7099182505130768
1772025000988694800,10.59669482421875,7.918639620137214,6.287832315739989,-1.8295118675343691
1772025000998691800,10.60669189453125,7.867600337773561,6.2333911159783595,-2.0206443879820406
1772025001008688600,10.616688720703126,7.446853882792592,6.372935195747018,-2.149896936969459
1772025001018685700,10.626685791015625,6.946372212317586,6.591236001366377,-2.2299869572505355
1772025001028683800,10.636683837890626,6.811286865523457,6.6964172082841396,-2.1585354398466645
1772025001038680800,10.646680908203125,6.803454272201657,6.863678147017955,-1.9336586168378591
1772025001048677600,10.656677734375,6.689367874294519,7.117656999740004,-1.6438693228051064
1772025001058674700,10.6666748046875,6.530512360334396,7.493031112077832,-1.258931263308227
1772025001068671700,10.676671630859374,6.348673445671796,7.7492253027617926,-0.954163303591311
1772025001078668800,10.686668701171875,5.983624327993392,7.824005526196956,-0.6930867476932704
1772025001088665600,10.69666552734375,5.267115057528018,7.307654670938849,-0.6732483670182525
1772025001098663000,10.706662841796875,4.562048972097039,5.7597647192031145,-0.91365710567981
1772025001108659700,10.71665966796875,3.4804677875995633,3.6843431775033473,-1.3944710758715868
1772025001118656800,10.72665673828125,1.8662328478187322,1.4576310041397809,-1.8101354052826761
1772025001128653800,10.73665380859375,0.046831309279799456,-1.8635890553116796,-1.8026646310105918
1772025001138651000,10.74665087890625,-1.8716934513121841,-5.985921499019861,-1.091060083721578
1772025001148647700,10.756647705078125,-4.572850936618447,-8.833146912905573,0.14765753585845232
1772025001158644700,10.766644775390626,-8.242837671989202,-9.186550016453861,1.520089067748934
1772025001168642800,10.776642822265625,-13.703220216166972,-8.662433787891269,2.3081813730433582
1772025001178640000,10.786639892578124,-19.422067818570135,-10.125656328427791,2.5795816084265706
1772025001188636700,10.79663671875,-19.903636698782442,-9.703874685180187,2.2880530695110557
1772025001198633700,10.8066337890625,-16.1804929582417,-6.63972033855021,2.5409669233500956
1772025001208630800,10.816630859375,-12.421162636554241,-7.512212197887897,2.498831955192983
1772025001218627600,10.826627685546875,-9.939703548705577,-9.504929737415909,2.005794755505025
1772025001228625000,10.836625,-9.4568861297369,-9.829069921600817,1.173042858946696
1772025001238621700,10.84662158203125,-9.254464445772767,-11.461157913458347,0.07260192954801023
1772025001248618800,10.85661865234375,-8.708076764169334,-12.665767511731385,-0.9808386906795203
1772025001258615800,10.86661572265625,-7.899308896723389,-10.455358238393067,-1.0634103717084973
1772025001268612900,10.87661279296875,-8.006299783411622,-7.423783972850441,-0.07352605865560471
1772025001278609700,10.886609619140625,-7.906287503564357,-5.282467524960637,0.8915484419852495
1772025001288607000,10.89660693359375,-6.93752313542962,-3.0685090347081423,1.6928841136038302
1772025001298603800,10.906603759765625,-5.976871346601843,-0.9377028749167918,2.019533358000219
1772025001308601900,10.916601806640625,-4.8849306806534525,0.2860562449842691,1.8240084478124976
1772025001318598700,10.9265986328125,-3.51829570621252,1.2742325850754976,1.2022436728592962
1772025001328596000,10.936595947265625,-1.7063678645551204,2.21710029540956,0.37173539050929244
1772025001338592800,10.9465927734375,0.2827116107314825,2.839473484584689,-0.28546237074434755
1772025001348589800,10.95658984375,2.12498782890141,3.3272909037977456,-0.877704844745621
1772025001358587000,10.9665869140625,3.951632178175449,3.8946670128941534,-1.3683739270627497
1772025001368583700,10.976583740234375,5.891843285396694,4.205954145246744,-1.736601967038214
1772025001378580700,10.986580810546876,7.409865922135114,4.103475183025002,-1.7466145347476005
1772025001388577800,10.996577880859375,8.464786478722095,3.9614609137505292,-1.5900027080610393
1772025001398574800,11.006574951171874,9.00005421589613,4.017921052119136,-1.2725801416933535
1772025001408571600,11.016571533203125,9.289478476008773,4.295364951580763,-1.0225410395730286
1772025001418569000,11.02656884765625,8.835030242434144,4.700453234180808,-0.6575022971581668
1772025001428565800,11.036565673828125,7.702857519340514,5.01156793257594,-0.37349399767965075
1772025001438562800,11.046562744140624,6.932957434949278,5.619268453276157,-0.310454480920732
