time,seconds_elapsed,z,y,x
1772025092980055000,0.069054931640625,-1.3163912263691424,-4.264938833656907,0.782791422407329
1772025092990052000,0.079052001953125,-3.2740368679940697,-6.321753874564171,1.679410737916082
1772025093000049200,0.089049072265625,-5.368241436097025,-6.2795081395089625,1.9967486947402358
1772025093010046000,0.0990458984375,-6.856539965701103,-5.748789736202359,3.032312808950245
1772025093020044000,0.1090439453125,-6.944072703203559,-6.080574297660589,4.368490393546224
1772025093030041000,0.119041015625,-6.321143633711338,-5.200101376441121,4.061730090968311
1772025093040038100,0.1290380859375,-5.630507640171051,-4.350662475910783,3.435082000952959
1772025093050035000,0.139034912109375,-5.294476527184248,-5.637261790606379,4.795943068167567
1772025093060032300,0.1490322265625,-5.22339574278891,-6.979369642034173,6.609328122895955
1772025093070029000,0.159029052734375,-5.562512546831369,-7.6023700231969356,7.285439916521311
1772025093080026000,0.169026123046875,-6.054132865458726,-7.7798881520509715,6.941472165316343
1772025093090023200,0.179023193359375,-5.6334664899766445,-7.415646259102225,5.774857074394822
1772025093100020200,0.189020263671875,-4.991565593510866,-6.452853366592526,3.948825888583064
1772025093110018000,0.19901806640625,-4.890328740304708,-4.907723527219892,2.6246888703927396
1772025093120015000,0.20901513671875,-3.9258851579785343,-2.7430314644396305,1.770793282714486
1772025093130012200,0.21901220703125,-2.5976854203939435,-0.864126182052493,0.23671872503720223
1772025093140009200,0.22900927734375,-2.0829016683220862,0.6212421393185854,-1.7432947426751255
1772025093150006000,0.239006103515625,-1.4744126275926828,1.857498921743035,-2.854892002990842
1772025093160003000,0.249003173828125,-0.8833055142968893,2.8495564871817827,-2.9890690027683973
1772025093170000100,0.259000244140625,0.0701613314628601,3.4542174940556287,-2.82802036267817
1772025093179997200,0.2689970703125,1.4238473924815653,3.691430505415797,-2.4752818605184554
1772025093189994000,0.278993896484375,2.644606746044755,3.496160446771979,-1.9388472715221343
1772025093199992000,0.288991943359375,3.7657179768979545,2.860492014954984,-1.3901166800543665
1772025093209989000,0.298989013671875,4.618897817522287,2.2355288092866537,-0.9017854661002754
1772025093219986200,0.308986083984375,5.210515218427777,1.893980686444044,-0.5478197602331638
1772025093229983000,0.31898291015625,5.456786565512418,1.7568316851183772,-0.3727442022256553
1772025093239980000,0.32897998046875,5.685240516355633,1.728416614755988,-0.3287285348884761
1772025093249977000,0.33897705078125,5.981805295872688,1.9588541406318545,-0.37587329403162
1772025093259974000,0.348973876953125,6.214752466481924,2.311756893442571,-0.6282112476788461
1772025093269971200,0.35897119140625,6.376786610478162,2.556805128473043,-0.976266268197447
1772025093279968000,0.368968017578125,6.366248265329003,2.776437767218053,-1.1700083866216242
1772025093289965000,0.378965087890625,6.348578168603778,2.936145806354284,-1.4899061109311877
1772025093299963000,0.388962890625,6.831414876794815,3.3147464795231816,-1.8658818424239754
1772025093309960200,0.398960205078125,7.480435249876976,3.7812633365541695,-1.9887761084258555
1772025093319957000,0.40895703125,7.592934670853614,3.946439870229363,-1.9782947541609406
1772025093329954000,0.4189541015625,7.521756271302699,3.970642583593726,-1.7719442063152788
1772025093339951000,0.428951171875,7.499109555208682,4.094465362617373,-1.3229305650100112
1772025093349948200,0.4389482421875,7.428591080871224,4.181667260730267,-0.9955444577064364
1772025093359945000,0.448945068359375,7.232541270026564,4.209953444015979,-0.8905543894466013
1772025093369942300,0.4589423828125,7.054149280947446,4.3632910713374615,-1.1422262073352931
1772025093379939000,0.46893896484375,6.963172540470957,4.708977901419997,-1.3853529727838934
1772025093389937200,0.478937255859375,6.654850687664747,4.909281278055906,-1.4195803826868534
1772025093399934000,0.488933837890625,5.664755946731567,4.562880746746063,-1.5557960486851632
1772025093409931300,0.49893115234375,3.9942058300107717,3.7162282620638605,-1.8507066312544047
1772025093419928000,0.508927978515625,1.9495926835507154,2.37198924382627,-1.7303509438194333
1772025093429925000,0.518925048828125,-0.34227146868109704,0.6043377662688494,-1.2275342545256018
1772025093439922200,0.528922119140625,-2.701785846337676,-1.5936206062972544,-0.5429501083701849
1772025093449919000,0.5389189453125,-5.0402527597904205,-4.582577965384721,0.41800650862306354
1772025093459916000,0.548916015625,-7.478533215647936,-6.789892195317149,1.997649589102715
1772025093469913000,0.5589130859375,-10.397498754620552,-8.09326787276864,4.611662021049857
1772025093479911200,0.5689111328125,-12.93148414852023,-8.113955856010318,5.58791119198203
1772025093489908000,0.578907958984375,-13.170046236401795,-5.24978690610826,3.3660791918754573
1772025093499905000,0.588905029296875,-11.662138750964402,-5.18756922712624,2.0514080672971904
1772025093509902000,0.598902099609375,-11.080222659862041,-6.471129027995467,1.889327599941194
1772025093519899100,0.608899169921875,-10.80849363091588,-6.716623545488715,2.5191484747737642
1772025093529896000,0.61889599609375,-10.234963090842962,-7.256553429254889,3.1692168956041336
1772025093539893200,0.628893310546875,-9.935936889648437,-7.810776626789569,3.164165457433462
1772025093549890000,0.63889013671875,-9.800839852416514,-7.771175853285193,2.6957179246008396
1772025093559887000,0.64888720703125,-9.038203037026523,-7.281981885021924,2.6224469366848466
1772025093569884200,0.65888427734375,-7.783458411753177,-6.213256090444326,2.084259512671828
1772025093579882200,0.66888232421875,-6.335239963603019,-4.889095691378414,1.1655671162385493
1772025093589879000,0.678879150390625,-4.868271806797385,-3.7430455418407913,0.27742943254485725
1772025093599875800,0.688875732421875,-4.048523111131787,-2.923189294147491,-0.810892458384484
1772025093609873000,0.698872802734375,-3.5719629989922046,-2.5061940083935856,-1.8228231835506856
1772025093619870000,0.708869873046875,-2.5848966659694907,-1.910316319695115,-2.651464064593613
1772025093629866800,0.71886669921875,-1.3238783672541379,-0.8538897424593568,-3.1191335987910627
1772025093639864000,0.728864013671875,-0.05681318958997726,0.2043102741897106,-3.1168624389886856
1772025093649860900,0.73886083984375,1.3123837442934512,1.0196563509821892,-2.43570709823817
1772025093659858000,0.74885791015625,2.6513030288130044,1.6299048025995493,-1.4711216232232749
1772025093669855000,0.75885498046875,3.7277579563379284,1.8407669826507567,-0.6886378054603934
1772025093679853000,0.76885302734375,4.555402373689413,1.571442969019711,-0.09059285572543739
1772025093689849900,0.778849853515625,5.372329582193493,1.1395889906994998,0.3768108671426773
1772025093699847000,0.788846923828125,6.073221012288331,0.7694219454854726,0.6678006230063736
1772025093709844000,0.798843994140625,6.585071048995852,0.45021044987440106,0.8731606985099614
1772025093719841000,0.808841064453125,6.7799640910208225,0.2026123842306435,0.8957060000561177
1772025093729837800,0.818837890625,7.240306058809161,0.16755203063488006,0.709507867270708
1772025093739835100,0.828835205078125,7.934515234661101,0.3392607425577938,0.32231340714916584
1772025093749832000,0.83883203125,8.336661034068465,0.624088760921359,-0.05279460159838199
1772025093759829000,0.8488291015625,8.704631592151522,0.9399445163637399,-0.3697409287564456
1772025093769826000,0.858825927734375,8.996318536499142,1.2295634222656489,-0.7059769166655838
1772025093779824000,0.86882421875,9.071194037002325,1.5002058250188826,-0.9797359901346265
1772025093789821000,0.878821044921875,8.913446192023157,1.807304858031869,-0.9746298261020332
1772025093799818000,0.88881787109375,8.73969764483571,2.060383839304745,-0.8361747106138616
1772025093809815000,0.89881494140625,8.616165373191237,1.988834560614824,-0.6271238177683204
1772025093819811800,0.908811767578125,8.277154952132701,1.712877392579615,-0.5225754288613796
1772025093829809000,0.918808837890625,7.70428316822946,2.236833462144434,-0.8933992574837059
1772025093839806000,0.928805908203125,7.152731235730648,2.9037068873032927,-1.0530497942790389
1772025093849803000,0.938802978515625,6.406226055452227,3.3952743066996334,-1.1194479738160967
1772025093859799800,0.9487998046875,4.966261640906334,2.881947183176875,-1.1378300912681967
1772025093869796900,0.958796875,3.0354777027219533,1.371639358599484,-1.3154589139550923
1772025093879795000,0.968794921875,0.6750672530084848,-0.09536123917102814,-1.6620537987932562
1772025093889792000,0.9787919921875,-1.7638661137998104,-1.1474398503303527,-1.4935878681838513
1772025093899788800,0.988788818359375,-4.110494706398248,-1.9840368049442767,-0.9146472857609391
1772025093909786000,0.9987861328125,-7.216619478273391,-3.202679312483966,-0.0010660217963159083
1772025093919783000,1.008782958984375,-9.369349300581217,-4.528292832967638,1.1034819045297801
1772025093929780000,1.018780029296875,-12.022858899527787,-4.942277538728714,2.9402403821915386
1772025093939777000,1.028777099609375,-13.361167358672619,-4.377660957473516,4.091053508347272
1772025093949774000,1.038774169921875,-12.876136939829587,-2.425188334572315,2.19405873477906
1772025093959771000,1.04877099609375,-11.710652898764609,-2.454732116703689,1.2040048373129217
1772025093969768000,1.058767822265625,-10.723870058858394,-4.021284683333337,2.3532604318283497
1772025093979766000,1.06876611328125,-10.323002608823776,-5.033022808536887,3.502492864663899
1772025093989763000,1.07876318359375,-9.724246442079544,-5.4210541578739875,4.006489265261591
1772025093999760000,1.088759765625,-8.774055841511487,-5.3570542716503144,4.069479097659886
1772025094009757000,1.0987568359375,-7.269729137170314,-4.7864656302481885,3.71375836481899
1772025094019754000,1.10875390625,-5.4971004557222125,-4.01315719871819,3.0748046277210115
1772025094029750800,1.118750732421875,-4.0962434782058,-2.713271993730962,2.097382759747654
1772025094039747800,1.128747802734375,-2.8225860626697536,-1.0898173901841044,1.1355654342718422
1772025094049745000,1.138744873046875,-1.6990759539812803,0.06603226883411407,0.11817680902592836
1772025094059742000,1.148741943359375,-1.0256810180991887,0.3861757845982909,-0.982415146216005
1772025094069738800,1.15873876953125,-0.46526598018705845,0.4662643435746431,-1.8783327431961894
1772025094079736800,1.16873681640625,0.08653203602731227,0.6748775756552815,-2.2317478294432163
1772025094089734000,1.17873388671875,0.9690876087397337,0.8108540260702372,-2.0414492756016553
1772025094099731000,1.18873095703125,1.9706430703639983,0.8143962287217378,-1.5542286532379685
1772025094109727700,1.198727783203125,2.8685236379802226,0.8704369726344943,-0.9991679819658398
1772025094119725000,1.20872509765625,3.698835228714347,0.9806003518790006,-0.41474754335973407
1772025094129721900,1.218721923828125,4.631718720650673,1.0874915775850416,0.14503354403041302
1772025094139719000,1.228718994140625,5.5668269028991455,1.120498505782336,0.5227735087167471
1772025094149716000,1.238716064453125,6.338842372009157,1.0533863327570259,0.8024508663188665
1772025094159713000,1.248713134765625,6.810493084797263,0.8336924653440714,1.055195135744661
1772025094169709800,1.258709716796875,7.193106500738859,0.5092420461662114,1.2042491674628109
1772025094179708000,1.2687080078125,7.657552981236576,0.2360778698503971,1.1570260823864489
1772025094189705000,1.278705078125,8.041087019154428,-0.04920753689184785,0.8032122060801833
1772025094199702000,1.288701904296875,8.34202285336256,-0.1844037967145443,0.44371217389628287
1772025094209698800,1.29869873046875,8.611822375550865,-0.17570026577711104,0.3049098524056375
1772025094219696000,1.308696044921875,8.750694255146383,-0.10801321547329425,0.2907720214597881
1772025094229693000,1.31869287109375,8.656719501897692,-0.053043900184333324,0.24833456322476266
1772025094239689700,1.328689697265625,8.533287183496356,0.19971739344149828,-0.02109174173697829
1772025094249687000,1.33868701171875,8.609137666511534,0.6662059011608362,-0.41572402370907363
1772025094259683800,1.348683837890625,8.626963246059416,1.275024612236023,-0.9224582517728209
1772025094269681000,1.358680908203125,8.451586220887302,1.7758248471409082,-1.161638252357021
1772025094279678000,1.368677978515625,8.143478887614608,1.94801739705801,-1.0628271649930625
1772025094289676000,1.378676025390625,7.925133073809742,2.0093544938132166,-1.2549427781939506
1772025094299672800,1.3886728515625,7.327070150026679,2.102335559849441,-1.4210783661596476
1772025094309670000,1.398669921875,6.200408299309015,2.2624393203049897,-1.3718262594737112
1772025094319667000,1.4086669921875,4.44292750263214,2.4713933286473155,-1.4092965968206523
1772025094329664000,1.4186640625,2.1833318813204765,2.5551713897913695,-2.42968301564306
1772025094339660800,1.428660888671875,-1.1734925754755734,2.007220112133026,-1.8423337935760615
1772025094349658000,1.438658203125,-4.40479037193954,1.4866563153550028,-0.5780011096157133
1772025094359655000,1.448655029296875,-7.493174904462695,0.5767310896798968,-0.6859486394416541
1772025094369652000,1.45865185546875,-9.484850241461396,-1.43393770160228,-0.8276138760827482
1772025094379649000,1.46864892578125,-12.21116262629032,-3.8056352690055966,1.3313010646007954
1772025094389647000,1.478647216796875,-15.257639277410506,-4.3283126969367265,2.281711591529846
1772025094399644000,1.488643798828125,-15.998892528510092,-2.2962802151083945,-0.30225458865649996
1772025094409641000,1.498640869140625,-15.331292542642354,-1.3282529290765523,-1.3800079584941267
1772025094419638000,1.508637939453125,-13.717763120782374,-2.1370313179165126,-0.29019400237612425
1772025094429635000,1.518635009765625,-13.199653439158201,-2.4307681805312633,0.03434811367318034
1772025094439632000,1.5286318359375,-12.70649115178585,-2.485821959233284,0.32555392344035206
1772025094449629000,1.53862890625,-11.598019037753343,-2.696759250347316,1.1791850149635226
1772025094459626000,1.5486259765625,-10.830426061260699,-2.7322338838323947,1.5123331929251551
1772025094469622800,1.558622802734375,-9.996196420300006,-2.676771816590428,1.6125906797051428
1772025094479620000,1.5686201171875,-8.60433523466587,-2.2830761578813195,1.6091434618607163
1772025094489617000,1.578616943359375,-6.652413231384754,-1.3894443337507545,1.1632081320222467
1772025094499615000,1.588614990234375,-4.231622254988551,-0.4850453241512179,0.5153515420224517
1772025094509611800,1.59861181640625,-2.0126205098718404,0.2904245231963694,0.07883329821825028
1772025094519609000,1.608609130859375,-0.33271862743794917,0.7398714413523674,-0.0493415750676766
1772025094529606000,1.61860595703125,0.7857534870833158,0.5791014720730483,-0.20563922123853115
1772025094539603000,1.62860302734375,1.593310225173831,0.01977963622510433,-0.4031120871562511
1772025094549600000,1.63860009765625,2.301855969414115,-0.6057167995370925,-0.44774493654370306
1772025094559597000,1.64859716796875,3.291588891297579,-1.1172925493478774,-0.3331658597487956
1772025094569593900,1.65859375,4.387317843613029,-1.4728507851034403,-0.1214196177389007
1772025094579591000,1.6685908203125,5.217593193989992,-1.6253797263905405,0.4304001993153244
1772025094589588500,1.67858837890625,5.71553394781053,-1.444154267451167,0.9973884781379252
1772025094599585500,1.68858544921875,6.10526450228095,-1.3089097845725715,1.3673057133093476
1772025094609583400,1.698583251953125,6.736815269646048,-1.2316557183697818,1.6770407939143477
1772025094619580400,1.708580322265625,7.2601651900112625,-1.0185453210003674,2.007827722637355
1772025094629577500,1.718577392578125,7.578276615425944,-0.8153913772389292,2.2021026327639817
1772025094639574500,1.728574462890625,7.725725184708833,-0.6376365170195698,2.2902083478488025
1772025094649571300,1.7385712890625,7.691990672889351,-0.3544640107780695,2.315483951141685
1772025094659568600,1.748568603515625,7.713786325111985,0.03048310880810022,2.1935499084740875
1772025094669565400,1.7585654296875,7.814874125236273,0.44431876148730515,1.8090186762124298
1772025094679562500,1.7685625,8.030465087375044,0.837478998145461,1.3268120826184748
1772025094689559600,1.7785595703125,8.068588774064184,1.2150249015644192,0.9856433875475078
1772025094699556600,1.788556640625,7.964863611173629,1.5329598013684154,0.7002648226290941
1772025094709554400,1.798554443359375,7.891642892140149,1.8639745474979281,0.4258365081289783
1772025094719551500,1.808551513671875,7.812997809970378,2.264229418592155,0.2436632104128599
1772025094729548500,1.818548583984375,7.745412466475367,2.5434397432044147,0.20261541643794626
1772025094739545600,1.828545654296875,7.423112357199192,2.7562153556615114,0.20720345661425962
1772025094749542400,1.83854248046875,6.865167508792877,2.948072975513339,0.09434722155658527
1772025094759539500,1.84853955078125,6.2120765252709385,3.0587618399366736,-0.11403477731775492
1772025094769536500,1.85853662109375,5.171911054745316,3.094683048145473,-0.44200876751188184
1772025094779533300,1.868533203125,3.546380229446292,2.9147572736278176,-0.8251398871846497
1772025094789530600,1.878530517578125,1.5595137540340422,2.335901154617965,-0.7671266741551458
1772025094799527400,1.88852734375,-1.0647574754685163,1.2653630499213933,-0.6946485171172767
1772025094809524500,1.8985244140625,-4.297342389133572,-0.24591829586327074,-0.46545974919348954
1772025094819522300,1.908522216796875,-7.267875618258119,-1.8282269422903656,-0.10602817913591861
1772025094829519600,1.91851953125,-10.38875430715084,-3.076053458738327,1.0507345030739903
1772025094839516400,1.928516357421875,-13.582219508826732,-3.569236496637761,1.8243810805171727
1772025094849513500,1.938513427734375,-15.208774416476487,-1.9849284930869935,-0.05204071449115872
1772025094859510500,1.948510498046875,-15.220437966263294,0.438157023987174,-2.7493454698920248
1772025094869507600,1.958507568359375,-13.847851974463461,0.5841834515124559,-2.3572250976756215
1772025094879504400,1.96850439453125,-13.367176243698596,-0.6791863787651061,-0.9174550366580486
1772025094889501700,1.978501708984375,-14.061110109740495,-1.7427759794980286,0.22495156874544917
1772025094899498500,1.98849853515625,-13.820245005613565,-2.1961182976573705,1.1153536902397871
1772025094909495300,1.998495361328125,-12.793872498118876,-2.5719962678641077,1.9351959094077347
1772025094919492600,2.00849267578125,-12.19982523971796,-2.556733524541557,1.8356775505572556
1772025094929490700,2.01849072265625,-11.141561217921971,-2.234709601858258,1.285283848182857
1772025094939487500,2.028487548828125,-9.258575972744822,-1.441272866795957,0.16988098503910004
1772025094949484500,2.038484619140625,-6.678326840320229,-0.31226942138820885,-0.7466843362376093
1772025094959481600,2.048481689453125,-3.978745810550451,0.5361684854060411,-0.7771889262251556
1772025094969478400,2.058478515625,-1.877186203509569,0.9637526774525642,-0.3749066044239327
1772025094979475500,2.068475341796875,-0.1545218686699867,1.1054834536105393,-0.2357667215419933
1772025094989472500,2.078472412109375,1.3471674729049206,1.0404019096300006,-0.275948802065663
1772025094999469600,2.088469482421875,2.5251760645002124,0.9639017305344343,-0.3787660928636789
1772025095009466400,2.09846630859375,3.5113246981561184,1.069345972302556,-0.557637864816375
1772025095019463400,2.10846337890625,4.42332789914906,1.4065411606326699,-0.6208817815735935
1772025095029460500,2.11846044921875,5.3690702881366015,1.712871839621663,-0.8091209917325526
1772025095039457500,2.12845751953125,6.087296299391984,2.0156337202131747,-0.6998299383431673
1772025095049455400,2.138455322265625,6.765449827978014,2.221949196745455,-0.30376555947503076
1772025095059452400,2.148452392578125,7.4383046656340355,2.2238524000182744,-0.03869291967814788
1772025095069449500,2.158449462890625,8.011741097682714,2.1956498033627865,0.349079504728131
1772025095079446500,2.168446533203125,8.399773031541704,2.1936361254528163,0.7759289162266999
1772025095089443300,2.178443359375,8.747890888163447,2.0683280763074756,0.973087492030859
1772025095099440600,2.188440673828125,9.078923754471539,1.858368398053944,1.0728569030329584
1772025095109437400,2.1984375,9.355463983091711,1.7528572285294532,1.0978690330840646
1772025095119434200,2.208434326171875,9.503569554978608,1.7729177275225518,1.1221876279130578
1772025095129431600,2.218431640625,9.601339608857035,1.8529232843905685,1.031332248793915
1772025095139428400,2.228428466796875,9.607250878727436,1.8736907626092434,0.8680489815194159
1772025095149425400,2.23842529296875,9.53754547433853,1.8877374081403016,0.6331040612217038
1772025095159423500,2.248423583984375,9.474531676542759,2.1367361343622204,0.4431301362246275
1772025095169420500,2.258420654296875,9.22021555469036,2.4122835525527595,0.2983561564458534
1772025095179417300,2.268417236328125,8.975777852773666,2.527760235774517,0.009557955809682607
1772025095189414400,2.278414306640625,8.680307298234105,2.529502403266728,-0.33113574216067787
1772025095199411500,2.288411376953125,8.317117544686793,2.513735217553377,-0.37196295218747105
1772025095209408500,2.298408447265625,7.368909057846665,2.455088675056398,-0.5527150214614346
1772025095219405300,2.3084052734375,5.782522494456171,2.4169930454179642,-0.7580953725680708
1772025095229402600,2.318402587890625,3.9358530097633597,1.9698413985922931,-0.8599652629807591
1772025095239399400,2.3283994140625,1.2446522703260183,1.0092293572530149,-1.3516878729388118
1772025095249396500,2.338396484375,-1.2912474327623844,-0.3691249888151884,-0.9450107867773622
1772025095259393500,2.3483935546875,-3.865174376428127,-2.2826059100210667,-0.011771467140689492
1772025095269391600,2.3583916015625,-7.758554272121191,-4.280141078963876,0.5699674407638609
1772025095279388400,2.368388427734375,-11.728623439741133,-6.5342848646104335,1.8534972848862408
1772025095289385500,2.378385498046875,-15.09688757444024,-8.036936329215765,2.883628852653503
1772025095299382500,2.388382568359375,-16.6774043690145,-6.9524968326777215,1.2158119602888822
1772025095309379600,2.398379638671875,-16.034322738331554,-5.100626856732368,-1.2735761669933796
1772025095319376400,2.40837646484375,-14.825741898339986,-4.857263506048917,-1.3888900608688592
1772025095329373400,2.41837353515625,-14.70510476361513,-4.8957343987405295,-0.2742976373251527
1772025095339370500,2.42837060546875,-14.234928215032815,-4.988808988279104,0.6440981873143464
1772025095349367300,2.4383671875,-12.753963681578636,-4.938660517275333,0.9974660003535449
1772025095359364600,2.448364501953125,-11.018013164186478,-4.988265382921695,1.646583842460811
1772025095369361400,2.458361328125,-9.774361595335602,-4.935891052561998,2.217247594925761
1772025095379358500,2.4683583984375,-8.48463801113963,-4.624842697401345,2.5929452401295303
1772025095389356300,2.478356201171875,-6.906718247321248,-4.064008557294309,2.486957685264945
1772025095399353600,2.488353515625,-5.172209160909056,-3.0324446186363696,2.0239406530484554
1772025095409350400,2.498350341796875,-3.357696563455462,-1.688738684362173,1.4258619471743703
1772025095419347500,2.508347412109375,-1.6685808624744414,-0.5428270665124059,0.5333588348127901
1772025095429344500,2.518344482421875,-0.23899814121127128,0.31641455836892124,-0.47032041403241454
1772025095439341600,2.528341552734375,0.9555319615960121,0.9926765741199255,-1.4519187639728188
1772025095449338400,2.53833837890625,1.8349556660234927,1.444387491685152,-2.386809796339273
1772025095459335700,2.548335693359375,2.732054727873206,1.7352713029563427,-2.9225290766730905
1772025095469332500,2.55833251953125,3.684073712912202,1.9993433874085544,-2.8868942841902374
1772025095479329500,2.56832958984375,4.7292111266314985,2.364324700547755,-2.6015365428641437
1772025095489326600,2.57832666015625,5.79185029477179,2.5336744282543657,-2.1294687737077473
1772025095499323400,2.588323486328125,6.79792937130034,2.362529926085472,-1.415212104474753
1772025095509321500,2.598321533203125,7.6299945277035235,2.2554884782537816,-0.6394945659764111
1772025095519318500,2.608318603515625,8.259130050620437,2.148249754284322,0.0273660727661103
1772025095529315600,2.618315673828125,8.711814197131991,1.901474257069826,0.5962218259610236
1772025095539312400,2.6283125,9.118832571011781,1.7500398330211637,0.974125822102651
1772025095549309400,2.638309326171875,9.328933703562617,1.7488357179284095,1.0809348494179547
1772025095559306500,2.648306396484375,9.445337730762361,1.8550959522545336,0.9324986573372036
1772025095569303600,2.658303466796875,9.507914306184649,2.0543013045206666,0.654044996311143
1772025095579300400,2.66830029296875,9.47902548083067,2.3248349862024185,0.3371938000906259
1772025095589296600,2.678296630859375,9.386448903942108,2.605111478741467,0.012036401687189936
1772025095599293400,2.68829345703125,9.30902839513123,2.9396883012667296,-0.27649047119431197
1772025095609290200,2.698290283203125,9.118507576841115,3.2916824147999284,-0.5916246343638748
1772025095619288300,2.708288330078125,8.884234710586071,3.497913427919149,-0.8785635804668068
1772025095629285600,2.71828564453125,8.76095904405117,3.6650247290492057,-0.9682003045111894
1772025095639282400,2.728282470703125,8.621118611684441,3.861407132849097,-0.9749776896916329
1772025095649279200,2.738279296875,8.322455983105302,3.8026822644189,-0.9890420170098543
1772025095659276500,2.748276611328125,7.9205036604434245,3.575419569186866,-0.8787641445402056
1772025095669273300,2.7582734375,7.399138191893696,3.429600646932423,-0.6604619506813585
1772025095679270400,2.7682705078125,6.389712727546692,3.2597111132606864,-0.5016266027264297
1772025095689267500,2.778267333984375,4.453620746082067,2.692049757482111,-0.21586006140373645
1772025095699264500,2.788264404296875,1.9022715449273586,1.1512526866167783,0.1332105658981949
1772025095709261300,2.79826123046875,-1.1472726770699024,-1.1435834671631455,0.5421736441049725
1772025095719258600,2.808258544921875,-4.572838661658763,-3.8522494284033773,0.9881641381967812
1772025095729255400,2.81825537109375,-9.087424456313252,-6.4177499045073985,1.5112405753828584
1772025095739252500,2.82825244140625,-13.976962338501215,-7.714934910625219,2.5681477757424114
1772025095749250300,2.838250244140625,-17.51576424164772,-7.848993836981058,2.4811019449740646
1772025095759247600,2.84824755859375,-18.761259977060554,-5.928864563801884,-0.10231496729906647
1772025095769244400,2.858244384765625,-17.726966028916834,-4.219413930800557,-1.679070107784867
1772025095779241500,2.868241455078125,-17.411714669108388,-4.318380208726227,-1.0121635110087692
1772025095789238500,2.878238525390625,-17.781724039542674,-4.387730223806202,-0.002562324768677354
1772025095799235600,2.888235595703125,-17.300082678616047,-4.0885707516208285,0.4112164831567555
1772025095809232400,2.898232421875,-15.837753872048854,-3.8899046207979318,0.400874245101586
1772025095819229400,2.9082294921875,-14.546304194712638,-3.704924193239212,0.8551567667204886
1772025095829226500,2.9182265625,-13.106135782027243,-3.461782960873842,1.1036320535901933
1772025095839223300,2.928223388671875,-11.309252364766596,-3.2500697169512507,0.9745221279438584
1772025095849220600,2.938220703125,-9.196683872455358,-2.6456454414427277,0.6022585488419979
1772025095859217400,2.948217529296875,-6.832783827060461,-1.7642432765491305,0.21149010269120333
1772025095869215500,2.958215576171875,-4.51437712033987,-0.8470968674488365,-0.23246304035410284
1772025095879212300,2.96821240234375,-2.3760510864377022,-0.06363865169584751,-0.6788585350502282
1772025095889209600,2.978209716796875,-0.5538222155183553,0.4127770835369825,-1.08972781220451
1772025095899206400,2.988206298828125,1.0391729523569344,0.7840043053284287,-1.5708359430372714
1772025095909203500,2.998203369140625,2.384946925076842,1.0827192486166954,-2.007328540943563
1772025095919200500,3.008200439453125,3.583275251123309,1.3843885116659105,-2.2528718660146
1772025095929197600,3.018197509765625,4.660392441949248,1.7019168764956294,-2.4076810271933673
1772025095939194400,3.0281943359375,5.8032128157854075,1.9391504922524094,-2.43044757027477
1772025095949191700,3.038191650390625,6.877088832733035,2.0866203965842725,-2.4010304832629856
1772025095959188500,3.0481884765625,7.86085203255713,2.406595862305164,-2.1484183888494965
1772025095969185300,3.058185302734375,8.589933199825882,2.502457159952819,-1.5683838737100362
1772025095979182600,3.0681826171875,9.065058895248175,2.3825647061154247,-0.944352615129575
1772025095989180700,3.0781806640625,9.50567324925959,2.328401738773286,-0.43110257543101904
1772025095999177500,3.088177490234375,9.890007497644424,2.3063436362221834,0.03156564334779978
1772025096009174500,3.098174560546875,10.100526563346385,2.320587265630066,0.38167306635156273
1772025096019171600,3.108171630859375,10.26736080110073,2.36904266898036,0.656819648656249
1772025096029168400,3.11816845703125,10.37551371730566,2.5076462530285117,0.812265938694775
1772025096039165400,3.12816552734375,10.352642544806002,2.774011416853964,0.7132439850591122
1772025096049162500,3.13816259765625,10.325892485046387,3.1776296269014477,0.381406305174157
1772025096059159600,3.14815966796875,10.242307023864983,3.629867198689282,0.015116978176310657
1772025096069156400,3.15815625,10.063785855448245,4.00759839554727,-0.2630097889829427
1772025096079153700,3.168153564453125,9.76951707791388,4.317316378886997,-0.4802580168094486
1772025096089150500,3.178150390625,9.396295759695768,4.508101108810306,-0.5866556137796491
1772025096099147500,3.1881474609375,8.98500453080237,4.601153486517071,-0.5309975125089288
1772025096109145300,3.198145263671875,8.471985450315476,4.533052010193467,-0.4503676131974905
1772025096119142700,3.208142578125,7.665598925048112,4.305349754500389,-0.34429048035331067
1772025096129139500,3.218139404296875,6.438477050715685,3.9232700070440765,-0.13965776927620172
1772025096139136500,3.228136474609375,4.783764554595947,3.2310008593440056,-0.002634988146089017
1772025096149133600,3.238133544921875,2.7939947589576244,2.1505191605210303,-0.14474679951090363
1772025096159130600,3.248130615234375,0.414454661360383,1.2374550522983074,-0.2606930364731699
1772025096169127400,3.25812744140625,-2.4188141233652827,-0.21456103456914424,-0.6655480948392302
1772025096179124500,3.26812451171875,-5.936506018465757,-3.326025998428464,-0.997385263267532
1772025096189121500,3.27812158203125,-7.932107588997483,-5.823597432166338,-1.5478516655519603
1772025096199118300,3.288118408203125,-9.78344974167645,-6.4651937927275895,-1.716438446062058
1772025096209115400,3.298115478515625,-12.355521997386216,-8.57848592313826,-0.38031303004473443
1772025096219112400,3.308112548828125,-13.361173203891514,-9.958172102332115,0.34957762697599826
1772025096229110500,3.318110595703125,-12.737716311132907,-7.82336372116208,-0.278562637825869
1772025096239107300,3.328107421875,-12.282352716279028,-8.52281605836451,1.0985349496468901
1772025096249104400,3.3381044921875,-13.090077796673773,-9.41503377791345,2.356457035912573
1772025096259101400,3.348101318359375,-13.972685976356267,-8.649943724152445,2.4689853907227515
1772025096269098500,3.358098388671875,-13.14663262758851,-7.415858440548181,1.3789521658308803
1772025096279095300,3.36809521484375,-11.91123275425434,-5.446065265011787,-0.7625389810387044
1772025096289092600,3.378092529296875,-10.315413176608086,-3.5822128825888035,-2.202565281839669
1772025096299089400,3.38808935546875,-8.374870060953498,-1.9763643706202505,-2.7474682778432964
1772025096309086500,3.39808642578125,-6.104571259319782,-0.26698738737702365,-2.726991599264741
1772025096319083500,3.40808349609375,-3.722674953985214,0.7939414697140454,-2.172144132351875
1772025096329080600,3.41808056640625,-1.8887860404103993,1.253302317510545,-1.3965667329765856
1772025096339077400,3.428077392578125,-0.6360439871311188,1.5346996307730674,-0.884800209834054
1772025096349074400,3.438074462890625,-0.024480361261963842,1.6841195001289246,-0.4401240862764418
1772025096359072500,3.448072509765625,0.4060942447721958,1.7524182525902985,-0.27973906119409947
1772025096369069600,3.458069580078125,1.2935142086505889,1.5721294899791478,-0.7240671384990215
1772025096379066400,3.46806640625,2.4731144533514975,1.357325002042949,-1.6994496095992624
1772025096389063400,3.4780634765625,3.5175276444494723,1.6085989797204732,-2.2177679655380547
1772025096399060500,3.488060546875,4.415101338073611,2.0010554520234463,-2.301173247846961
1772025096409057300,3.498057373046875,5.309720273545384,2.308325749950111,-1.9849970282785594
1772025096419054600,3.5080546875,6.077018066483736,2.4719527160957453,-1.4267634260587394
1772025096429051400,3.518051513671875,6.517275277620554,2.4218901698097586,-0.8580758690375834
1772025096439048400,3.52804833984375,6.995238242295384,2.2354420077860353,-0.3102269557751715
1772025096449045500,3.53804541015625,7.381281048163771,2.0247768116116522,0.09781820386908947
1772025096459042600,3.54804248046875,7.646736403667926,1.993432117538154,0.3204146608557552
1772025096469039400,3.558039306640625,7.939313574853539,2.1469120759397744,0.3090826811108738
1772025096479036700,3.56803662109375,8.180303182142973,2.3670737069949506,0.1384120800640434
1772025096489034500,3.578034423828125,8.424453299289942,2.584570210494101,-0.12141111477203667
1772025096499031600,3.588031494140625,8.642431448826194,2.8341087426811455,-0.4320702514193952
1772025096509028400,3.5980283203125,8.87983735240996,3.2031562823459505,-0.670219447651133
1772025096519025700,3.608025634765625,9.039504767274856,3.6302424617424607,-0.7491833865117281
1772025096529022500,3.6180224609375,9.16750921589732,3.922584947389364,-0.8150511854991316
1772025096539019500,3.62801953125,9.161639447081088,4.081073089341819,-0.8284316952716558
1772025096549016600,3.6380166015625,9.099836194118858,4.194715250612795,-0.7551213251933455
1772025096559013400,3.648013427734375,9.036684449157118,4.201205197153985,-0.6077662063475698
1772025096569010400,3.658010498046875,8.790217871761321,4.088369676090776,-0.4895199853472411
1772025096579007500,3.668007568359375,8.17881382036805,3.940325186741352,-0.1695734534598887
1772025096589004300,3.67800439453125,7.096265252143144,3.618238427954912,0.19335538412891326
1772025096599001300,3.68800146484375,5.108482830929756,2.8573651151061057,0.16617606610655783
1772025096608998400,3.697998291015625,2.446201311984658,1.9003548976510762,0.008152619056403637
1772025096618996500,3.70799658203125,-0.5395528671473264,0.19784604661166666,-0.06950359820649027
1772025096628993300,3.7179931640625,-3.5891409282863136,-2.870286555999517,0.15509937629699705
1772025096638990300,3.727990234375,-6.932462344908714,-5.676968947094679,0.7694421114906668
1772025096648987400,3.7379873046875,-10.187722031718492,-7.0618801674604414,1.4495939742870627
1772025096658984400,3.747984375,-12.978943818831443,-7.435376795488596,2.2913361828349528
1772025096668981200,3.757981201171875,-14.905640195441245,-7.707909542033076,3.0940684233784674
1772025096678978300,3.767978271484375,-15.013449412775039,-5.823768697080016,1.884547672188282
1772025096688975400,3.777975341796875,-14.418057754027842,-4.82192711199075,1.42874393235147
1772025096698972200,3.78797216796875,-14.417131871354579,-5.510990449386835,2.3881819614753126
1772025096708969500,3.797969482421875,-14.466540337646007,-5.565007286256551,3.067707070675492
1772025096718966300,3.80796630859375,-13.933706549620627,-5.328530187955498,3.187278621995449
1772025096728963300,3.81796337890625,-13.101956450515985,-4.610924938946962,2.869660240794718
1772025096738961200,3.827961181640625,-12.05286474621296,-3.291724208115041,2.315465100310743
1772025096748958500,3.83795849609375,-10.433002614200115,-2.3085648194029926,1.7505409144110977
1772025096758955300,3.847955322265625,-8.632537831321358,-1.5913076531797647,1.0930170630082487
1772025096768952300,3.857952392578125,-6.494924914124607,-0.7338882752895355,0.3609152327440679
1772025096778949400,3.867949462890625,-4.16136915358901,0.26483488551825285,-0.10383183813542127
1772025096788946400,3.877946533203125,-2.078572699207067,0.8468503453418612,-0.4100375755704939
1772025096798943200,3.887943115234375,-0.44418578275740145,0.88532766777426,-0.660448579743132
1772025096808940300,3.897940185546875,0.889244256696105,0.9748658998802304,-0.7329449300248175
1772025096818937300,3.907937255859375,1.972081578734517,0.9886737682193517,-0.8142485638793557
1772025096828934100,3.91793408203125,3.188431299161911,0.9392889750644564,-0.9722777100179344
1772025096838931200,3.92793115234375,4.373666919401288,1.2379308531165123,-1.1041135534968227
1772025096848928300,3.93792822265625,5.286354595527053,1.6013944551691413,-0.9436163367442786
1772025096858925300,3.94792529296875,5.867009872913361,1.6172916970029472,-0.6134259856749326
1772025096868923100,3.957923095703125,6.657802523207664,1.350836809067428,-0.4013329486545175
1772025096878920200,3.967920166015625,7.396782568678259,1.2227943665221332,-0.07675977987982333
1772025096888917200,3.977917236328125,7.704965889796614,1.1824804763123393,0.45699704127460716
1772025096898914300,3.987914306640625,7.995469177317619,1.0978224174633622,0.7866619802303612
1772025096908911000,3.9979111328125,8.269991636374593,1.1967784662559628,0.9037787588093429
1772025096918908400,4.007908447265625,8.376053717780113,1.3911319945767522,0.8840309790272265
1772025096928905200,4.0179052734375,8.587900817215441,1.590941157954931,0.7148177371818571
1772025096938902300,4.02790234375,8.88300487653017,1.9145693009644746,0.38434381993077693
1772025096948899300,4.0378994140625,9.02164996163249,2.2694591359391807,0.03514043309465051
1772025096958896400,4.047896484375,9.084410076928139,2.6498931620150805,-0.2844542166151106
1772025096968893200,4.05789306640625,9.13901435829699,3.016916210114956,-0.51855326067321
1772025096978890500,4.067890380859375,9.150387400704622,3.315949425572157,-0.5033963158126921
1772025096988887300,4.07788720703125,9.061815967804193,3.5556048616483804,-0.41358511198423803
1772025096998885400,4.087885498046875,8.866230267339944,3.685481241622567,-0.3227539174582809
1772025097008882200,4.097882080078125,8.596101074805855,3.601584230273962,-0.23198183270841835
1772025097018879500,4.10787939453125,8.314623974305391,3.6240555898010727,-0.14759798769094049
1772025097028876300,4.117876220703125,7.559165672242641,3.7632846122711894,0.0008150427099317312
1772025097038873000,4.127873046875,6.343447819977999,3.6420027499020096,0.06902640914879739
1772025097048870400,4.137870361328125,4.646432305657863,3.0763153245449066,0.04553995429500937
1772025097058867200,4.1478671875,2.0811901882290837,2.2325988933146,-0.2913751749847084
1772025097068864300,4.1578642578125,-0.6417220327675343,1.3057722171992063,-0.8442819561585784
1772025097078861300,4.167861328125,-2.551225867035985,-0.3272533477693796,-1.242189095082879
1772025097088858400,4.1778583984375,-4.37877330262959,-3.196385473036766,-0.7624594129964709
1772025097098855200,4.187855224609375,-6.904684695667028,-6.1824196381539105,0.3747005969904363
1772025097108852500,4.1978525390625,-10.105137272012232,-7.374134683540463,2.1441779748007654
1772025097118849300,4.207849365234375,-12.500856350994109,-7.381715347927808,4.572423651117086
1772025097128847400,4.217847412109375,-13.659876749002933,-7.585450452578067,5.602623023423552
1772025097138844200,4.22784423828125,-14.242327093112468,-5.498781540676951,3.670292732580006
1772025097148841500,4.237841552734375,-13.613970737874507,-4.372701873761415,2.64442905139029
1772025097158838300,4.24783837890625,-13.512467342686652,-5.0044326738685365,3.0239024157404897
1772025097168835300,4.25783544921875,-13.519074778127669,-4.9911266175717115,3.4975229672968386
1772025097178832400,4.267832275390625,-12.594426615095138,-4.852942720240354,3.74226462059617
1772025097188829400,4.277829345703125,-11.601763484978676,-4.769661210441589,3.7625907847881317
1772025097198826200,4.287826171875,-10.75394254103899,-4.258103726939857,3.4882241008147594
1772025097208823300,4.2978232421875,-9.38101928010881,-3.411962991172075,3.0094521578446027
1772025097218820400,4.3078203125,-7.622674560078978,-2.3635206906884907,1.9172937574923037
1772025097228817200,4.317817138671875,-5.616456318464875,-1.3159855681777,0.37395357801541684
1772025097238814500,4.327814453125,-3.4729642801016567,-0.3115364309385419,-0.6289844970736652
1772025097248811300,4.337811279296875,-1.7154700394213198,0.5531149440318346,-1.207762436280772
1772025097258809300,4.347809326171875,-0.35847324641942974,0.9024740328863262,-1.687218927448988
1772025097268806100,4.35780615234375,0.8260574404209852,0.9180503722026944,-2.027683346708119
1772025097278803500,4.367803466796875,1.9332155492454766,1.1973644494503737,-2.0529859841383993
1772025097288800300,4.37780029296875,2.939301640036702,1.6676090948328375,-2.031337631431967
1772025097298797300,4.38779736328125,3.996305432638526,2.3213696481794117,-2.0400388242818415
1772025097308794400,4.39779443359375,5.097469854006171,3.044931759765744,-1.9322233233377337
1772025097318791400,4.40779150390625,6.1379568115711205,3.475233101816475,-1.5826222424209118
1772025097328788200,4.417788330078125,6.923534357565641,3.5476334443777797,-1.1366739800356327
1772025097338785500,4.42778564453125,7.508492300581931,3.479690665747225,-0.6673048753786832
1772025097348782300,4.4377822265625,7.953751265528798,3.451965915736556,-0.29895138239264485
1772025097358779100,4.447779052734375,8.365883036899566,3.469258119060099,0.04379420660622418
1772025097368776400,4.4577763671875,8.634521698614954,3.39750922614485,0.3930211204484105
1772025097378773200,4.467773193359375,8.682828341144322,3.194133894717693,0.6489703233953565
1772025097388771300,4.477771240234375,8.603650175011158,3.0489804506346583,0.699966058878228
1772025097398768000,4.48776806640625,8.547927118745445,3.0438498097479343,0.6732996588140726
1772025097408765400,4.497765380859375,8.529991649082303,3.0635990508347746,0.46761173959560687
1772025097418762200,4.50776220703125,8.468598730486631,3.0158608558431266,0.1106396184541285
1772025097428759300,4.51775927734375,8.389380816864968,3.016224136197567,-0.3278669496230781
1772025097438756400,4.52775634765625,8.310079316613077,3.200504891054332,-0.6786899004850536
1772025097448753400,4.53775341796875,8.300185114586354,3.466777408160269,-0.8522996967889368
1772025097458750200,4.547750244140625,8.28780552548468,3.684102939006686,-0.7696662756353616
1772025097468747300,4.557747314453125,8.0722320990026,3.7661750730156895,-0.507736427376233
1772025097478744300,4.567744384765625,7.66450236198306,3.724383511468768,-0.13386625332795082
1772025097488741400,4.577741455078125,7.179476034793257,3.6645156104832886,0.0857362460071221
1772025097498738200,4.58773828125,6.310847865146398,3.552079317870736,0.24461331421192734
1772025097508735500,4.597735595703125,4.710284307843446,2.9817893671542404,0.11529869630634784
1772025097518733300,4.6077333984375,2.633774386385083,1.9909724494263528,-0.38740028489194805
1772025097528730400,4.61773046875,0.6070768358439207,0.39709348445385695,-0.7490938085321337
1772025097538727200,4.62772705078125,-1.6922750417947767,-1.9110624618873,-0.5336824042113497
1772025097548724500,4.637724365234375,-5.081801160231232,-4.146796146096289,0.6874464037187397
1772025097558721300,4.64772119140625,-9.531248420020937,-5.383827127763628,1.8042656364664433
1772025097568718000,4.657718017578125,-13.574433677256106,-5.653568197762966,2.530348790962994
1772025097578715400,4.66771533203125,-15.852873115247487,-6.758794461742043,3.0155683026373383
1772025097588712400,4.67771240234375,-16.142107405745982,-5.683542480266094,1.0421087135478853
1772025097598709500,4.68770947265625,-14.281532145297527,-3.729111709034443,-0.3183769079504534
1772025097608706600,4.69770654296875,-13.932268625771998,-5.283614941430091,1.295613372886926
1772025097618703600,4.70770361328125,-14.811644399404525,-6.382723599311709,3.2734143521815535
1772025097628700400,4.717700439453125,-14.43926771531701,-6.38992081733942,4.546331763005257
1772025097638697700,4.72769775390625,-13.167609949165582,-6.372772114139795,4.4735774924397465
1772025097648694500,4.737694580078125,-11.892225271445511,-6.1628586131155485,3.918008140993118
1772025097658692600,4.747692626953125,-10.424838012444972,-5.430483080476522,3.3220798911511897
1772025097668689400,4.757689453125,-9.080718236672878,-4.251692106331885,2.5603128443330525
1772025097678686700,4.767686767578125,-7.6139850576668975,-2.8253751088663934,1.350914842739701
1772025097688683500,4.77768359375,-5.475139383804798,-1.662242599363625,-0.1333571347620338
1772025097698680600,4.7876806640625,-3.171652013796568,-0.7816296851515769,-1.402920632047951
1772025097708677600,4.797677734375,-1.4861065725177525,-0.0601119388744235,-1.9936033824518322
1772025097718674700,4.8076748046875,-0.19265666127502917,0.27410131103545426,-2.220723015951365
1772025097728671500,4.81767138671875,1.222440438517928,0.5009010649308562,-2.377867780470848
1772025097738668500,4.82766845703125,2.6710435020714995,0.8546189335167408,-2.4807477247089147
1772025097748665600,4.83766552734375,4.059325660175085,1.2875243205860256,-2.503205640232563
1772025097758662400,4.847662353515625,5.409849457770585,1.5978934613108633,-2.2957274035312234
1772025097768659700,4.85765966796875,6.507768613606691,1.6681293193146585,-1.986914844598621
1772025097778656500,4.867656494140625,7.413276607361436,1.587432419181615,-1.7080984877400098
1772025097788654600,4.877654541015625,8.08774998613,1.361204473824799,-1.4206988653227686
1772025097798651400,4.8876513671875,8.507488725373149,1.2225335236288606,-1.1688080709211528
1772025097808648700,4.897648681640625,8.825770831179618,1.213667641736567,-0.9637950552895664
1772025097818645500,4.9076455078125,9.082584030544757,1.2287170345693825,-0.8152868939511477
1772025097828642600,4.917642578125,9.261703164854644,1.371999131822586,-0.7618767908029258
1772025097838639600,4.9276396484375,9.381311541053652,1.6621578436896205,-0.7510337636187672
1772025097848636700,4.93763671875,9.453656061774492,1.8696698365300892,-0.898441562499851
1772025097858633500,4.947633544921875,9.464701771923899,2.017328833693266,-1.0773816869810222
1772025097868630500,4.957630615234375,9.45873204986453,2.266673889134824,-1.2416916669547557
1772025097878627600,4.967627685546875,9.468967028152942,2.5405790930762886,-1.4579491301782428
1772025097888624600,4.977624755859375,9.378513434767722,2.67710382502377,-1.728116170504689
1772025097898621400,4.987621337890625,9.224712281587719,2.745695715212822,-1.88390791298002
1772025097908618500,4.997618408203125,9.0717621922791,2.8533836442545053,-1.9296004274882375
1772025097918616600,5.007616455078125,8.885771418634057,2.945655977499485,-1.9730378565460442
1772025097928613600,5.017613525390625,8.673675312873721,2.8513804877385494,-1.943123487536609
1772025097938610400,5.0276103515625,8.281619530326127,2.731174730168283,-1.7987874973163007
1772025097948607500,5.037607421875,7.598736050608753,2.6501243404224515,-1.4723495575830339
1772025097958604500,5.0476044921875,6.624619215530156,2.336135840156674,-1.3600833608403802
1772025097968601300,5.057601318359375,5.268201683720946,1.8934914416223763,-1.2420906031444667
1772025097978598700,5.0675986328125,3.2569542157679794,1.2630541884571314,-1.0597682888790965
1772025097988595500,5.077595458984375,0.5291700048208237,0.3800906194657087,-0.5712435981795192
1772025097998592500,5.087592529296875,-2.5673160010933875,-1.157612869298458,0.2529594465464353
1772025098008589600,5.097589599609375,-5.7236161319792265,-3.3866803736165165,1.1862491811960936
1772025098018586600,5.107586669921875,-9.542933012595773,-5.914994443881511,2.7627082248121497
1772025098028583400,5.11758349609375,-13.476529767864942,-7.791276976549625,4.6292485311448575
1772025098038580700,5.127580810546875,-15.984917779171466,-8.093985665649175,5.269364297759533
1772025098048577500,5.13757763671875,-16.67018552367687,-6.332000543290376,2.9279256750196216
1772025098058575600,5.14757568359375,-16.064971559095383,-4.808913901160657,1.008572208518535
1772025098068572400,5.157572509765625,-15.470603982698917,-5.230132357567548,1.2759782596990465
1772025098078569700,5.16756982421875,-15.247794759744405,-5.6487704420924185,1.9034440958380698
1772025098088566500,5.17756640625,-14.501202485704422,-5.796340007406473,2.6138687856927514
1772025098098563600,5.1875634765625,-13.225109367454051,-5.992945114046335,3.308274360899627
1772025098108560600,5.197560546875,-12.338550988841057,-6.305290231019258,4.0039726062655445
1772025098118557400,5.207557373046875,-11.520823569869995,-6.173273624145985,4.3788186030760405
1772025098128554500,5.217554443359375,-10.223203679466247,-5.60385694913268,3.7958477422237396
1772025098138551600,5.227551513671875,-8.3376564748466,-4.591648283807933,2.3376292935848233
1772025098148548600,5.237548583984375,-6.41866117413342,-3.1695430588185785,0.8589823894232511
1772025098158545400,5.24754541015625,-4.375205965536833,-1.5720853585764765,-0.289352436985448
1772025098168542700,5.257542724609375,-2.477598905289173,-0.2602539874687791,-1.1810714132320135
1772025098178539500,5.26753955078125,-0.7040776589155197,0.8525061791464685,-1.5941761943534016
1772025098188537600,5.27753759765625,0.8939718697398901,1.7493337305784225,-1.6619658282488583
1772025098198534400,5.287534423828125,2.3484113843619823,2.237975910177827,-1.5293445334807036
1772025098208531700,5.29753173828125,3.801704067036509,2.4616245065659283,-1.2970000049397348
1772025098218528500,5.307528564453125,5.178342549097538,2.6697417718231677,-1.1733214566923678
1772025098228525600,5.317525634765625,6.372885511386394,2.7291315339028834,-1.0568494788229466
1772025098238521600,5.327521484375,7.314269705164432,2.6046488296657797,-0.777665603826195
1772025098248518400,5.337518310546875,7.9990382679760454,2.4363982953727246,-0.3400724973320961
1772025098258515700,5.347515625,8.462852295789123,2.231128820762038,-0.014380115269124506
1772025098268512500,5.357512451171875,8.843154512178897,2.043526520267129,0.11457929599061607
1772025098278509600,5.367509521484375,9.288013664153217,1.9689210688769816,0.16545885774791239
1772025098288506600,5.377506591796875,9.472175468805432,2.1369714044228196,0.164385383297503
1772025098298503700,5.387503662109375,9.44314051297903,2.3363971214413644,-0.05947027997002005
1772025098308500500,5.39750048828125,9.517208788752555,2.6023729936882853,-0.38905075551271434
1772025098318497500,5.40749755859375,9.66981284110248,2.9771719364866613,-0.7565319226436317
1772025098328494600,5.41749462890625,9.670143095970154,3.407584337696433,-0.9944606810577213
1772025098338491400,5.427491455078125,9.582302899953723,3.8368680271372195,-1.178232463479042
1772025098348488400,5.437488525390625,9.488896301981805,4.251684215286374,-1.377552235905081
1772025098358486500,5.447486572265625,9.454619353848695,4.502680252805352,-1.4725737217277288
1772025098368483600,5.457483642578125,9.295195684611796,4.665224392150342,-1.5248165346622466
1772025098378480600,5.467480712890625,9.21589184627235,4.825706922790408,-1.662906616230309
1772025098388477400,5.4774775390625,9.138358524736761,4.9700832450211045,-1.6066696190930903
1772025098398474500,5.487474609375,8.741289882463215,5.131219563394785,-1.430370364509523
1772025098408471600,5.497471435546875,8.200204398921132,5.290913281744718,-1.3141899169325828
1772025098418468400,5.50746826171875,7.471294496566057,5.311459226167202,-1.2372295729793608
1772025098428465700,5.517465576171875,6.3972898848026984,5.1359711418360465,-1.1955547696799038
1772025098438462500,5.52746240234375,4.899710316634178,4.801442834627628,-1.2042768591873347
1772025098448459500,5.53745947265625,2.63655846414566,4.144869561947882,-0.938350671301037
1772025098458456600,5.54745654296875,0.04879121117591858,2.4743992324650286,-0.3592749181911349
1772025098468453600,5.55745361328125,-2.300748300433159,-0.3941200216010213,0.8131779389731586
1772025098478450400,5.567450439453125,-5.342871432518959,-4.341358933253586,2.701550868538022
1772025098488447700,5.57744775390625,-9.55757528593242,-8.251614852684735,4.621966265182197
1772025098498445600,5.587445556640625,-13.324337803447246,-10.530361749190092,6.354927829891443
1772025098508442600,5.597442626953125,-15.912303793859481,-10.023097286707163,5.754479472276568
1772025098518439400,5.607439453125,-17.159853539192675,-7.906107470822334,3.4458924410417673
1772025098528436700,5.617436767578125,-17.15178947520256,-7.522763987040519,2.240520918485522
1772025098538433500,5.62743359375,-17.55685379240513,-7.945790661913156,1.851313949497789
1772025098548430300,5.637430419921875,-17.446919253480434,-7.745096240133047,1.783349835818261
1772025098558427600,5.647427734375,-16.459823109841345,-7.135291440629959,1.657839395968616
1772025098568424400,5.657424560546875,-15.727834530693292,-7.505870135384797,2.392286620315164
1772025098578421500,5.66742138671875,-15.166477243494986,-7.705575546127557,2.942492545032501
1772025098588418600,5.67741845703125,-13.664405624604225,-7.388878079164027,2.7867396732628342
1772025098598416100,5.687416015625,-11.575018101394177,-6.540734479141235,1.876500705463439
1772025098608413000,5.697412841796875,-9.00943403865993,-5.086080444985628,0.7432847569271922
1772025098618410000,5.707409912109375,-6.347744055867195,-3.556587150683999,-0.4639636654168367
1772025098628407000,5.717406982421875,-3.8117023139595982,-2.162172773435712,-1.5147610045939683
1772025098638404000,5.727404052734375,-1.5053256522506475,-0.9345029098317027,-2.340501926411688
1772025098648402200,5.737402099609375,0.4455740222454071,0.08232201711684464,-2.9753736548930405
1772025098658399200,5.747399169921875,2.1116759273856878,0.9636173606351017,-3.4249241795539853
1772025098668396000,5.75739599609375,3.7635885636538267,1.7225196656718849,-3.7124352995216845
1772025098678393000,5.76739306640625,5.320737926644086,2.3344228987589477,-3.8363457568287846
1772025098688390100,5.77739013671875,6.657143182516098,3.0117844001844523,-3.7392514102548358
1772025098698387200,5.78738720703125,8.108717370834945,3.7832723382890223,-3.2887171352535485
1772025098708384000,5.797384033203125,9.15570713442266,3.9897824606105683,-2.2803961250171065
1772025098718381000,5.807381103515625,9.628657823893427,3.591365910859406,-1.1186129842966794
1772025098728378000,5.817378173828125,10.001838225579261,3.049833560332656,-0.11275076538920402
1772025098738375200,5.827375244140625,10.301162532937527,2.7179548908501863,0.6712156921468675
1772025098748372000,5.8373720703125,10.513155762845278,2.762311334449053,1.1003449216783046
1772025098758369300,5.847369384765625,10.539329484021662,3.058910600757599,1.2755103499263525
1772025098768366000,5.857365966796875,10.538863035553693,3.5180542986720797,1.2355518490254878
1772025098778363000,5.86736279296875,10.507875192093849,4.023185840779543,0.7831967883378267
1772025098788361000,5.87736083984375,10.494662659299372,4.659880400773883,0.1585655911028385
1772025098798358300,5.887358154296875,10.270814156424999,5.301207881265879,-0.3395002504020929
1772025098808355000,5.89735498046875,10.042568879896402,5.82588700440824,-0.73235522050336
1772025098818351900,5.907351806640625,9.828459680747985,6.30608751887679,-1.0466603855028749
1772025098828349200,5.91734912109375,9.59842226010561,6.662754008135199,-1.235152328313887
1772025098838346000,5.927345947265625,9.408965856176614,6.836452286440133,-1.3240788582623004
1772025098848343000,5.937343017578125,9.245389158913493,6.91337302903533,-1.3078662668690084
1772025098858340000,5.947340087890625,9.012382951593398,6.922302769944071,-1.2047308865651487
1772025098868337200,5.957337158203125,8.65905583589077,6.915388460510969,-1.1383457126401364
1772025098878336300,5.967336181640625,8.191382210040093,6.853401667675375,-1.151580165005475
1772025098888333000,5.9773330078125,7.468228094732761,6.48766573677659,-1.2548260199464858
1772025098898330000,5.987330078125,6.072542966896295,5.807749874693155,-1.252728024753928
1772025098908327200,5.9973271484375,3.7598920472234485,4.914322779354452,-1.0883717214204371
1772025098918324000,6.007323974609375,0.8585609491407871,3.543879060280323,-0.6733570880897343
1772025098928321000,6.017321044921875,-2.588214412215352,1.0662678800314664,0.1854774172954261
1772025098938318000,6.027318115234375,-6.462644692766666,-2.582598910421133,1.8123989663004874
1772025098948315100,6.037315185546875,-10.670465800929069,-6.249663620865345,3.417659156987071
1772025098958312000,6.04731201171875,-15.173566324973105,-8.632916016983986,4.874128131610155
1772025098968309200,6.057309326171875,-18.930493092650174,-9.481962703326344,6.190726863250136
1772025098978306000,6.06730615234375,-20.44581582278013,-7.631665675786137,5.226736285388469
1772025098988303000,6.07730322265625,-19.871885469734668,-3.964075772424042,2.2735589724734426
1772025098998300200,6.087300048828125,-18.678304630476234,-4.088741724273562,1.131757566421479
1772025099008297200,6.097297119140625,-18.444155682861805,-5.666715264105797,1.154790797615051
1772025099018294000,6.1072939453125,-17.841684294986724,-5.9626201184093945,1.7605955676965415
1772025099028292000,6.1172919921875,-16.51246748931408,-6.753293526238203,2.724820100444555
1772025099038289200,6.1272890625,-15.384381158751248,-7.2167889896214,3.463646416658163
1772025099048286200,6.1372861328125,-13.778279841065405,-6.575305441784859,3.589661152768135
1772025099058283000,6.147282958984375,-11.565158386158943,-5.659805630847812,2.8555303008943795
1772025099068280000,6.157280029296875,-8.617052092897891,-4.804894728647172,1.3385510357290507
1772025099078277000,6.167277099609375,-5.370220627215504,-3.858704888153076,-0.020211597901582716
1772025099088274000,6.17727392578125,-2.4218390241444108,-2.917986172546446,-1.0572200657010078
1772025099098271200,6.187271240234375,-0.3487900567948818,-1.9331781398445367,-1.7170818585321306
1772025099108268000,6.19726806640625,1.1434469813019037,-0.8113438554137945,-2.1274781844124195
1772025099118265000,6.20726513671875,2.6206004320353267,0.2251724449545145,-2.545653327600658
1772025099128262100,6.21726220703125,4.006391942366958,1.189501607120782,-2.9355393648937342
1772025099138259200,6.22725927734375,5.113676892441511,1.8876744259066878,-3.2128447326675054
1772025099148256000,6.237256103515625,6.195823309606314,2.3597120921857653,-3.475668278363347
1772025099158253300,6.24725341796875,7.221025019755959,2.5866259739801287,-3.7285099437490103
1772025099168251100,6.257251220703125,8.128113560700417,2.4262694078072906,-3.662118193952739
1772025099178248200,6.267248291015625,8.79805338769257,2.0844782699890434,-3.328290143968165
1772025099188245000,6.277244873046875,9.131864486542344,1.8806940655000506,-2.7013781423196197
1772025099198242300,6.2872421875,9.340669149541855,1.6099312512375414,-1.8661609516263007
1772025099208239000,6.297239013671875,9.392008876156806,1.2854964680202305,-0.9643114803791045
1772025099218236200,6.307236083984375,9.26159970448017,1.1559376295626163,-0.4532154769092798
1772025099228233200,6.317233154296875,9.24960648434758,1.112297955930978,-0.3852022633910179
1772025099238230000,6.32722998046875,9.075263478398323,1.0539277461573482,-0.6911795988976955
1772025099248227000,6.33722705078125,8.601038531208038,1.0111308069601654,-1.2751236886963246
1772025099258224000,6.34722412109375,8.20326437101364,1.0995473415598274,-1.9705229511156677
1772025099268221200,6.35722119140625,8.131298035955428,1.3556985698848962,-2.4703280375033616
1772025099278218000,6.367218017578125,8.213325746300816,1.6645841940537094,-2.7534154958099126
1772025099288215000,6.377215087890625,8.389196107947827,2.0696800754383204,-2.7856238209754225
1772025099298212000,6.387212158203125,8.372270692110062,2.3400258333325383,-2.52384715398401
1772025099308209200,6.397209228515625,8.183110056257247,2.495276016277075,-2.2981702666386963
1772025099318207000,6.40720703125,7.98386641780734,2.5007068091541527,-2.1795780817449093
1772025099328204000,6.4172041015625,7.864410017299652,2.3624130217075345,-2.0312895545065404
1772025099338201000,6.427201171875,7.629056370070576,2.390146831807494,-1.8447306255847216
1772025099348198100,6.4371982421875,6.85076313586533,2.72601398640424,-1.8987714278519152
1772025099358195000,6.44719482421875,6.239073837789893,3.1043802662953732,-1.9531822324752806
1772025099368192300,6.457192138671875,5.680283770731092,2.756883171920478,-2.2109707066133617
1772025099378189000,6.46718896484375,4.087445839244127,1.7192776150107383,-2.6236966444849967
1772025099388185900,6.477185791015625,1.4270792140096424,0.8787529655590652,-2.2463807504296303
1772025099398183200,6.48718310546875,-1.335426181706786,-0.1294543551698327,-1.1035910639926791
1772025099408180000,6.497179931640625,-4.814036358740926,-2.595256147420406,0.6867468771472572
1772025099418177000,6.507177001953125,-8.586141990849375,-6.046627604395151,3.2467320969611406
1772025099428174000,6.517174072265625,-12.130928813624381,-7.541103361329436,4.862359367883205
1772025099438171100,6.527171142578125,-16.513011094671487,-6.831932178667187,5.042736977821588
1772025099448168000,6.53716796875,-17.79580867899656,-6.41563861144185,4.8210225643664595
1772025099458165200,6.547165283203125,-17.011254046308995,-3.349306628511846,1.321513391688466
1772025099468163000,6.5571630859375,-15.989886215233803,-1.3957491329833864,0.5796268111214041
1772025099478160100,6.56716015625,-15.661632750511169,-2.9582106309071183,3.72006243339926
1772025099488157000,6.577156982421875,-15.25244638494253,-3.527759115606546,5.636203221464156
1772025099498154200,6.587154296875,-14.738927538239954,-4.066120434881746,6.682793172079324
1772025099508151000,6.597151123046875,-13.94295368591547,-4.506029563233256,6.896576208013296
1772025099518148000,6.607148193359375,-12.369808881413936,-3.5875600888356565,5.58472320959568
1772025099528145200,6.617145263671875,-10.207571226048469,-3.1268910810500383,4.223738223740458
1772025099538142200,6.62714208984375,-8.378058043339848,-2.9675474913120268,2.4186332138404247
1772025099548139000,6.637138916015625,-6.076271047508716,-2.4324220852181315,0.38208632332757114
1772025099558136000,6.647135986328125,-3.851138836812973,-1.8291297363489865,-0.7999611683949828
1772025099568133000,6.657133056640625,-2.086926686054468,-1.253807928945124,-1.0146157264664768
1772025099578130000,6.6671298828125,-0.6913058556258678,-0.8073097775921225,-1.097469220111519
1772025099588127200,6.677127197265625,0.48020869777500624,-0.4094058535382151,-1.4664698518946766
1772025099598123300,6.687123291015625,1.8251894742906092,0.33516309798061844,-1.7724648691885172
1772025099608120300,6.697120361328125,3.098820586341619,1.4430579966470598,-1.8488434677310286
1772025099618118400,6.707118408203125,4.329802058711648,2.5499124463498593,-1.887621380545199
1772025099628115500,6.717115478515625,5.43391714657843,3.408798681922257,-2.038108002349734
1772025099638112500,6.727112548828125,6.4945373761117455,3.991813966438174,-2.0395615621589123
1772025099648109300,6.737109375,7.504856574428081,4.268383128891885,-1.6444051832474766
1772025099658106400,6.7471064453125,8.024740864509344,4.129101207190752,-1.026234560328722
1772025099668103400,6.757103515625,8.390276888921857,3.729896721932292,-0.31434783509746195
1772025099678100200,6.767100341796875,8.74264188159406,3.447912840953469,0.16912702486664055
1772025099688097500,6.77709765625,8.809820397853851,3.2711575131654738,0.3899417130030691
1772025099698094300,6.78709423828125,8.485365156370401,3.1151421910673376,0.5095470204621553
1772025099708091400,6.79709130859375,8.266260048630834,3.0775515883415934,0.15837226048782466
1772025099718088400,6.80708837890625,8.136569254356623,3.2523736099794505,-0.5326692451134324
1772025099728085500,6.81708544921875,8.05619164930582,3.4434731049403546,-1.2560882949672638
1772025099738082300,6.827082275390625,8.287139755052328,3.621701720151305,-1.9188123453617094
1772025099748079600,6.83707958984375,8.436698448356985,3.8161955337256193,-2.362853312820941
1772025099758076400,6.847076416015625,8.531541216611862,3.8532732184931633,-2.398339490613341
1772025099768074500,6.857074462890625,8.712433205813168,3.9307299676612018,-2.0900670299068094
1772025099778071300,6.8670712890625,8.480693072906137,4.124259904639422,-1.7243221850492059
1772025099788068600,6.877068603515625,8.388335107204318,4.254774290256202,-1.3849258334130048
1772025099798065400,6.8870654296875,8.337280042749644,4.431367120958864,-1.2764907392658293
1772025099808062200,6.897062255859375,8.186173535481094,4.447151842328906,-1.3855265757851303
1772025099818059500,6.9070595703125,7.785381488770246,4.288955376799405,-1.8809112153820693
1772025099828056300,6.917056396484375,7.022593866732716,3.966604706379771,-2.4631810883581635
1772025099838053400,6.927053466796875,6.1531321688711635,3.313734964393079,-2.586339558254182
1772025099848050400,6.937050537109375,4.076543921479582,2.147090355116129,-2.2427030848301945
1772025099858047500,6.947047607421875,0.42615094437301154,0.4709048628568649,-1.2965423243001102
1772025099868044300,6.957044189453125,-2.9852509057849645,-1.5778782627642154,0.09322378875091672
1772025099878041600,6.96704150390625,-5.745462637606263,-4.192092793154716,1.635486255993694
1772025099888038400,6.977038330078125,-8.590224291726946,-6.536386805325746,3.1450095060646532
1772025099898035500,6.987035400390625,-11.280138498485087,-6.88770901094675,4.087130781945586
1772025099908032500,6.997032470703125,-14.660524448132515,-7.425337047511339,4.895440091969072
1772025099918030600,7.007030517578125,-16.00734471503496,-8.032005302554369,4.566552128735184
1772025099928027400,7.01702734375,-15.022051236903666,-4.855508479075134,1.8390902816101908
1772025099938024400,7.0270244140625,-14.50484054994583,-5.099986220741272,3.0288737744122742
1772025099948021500,7.037021484375,-14.172472051119804,-6.359692852336168,4.973000009250641
1772025099958018600,7.0470185546875,-13.283385030812024,-5.7767433265328405,5.982737608286738
1772025099968015400,7.057015380859375,-12.462773580837249,-6.113814888483286,6.707465841042995
1772025099978012400,7.067012451171875,-11.497356185042857,-5.835948379695415,6.118538994395733
1772025099988009500,7.077009521484375,-9.93237013707757,-4.766780686569214,4.973806649458408
1772025099998006300,7.08700634765625,-8.480138946154714,-4.026151997108757,4.048800759029389
1772025100008003600,7.097003662109375,-6.785465611046552,-3.1211168815627692,2.7878809522524475
1772025100018000400,7.10700048828125,-4.595772962522506,-2.1369562068536876,1.595124873380363
1772025100027997400,7.11699755859375,-2.5031238071680066,-1.154255960085988,0.5375972030349075
1772025100037994500,7.126994384765625,-1.0515081177949905,-0.5856242979705334,-0.5914385372072458
1772025100047991600,7.136991455078125,-0.07802548896670342,-0.5364917260110378,-1.760235356082022
1772025100057988400,7.14698828125,0.5527221453219652,-0.471357867321372,-2.893023288464546
1772025100067985400,7.1569853515625,1.4228104506492614,-0.07706833437234163,-3.6584582101404663
1772025100077983500,7.1669833984375,2.576419929525256,0.5786112043380737,-3.747160575944185
1772025100087980500,7.17698046875,3.6955478776067494,1.3042144663631916,-3.574655306816101
1772025100097977300,7.186977294921875,4.704576451590657,1.9715505405977367,-2.9760546228945253
1772025100107974700,7.196974609375,5.462524816903471,2.2040113889947532,-1.9483884223274885
1772025100117971500,7.206971435546875,6.050706398141384,2.1404212526157496,-1.0898634212829172
1772025100127968300,7.21696826171875,6.5426078717976806,2.140953459796309,-0.46807782273739573
1772025100137965600,7.226965576171875,7.089743156898021,2.1660373399093746,-0.06624591158479452
1772025100147962400,7.23696240234375,7.620009140262007,2.1704636319190262,0.0772477825924754
1772025100157959400,7.24695947265625,8.067497471696138,2.1091846950918436,0.08392857553064823
1772025100167956500,7.25695654296875,8.287253736820816,2.0973700463965534,-0.07292085930407047
1772025100177953500,7.26695361328125,8.519536890563367,2.170399042250216,-0.3837146551817655
1772025100187950300,7.276950439453125,8.823658953592181,2.267676051914692,-0.778611067982763
1772025100197947400,7.286947509765625,9.10057678335309,2.492135964685678,-1.096720593701303
1772025100207944400,7.2969443359375,9.429176869556308,2.861410006582737,-1.1385270605564117
1772025100217941500,7.30694140625,9.343625661259889,3.2755744528248902,-1.1963434358395635
1772025100227939300,7.316939208984375,9.226526637533306,3.6650606771454215,-1.2819469588451087
1772025100237936400,7.326936279296875,9.283689955735206,4.042978628747165,-1.1429960226640103
1772025100247933400,7.336933349609375,9.162470637208223,4.384195912200212,-0.9321316506557166
1772025100257930500,7.346930419921875,8.797637208107114,4.5792602191388605,-0.8132707318231462
1772025100267927300,7.35692724609375,8.46188374301791,4.708531618957221,-0.8124154301680624
1772025100277924600,7.366924560546875,8.254055231574178,4.837186348181962,-0.8309773611664771
1772025100287921400,7.37692138671875,7.701855064299703,4.837314358475804,-0.8731583604224026
1772025100297918200,7.386918212890625,6.566027910351753,4.580847780591249,-0.8446091422863304
1772025100307915500,7.39691552734375,4.594337376761437,3.838751648926735,-0.6583040419951081
1772025100317912300,7.406912353515625,1.7638702054530382,2.3305180002748966,-0.5721646585471928
1772025100327909400,7.416909423828125,-1.8263310455411672,-0.1189803074285388,-0.18048706166222692
1772025100337906400,7.426906494140625,-4.805668343368172,-3.3507679332360625,0.7986956785038113
1772025100347903500,7.436903564453125,-6.667622490954399,-5.85417844839096,2.364315786588937
1772025100357900300,7.446900390625,-9.817252058035134,-6.671185736393928,3.260187206339836
1772025100367897600,7.456897705078125,-13.779446546757221,-6.364595237424969,3.2512136262893674
1772025100377894400,7.466894287109375,-15.626982292890547,-7.140614096957445,3.365772610144317
1772025100387892500,7.476892578125,-15.479671086251734,-4.512481808112561,0.3072437021806836
1772025100397889300,7.48688916015625,-13.891779963517187,-2.4948534069508312,-1.0434700650289654
1772025100407886600,7.496886474609375,-13.190118718093633,-4.154745936056972,1.5935763287641107
1772025100417883400,7.50688330078125,-12.927162193667888,-5.008586870938539,3.6883857308924197
1772025100427880400,7.51688037109375,-12.420774514019488,-5.8716416243672365,5.100131766691804
1772025100437877500,7.52687744140625,-12.256888604676723,-6.862431946349144,5.468375881019234
1772025100447874600,7.53687451171875,-11.341429125750064,-6.832870336300134,4.640104271680117
1772025100457871400,7.546871337890625,-9.608224692195654,-6.508558887201548,3.551262156268954
1772025100467868400,7.556868408203125,-8.45522720773816,-5.536064100366831,1.9933153592906891
1772025100477865500,7.566865478515625,-6.994279626396298,-4.250685267376899,0.069060238353163
1772025100487862300,7.5768623046875,-4.91775976806581,-2.7734721954107284,-1.3325446349211036
1772025100497859600,7.586859619140625,-3.184652949666977,-1.2649758041694759,-1.7447985713668166
1772025100507856400,7.5968564453125,-1.8622241966992616,0.0486854127138853,-1.2040823595285415
1772025100517853400,7.606853515625,-0.3653390405356884,1.0066808418139814,-0.4633459719099104
1772025100527850500,7.6168505859375,0.9805220259457826,1.8194819102987645,-0.3594049743115902
1772025100537848600,7.6268486328125,2.3334628215551376,2.6279846970677374,-0.610524638210237
1772025100547845400,7.636845458984375,3.511248125788569,3.027475305791199,-1.1630733266614377
1772025100557842400,7.646842529296875,4.55261069714427,3.198412594950199,-1.6210190469630061
1772025100567839500,7.656839599609375,5.576247057673335,3.411043538239598,-1.6280005764134227
1772025100577836500,7.66683642578125,6.451085187876224,3.5415219757601615,-1.2341155326120554
1772025100587833300,7.676833251953125,7.280861356559395,3.5528067553624507,-0.8056766234323381
1772025100597830700,7.68683056640625,7.937426153671741,3.4601129818350076,-0.18466215538978575
1772025100607827700,7.69682763671875,8.207665820842982,3.3609953127399086,0.43525969511047
1772025100617824800,7.70682470703125,8.398597558021544,3.2934894642218944,0.8473657475180923
1772025100627821600,7.716821533203125,8.426440089192987,3.3242478828400372,0.9805281634256243
1772025100637818600,7.726818603515625,8.152851696115732,3.4823099083349107,0.951197001131624
1772025100647815700,7.736815673828125,7.993184865772724,3.6123780114889144,0.6454010135412216
1772025100657812500,7.7468125,8.039262726336718,3.657069386130571,-0.07886310883462429
1772025100667809800,7.756809814453125,8.044678321644664,3.781042387279868,-0.7686910739276558
1772025100677806600,7.766806640625,8.101019802069663,4.047238332018256,-1.2182130300812422
1772025100687803600,7.7768037109375,8.228841295340656,4.187541705721617,-1.4753101609542965
1772025100697801500,7.786801513671875,8.26374718902707,4.35465826754868,-1.4960282470732926
1772025100707798800,7.796798828125,8.22775466914773,4.5688352712363,-1.4534543029770255
1772025100717795600,7.806795654296875,8.282836504900455,4.673178858286142,-1.2569530951030552
1772025100727792600,7.816792724609375,8.240767879977822,4.761851997995376,-1.2042233754344285
1772025100737789700,7.826789794921875,8.203449664452672,4.788659340900183,-1.2967369700893758
1772025100747786800,7.836786865234375,8.055535815745591,4.519251448377966,-1.2782080645777285
1772025100757783600,7.846783447265625,7.776816489520669,3.9760447348982093,-1.253080491453409
1772025100767780900,7.85678076171875,7.041584982928633,3.1927626063644885,-1.2247729731187225
1772025100777777700,7.866777587890625,5.62644287495017,2.175270739939809,-1.126245086610317
1772025100787774500,7.8767744140625,3.2787317478120324,1.0231523764044046,-0.6537417025156319
1772025100797771800,7.886771728515625,-0.6116495505869388,-0.49513914040327067,-0.062260495210438964
1772025100807768600,7.8967685546875,-5.370803395539522,-3.2286411444753407,0.6463369792170822
1772025100817765600,7.906765625,-8.399400106576085,-6.406883058056235,1.43109794813171
1772025100827762700,7.9167626953125,-11.394689591294526,-7.821512540337443,1.092041934365779
1772025100837759700,7.926759765625,-15.918016910809278,-8.247406879600883,0.7907377052366733
1772025100847756500,7.936756591796875,-17.41074436277151,-9.83547861959934,1.8764952986359595
1772025100857754600,7.946754638671875,-16.42624700345397,-6.67882952914536,0.1720996109366417
1772025100867751700,7.956751708984375,-14.24862590099573,-5.019660053616762,0.6195822432823479
1772025100877748700,7.966748779296875,-13.781801000928878,-6.27981092184782,3.1877664055123924
1772025100887745500,7.97674560546875,-13.344186997777223,-6.313914266979694,4.913743518161773
1772025100897742800,7.986742919921875,-12.867842574214935,-6.716192168334126,5.941143615138531
1772025100907739600,7.99673974609375,-12.200643570363521,-7.133320432817936,5.533631320261955
1772025100917736700,8.00673681640625,-10.651224509364367,-6.628256695249676,4.1230175033628935
1772025100927733800,8.016733642578124,-9.011436026132106,-5.929232228070497,2.8782237787395712
1772025100937730800,8.026730712890625,-7.464676539731025,-4.904037532183527,1.6456062296003102
1772025100947727600,8.0367275390625,-5.686151785981655,-3.829899649429321,0.6130269764199853
1772025100957724700,8.046724609375,-3.689724286019802,-2.9767782609939575,-0.03522942655235529
1772025100967721700,8.0567216796875,-2.036053407907486,-2.137833574210107,-0.28107217296138404
1772025100977718500,8.066718505859376,-0.6492302164405584,-1.2584312048316002,-0.3235495248153806
1772025100987715800,8.0767158203125,0.5249988566160202,-0.19222879125177858,-0.5400147855706513
1772025100997712600,8.086712646484376,1.8163076641768217,0.9025684331715107,-0.8437744450278579
1772025101007709700,8.096709716796875,3.1913995013177394,1.9115274490505456,-1.259657677886635
1772025101017707500,8.10670751953125,4.492950885951519,2.7993691454723475,-1.5792590495981276
1772025101027704800,8.116704833984375,5.656353444567323,3.478622159732878,-1.5590139878183602
1772025101037701600,8.12670166015625,6.671605423110723,3.803375799641013,-1.0978152570702135
1772025101047698700,8.13669873046875,7.437616683369875,3.763350955505669,-0.3184044170118868
1772025101057695700,8.14669580078125,7.794561989569663,3.521294595767557,0.34231063164770603
1772025101067692800,8.15669287109375,8.31346895905137,3.367753554828465,0.8122235608577728
1772025101077689600,8.166689697265625,8.479761345013976,3.4636236203044652,1.1612642314128576
1772025101087686700,8.176686767578126,8.327085396471618,3.52635275593996,1.3045590420171618
1772025101097683700,8.18668359375,8.158882208451628,3.4281565856039524,0.9832014742881059
1772025101107680800,8.1966806640625,8.139735609433055,3.3846757557958362,0.39842765566706656
1772025101117677600,8.206677490234375,8.166338954198359,3.4701451310276985,-0.12758381205759942
1772025101127674600,8.216674560546876,7.980466838496923,3.7107793490082024,-0.4902062871109694
1772025101137671700,8.226671630859375,7.954246940091251,4.06580742340982,-0.7594240638885646
1772025101147668500,8.23666845703125,8.022688023632764,4.479173120489716,-0.9880150120496749
1772025101157665800,8.246665771484375,8.005504249119758,4.776006195554137,-1.1378417086407542
1772025101167662600,8.25666259765625,8.078443813124299,4.973545952695608,-1.2274642580293118
1772025101177660700,8.26666064453125,8.20056212631762,5.1624201728224755,-1.2180967102251947
1772025101187657500,8.276657470703125,8.186939259156585,5.221031936267018,-1.0998859989296643
1772025101197654800,8.28665478515625,8.116381621852517,5.190052276113629,-0.9863095963712781
1772025101207651600,8.296651611328125,7.935116707685589,5.141543973532319,-1.0336229170143603
1772025101217648600,8.306648681640626,7.544496510899067,5.046830969136953,-1.0781174539096652
1772025101227645700,8.316645751953125,6.7463622656702995,4.786157587212323,-1.1327781416408718
1772025101237642800,8.326642822265624,5.369952331668138,4.188055500462651,-1.2193792973816393
1772025101247639600,8.3366396484375,3.611967677122354,3.2138761215418574,-1.2358384108819067
1772025101257636900,8.346636962890624,1.3449609027713536,1.6734651273846626,-0.8356332241483032
1772025101267633700,8.356633544921875,-1.4801292516738176,-1.1835709018975495,-0.19837708474844692
1772025101277630500,8.36663037109375,-4.7304169952899215,-4.857040803208947,0.7514756621673703
1772025101287627800,8.376627685546875,-7.897126876509189,-7.37160370375812,1.7783434058330951
1772025101297624600,8.38662451171875,-11.571658269572257,-7.979862442862987,2.5513532928079363
1772025101307621600,8.39662158203125,-14.358796586763859,-8.78525761900544,3.4308228822037576
1772025101317618700,8.40661865234375,-14.91152633087039,-6.723617349898815,1.240638212379068
1772025101327615700,8.41661572265625,-14.20707340890169,-4.073890776622295,-1.1140514485348016
1772025101337612500,8.426612548828125,-13.704759846824407,-5.0068216148316855,-0.24666589936017988
1772025101347610600,8.436610595703126,-13.4576590631783,-5.912911207866668,1.5913478390596807
1772025101357607700,8.446607666015625,-13.184092297410965,-6.439079108262062,3.055042234891653
1772025101367604700,8.456604736328124,-13.051807979512214,-7.189716273778677,4.241107876214385
1772025101377601500,8.4666015625,-13.516030588126181,-7.012734736019373,4.324623487029969
1772025101387598800,8.476598876953124,-12.557038256943224,-6.297719503504037,3.2740544036507604
1772025101397595600,8.486595703125,-11.061614990025758,-5.264836006680131,1.1197612775489687
1772025101407592700,8.4965927734375,-9.529069322416186,-3.8833530071973796,-1.0065445751484483
1772025101417589800,8.50658984375,-7.779166267517208,-2.6816648493289947,-2.194117771489918
1772025101427586800,8.5165869140625,-6.211859083127975,-1.981557555349171,-2.6426474286705255
1772025101437583600,8.52658349609375,-4.798817162299156,-1.566688760229945,-2.360468171250075
1772025101447580700,8.53658056640625,-3.1965292654216286,-1.1229951449036597,-1.9446192790523171
1772025101457577700,8.54657763671875,-1.4347592471182347,-0.4920674778729677,-1.652023257035762
1772025101467574500,8.556574462890625,0.3086053459227085,0.518210511650145,-1.2534354423709213
1772025101477571800,8.56657177734375,2.041002554747462,1.6965943662986158,-1.235795594653487
1772025101487568600,8.576568603515625,3.812185713562369,2.734736222042143,-1.3227102002575992
1772025101497565700,8.586565673828124,5.372338350021839,3.378452643497288,-1.267633625201881
1772025101507562800,8.596562744140625,6.749434512722492,3.5562834915623065,-1.1737953578144311
1772025101517560800,8.606560791015625,7.9391060695827,3.4926147369891405,-0.9696193044636398
1772025101527557600,8.6165576171875,8.804723366975784,3.2801901299268006,-0.6394861634742468
1772025101537554700,8.6265546875,9.33605201113522,2.929240264749527,-0.21458945694603024
1772025101547551700,8.6365517578125,9.679590723273158,2.5903017398834227,0.22375468711107968
1772025101557548800,8.646548828125,9.888513459694385,2.5293577340990305,0.4958310681901872
1772025101567545600,8.656545654296876,9.877264920449257,2.782869846092164,0.5307756864517927
1772025101577542700,8.666542724609375,9.783259772062301,3.0722564045429226,0.3540443971265107
1772025101587539700,8.676539794921876,9.606759880340098,3.386214801931381,0.06637889031469822
1772025101597536800,8.686536865234375,9.454830950772761,3.6503567367494103,-0.3915601810503751
1772025101607533600,8.696533447265624,9.27111338275671,3.7996377821564673,-0.9371090006768703
1772025101617531000,8.70653076171875,9.043889265969396,4.023388669875264,-1.3165959551610051
1772025101627527700,8.716527587890624,8.908834898835421,4.3243753574877974,-1.505891469439864
1772025101637524700,8.726524658203125,8.819692388048768,4.618511448553204,-1.5525070901423692
1772025101647521800,8.736521728515624,8.669535144329071,4.918303373423218,-1.3530363649383186
1772025101657518800,8.746518798828125,8.493025315734744,5.138722486370802,-1.1906991463422774
1772025101667515600,8.756515625,8.34470580883622,5.079239200788736,-1.1451784812696277
1772025101677513000,8.766512939453126,8.117329716357588,5.06399428538382,-1.1001587514564395
1772025101687510800,8.7765107421875,7.6976389079093925,5.156209043222665,-0.9690928694367408
1772025101697507800,8.7865078125,6.739447371715307,5.161994640886784,-0.7149398291915655
1772025101707504600,8.796504638671875,4.791687164288759,4.577028514564037,-0.9929827174596488
1772025101717502000,8.806501953125,2.1005553984344005,3.2561826468735933,-1.4579760181851684
1772025101727498800,8.816498779296875,-1.0907640233844518,1.8096493753314018,-1.2340538655526936
1772025101737495800,8.826495849609374,-4.394035753691196,-0.5959218201011419,-0.8627205530382692
1772025101747492900,8.836492919921875,-7.6289388811707495,-3.759107618847489,-0.6141413674026728
1772025101757490000,8.846489990234375,-10.93189906131029,-6.0398418897777795,-0.3844968916006386
1772025101767486700,8.85648681640625,-15.199149679040907,-7.420725754323601,0.1981291013367474
1772025101777483800,8.86648388671875,-17.523905462527274,-8.643618028262257,1.5223530671581624
1772025101787480800,8.876480712890626,-17.96521481306553,-6.198119311589002,0.9334506242997944
1772025101797477600,8.8864775390625,-16.522170552682876,-4.706627538901567,1.0862192195616662
1772025101807475000,8.896474853515626,-15.302219592893122,-6.274573021194338,3.145138685402274
1772025101817471700,8.9064716796875,-14.683355873143672,-6.806551653695106,5.1583413790762425
1772025101827468800,8.91646875,-13.380472947645186,-7.193270751389861,6.050998659086227
1772025101837465900,8.9264658203125,-11.928780101382731,-7.90423057103455,6.220179167705774
1772025101847464000,8.9364638671875,-10.84696569265127,-8.231561660215258,6.236443489286303
1772025101857460700,8.946460693359375,-9.759382637390495,-7.957880912679434,5.557170601281523
1772025101867457800,8.956457763671875,-8.341042025631666,-7.267188805037737,4.028945134958625
1772025101877454800,8.966454833984375,-6.581502542859315,-6.446009199786186,2.3450442460164425
1772025101887452000,8.976451904296875,-4.924397014123201,-5.613225665980577,1.1466326256006956
1772025101897448700,8.98644873046875,-3.6394103953212498,-4.580767116570472,0.282955429424718
1772025101907446000,8.996446044921875,-2.3094506623268125,-3.2497587513059374,-0.5530418057303875
1772025101917442800,9.00644287109375,-0.9678379009395838,-1.99382170137763,-1.2952949545875192
1772025101927439600,9.016439697265625,0.17527707192897796,-0.6125427000343799,-1.5713213884666561
1772025101937437000,9.02643701171875,1.4077835619091987,1.072626309147477,-1.6587066803224384
1772025101947433700,9.036433837890625,2.80026960144341,2.480639003637433,-1.7776016475550829
1772025101957430800,9.0464306640625,4.033413220283389,3.725587626561522,-1.7534648390337824
1772025101967427800,9.056427734375,5.2652784897506235,4.554191244333982,-1.8017191668540238
1772025101977425000,9.0664248046875,6.460451566636562,4.757680265268683,-1.5392724916465579
1772025101987421700,9.076421630859375,7.338424487733841,4.706994618648291,-0.8594687116354703
1772025101997419000,9.0864189453125,7.878817312836647,4.587692531919479,-0.23720628935843704
1772025102007415800,9.096415771484375,8.324314762714504,4.29117217606604,0.3978651994787156
1772025102017412900,9.106412841796875,8.673104819509387,4.037535268649458,0.9776163676321505
1772025102027410700,9.11641064453125,8.734038888421654,3.8878070639967914,1.184187280230224
1772025102037408000,9.126407958984375,8.564408882468939,3.9648692608892917,1.0739373917460442
1772025102047404800,9.13640478515625,8.647152047607301,4.316137105974555,0.7276745153412223
1772025102057401900,9.14640185546875,8.701356516003608,4.704170793399214,0.1543463659726083
1772025102067399000,9.15639892578125,8.67789205378592,4.986091546013951,-0.5030113350830971
1772025102077396000,9.16639599609375,8.517907243534921,5.2130707481294865,-0.858939719325304
1772025102087392800,9.176392822265624,8.368288344475626,5.378715483838319,-1.0778684475846587
1772025102097389800,9.186389892578125,8.281032670348882,5.565466720461845,-1.2070857791282237
1772025102107387000,9.196386962890625,8.183785763561724,5.801702995744347,-1.2239173792026936
1772025102117383700,9.2063837890625,8.116330768448114,5.984228723627329,-1.3410074889704584
1772025102127380700,9.216380615234375,8.1065096316576,6.0119601956397295,-1.4600797124661504
1772025102137377800,9.226377685546876,8.026710703277587,6.05729629792571,-1.5743785840801894
1772025102147374800,9.236374755859375,7.996888396465778,6.167744631591439,-1.8414174093835054
1772025102157371600,9.24637158203125,7.802173633617162,5.961273964497447,-2.1039878571011124
1772025102167369000,9.256368896484375,7.2875272441893815,5.533216894242167,-2.053026023887843
1772025102177365800,9.26636572265625,6.587771540126204,5.016303144404292,-1.7610786750383673
1772025102187362800,9.27636279296875,5.481414810812473,3.99655794609487,-1.3114081772595643
1772025102197360600,9.286360595703124,3.6191117036581035,2.16622351013124,-0.4021021063961088
1772025102207358000,9.29635791015625,0.3444605031579733,-0.36042262692153454,1.2424226115778088
1772025102217354800,9.306354736328124,-2.900405215409398,-3.9646944888442754,2.496976682715118
1772025102227351800,9.316351806640625,-6.39601913421452,-8.288136364874243,2.750426835387945
1772025102237347800,9.326347900390624,-11.771141561996936,-11.356022299247979,2.826893696735799
1772025102247344600,9.3363447265625,-15.017461571025848,-12.73017714779973,2.5750071401178833
1772025102257342000,9.346342041015625,-16.153144348067045,-10.722191311991214,0.26580256150662895
1772025102267338800,9.3563388671875,-14.977917496144771,-7.578907899066805,-0.9648236676849424
1772025102277335800,9.366335693359375,-13.151418692821263,-7.1275430184602735,0.7836122372709214
1772025102287332900,9.376332763671876,-12.351760014504194,-7.183156184610724,3.0832348946750163
1772025102297330000,9.386329833984375,-11.789506070727109,-7.642619031476974,4.989304078319669
1772025102307326700,9.39632666015625,-11.043096167516708,-8.05507228988707,6.237319687598943
1772025102317324000,9.406323974609375,-10.41219597301483,-8.069921483972669,6.28357874994874
1772025102327320800,9.41632080078125,-9.793546188277006,-7.997059076857567,4.901666711398959
1772025102337317600,9.426317626953125,-9.225723504456877,-7.114958846697211,3.0759687030643224
1772025102347315000,9.43631494140625,-8.269147002243995,-5.705778861993551,1.1372945961520076
1772025102357311700,9.446311767578125,-6.908003610956668,-4.414796802169084,-0.8026413473896682
1772025102367308800,9.456308837890624,-5.659163241291046,-2.838043159520626,-1.843979807217419
1772025102377305900,9.466305908203125,-4.431438724890351,-1.6361653242990373,-1.8964532140374182
1772025102387303000,9.476302978515625,-3.1342531342506406,-0.8302443707168102,-1.615539008116722
1772025102397299700,9.4862998046875,-1.7727485084354877,-0.043030455692112446,-1.450259160197526
1772025102407297800,9.4962978515625,-0.7932827135443687,0.8900932747408747,-1.5590690790064632
1772025102417294800,9.506294921875,0.3019026334136724,2.0482214000850916,-2.1659148825734853
1772025102427292000,9.5162919921875,1.7104823141366243,3.1040202008113265,-2.8895424606114624
1772025102437288700,9.526288818359374,3.07897548366487,3.8051036463469265,-3.2361350073620674
1772025102447286000,9.5362861328125,4.596532256457209,4.088867396479845,-3.1482898429095743
1772025102457282800,9.54628271484375,5.986527063697576,4.0457092227548355,-2.4721803873717785
1772025102467280000,9.55627978515625,7.056020920038223,3.804939980217814,-1.4066896291926503
1772025102477277000,9.56627685546875,7.82718766336441,3.4548198438629507,-0.4682485031291842
1772025102487273700,9.576273681640625,8.313201832547783,3.192774589063227,0.31992855783924457
1772025102497270800,9.586270751953125,8.852665852367878,3.238063929598033,0.6791688431084155
1772025102507267800,9.596267822265625,9.050299133011698,3.3879090386286377,0.2824284098759293
1772025102517265000,9.606264892578125,8.98615720796883,3.5086703842550513,-0.21045389151126145
1772025102527261700,9.61626171875,8.783181397253275,3.5085040877774354,-0.8026784645296633
1772025102537258800,9.6262587890625,8.816430171382427,3.7864305100589988,-1.3290326812773943
1772025102547255800,9.636255859375,8.997282997617125,4.228803105914593,-1.4441481299713252
1772025102557252900,9.6462529296875,8.918859449243545,4.489097717654705,-1.4414868018075824
1772025102567249700,9.656249755859376,8.768476580074429,4.515379575380683,-1.503040171661973
1772025102577247000,9.6662470703125,8.834091500279307,4.59406908121407,-1.544036491177976
1772025102587244800,9.676244873046874,8.777730730631948,4.71307656891048,-1.5609440790981053
1772025102597241600,9.68624169921875,8.69773657194078,4.838612581592798,-1.4046879339814184
1772025102607238700,9.69623876953125,8.587276547837257,4.905487146469951,-1.2594412586569785
1772025102617235700,9.706235595703125,8.38866419302821,4.862109192514419,-1.4667201733939348
1772025102627232800,9.716232666015625,7.889146983671188,4.898336105671524,-1.5844059109672903
1772025102637229600,9.7262294921875,7.202195231601595,4.555881097117066,-1.2497701978616416
1772025102647226600,9.7362265625,5.929811489263177,3.541165125146508,-0.7976182585306465
1772025102657223700,9.7462236328125,3.7236961137264966,2.2201976769030094,-0.4650118592955172
1772025102667220500,9.756220458984375,1.2561106529295443,0.520032758641243,-0.32910628215968607
1772025102677217800,9.7662177734375,-1.5905635568141936,-1.7044710910230874,0.044101299794018264
1772025102687214600,9.776214599609375,-4.6634489069104195,-4.458159558555484,1.050577705077082
1772025102697211600,9.786211669921874,-7.552582202199101,-6.802649385559558,2.055292069123685
1772025102707208700,9.796208740234375,-10.074718752872943,-7.478684606817365,2.2251957774512467
1772025102717205800,9.806205810546874,-13.113966037261486,-7.293088969969749,1.8249625336669384
1772025102727202600,9.81620263671875,-14.819327355122565,-6.866870221057534,1.2348887089416385
1772025102737199900,9.826199951171875,-14.741134692895411,-4.499676102553308,-0.4879832772992551
1772025102747196700,9.83619677734375,-13.581810343503951,-3.634671091839671,-0.08891264755353331
1772025102757193500,9.846193359375,-12.528446953231095,-5.078927650621533,2.385702858010679
1772025102767191600,9.856191650390626,-12.49690030684471,-5.490001437371969,4.69944318035543
1772025102777188900,9.86618896484375,-11.977183190023899,-5.751605378144979,6.708893828019499
1772025102787185700,9.876185546875,-11.1532972484231,-6.33921237436533,7.284352705806493
1772025102797182700,9.8861826171875,-10.59482048509717,-6.2862891779512164,6.30180005081594
1772025102807179800,9.8961796875,-9.5558988771528,-5.722463454812765,4.82902116190493
1772025102817176600,9.906176513671875,-8.367702069020272,-4.83246253453046,2.8571269224360583
1772025102827173600,9.916173583984374,-7.213259061929583,-3.666023384697735,0.866996476791799
1772025102837170700,9.926170654296875,-5.266355763593316,-2.4251018253326415,-0.0021457798570394516
1772025102847167700,9.936167724609374,-3.139629566591978,-1.4829486930087208,0.014606909762322902
1772025102857165600,9.94616552734375,-1.3932961868733167,-1.041330130390823,0.7020227722123265
1772025102867162600,9.95616259765625,0.07495674904584884,-0.5669000160172581,1.1690215675413609
1772025102877159700,9.96615966796875,1.499668064880371,-0.03258475726246834,0.833472977374494
1772025102887156700,9.97615673828125,2.782146500253677,0.45274464452713725,0.04625993913263082
1772025102897153500,9.986153564453126,3.7823727591007947,1.149899226181209,-0.886579129140079
1772025102907150800,9.99615087890625,4.723364154168963,1.7449232206597922,-1.737249325031042
1772025102917147600,10.006147705078124,5.507742845767736,1.986891317592561,-2.582383806365728
1772025102927144700,10.016144775390625,6.574471329048276,2.1534481997102497,-2.9347870852217075
1772025102937141800,10.026141845703124,7.662277671670913,2.164036813741922,-2.5736919658660886
1772025102947138800,10.036138916015625,8.107895533058047,1.9465823958188295,-1.7270470799684523
1772025102957135600,10.046135498046874,8.355115559169649,1.8670356886342168,-0.7625771941572427
1772025102967132700,10.056132568359375,8.436115095511079,2.002506819875538,-0.03223433638960123
1772025102977129700,10.066129638671875,8.379064005512,2.1698341018438336,0.06226473299413919
1772025102987126500,10.07612646484375,8.326407351079583,2.2878896956428885,-0.1858154170781374
1772025102997123800,10.086123779296875,8.143038158109784,2.4643527624860404,-0.5187795437097549
1772025103007121700,10.09612158203125,7.948703334489465,2.837173975470662,-1.3787797318734227
1772025103017118700,10.10611865234375,7.9465821045517915,2.8243679776504633,-2.2567675582788884
1772025103027115500,10.116115478515624,7.805057664620876,2.723725583206117,-2.4925755251467225
1772025103037112800,10.12611279296875,7.621181106650829,2.896404747596383,-2.5316777014791962
1772025103047109600,10.136109619140624,7.609253352969884,2.9477552878662943,-2.5923651021540164
1772025103057106700,10.146106689453125,7.684557892540097,2.8979020004168152,-2.5575807890206574
1772025103067103700,10.156103759765625,7.797394582647085,3.024869799467921,-2.4842823285758495
1772025103077100800,10.166100830078125,7.765078705453872,3.111251321108639,-2.3864900628656147
1772025103087097600,10.17609765625,7.5194561776667825,3.105430359870195,-2.3691291782200334
1772025103097094700,10.1860947265625,7.270136548927426,3.1552050291255114,-2.2399214912876486
1772025103107091700,10.196091796875,6.890098536431789,3.1627137973204253,-2.034874427255988
1772025103117088800,10.2060888671875,6.223391115489601,3.055938599209487,-2.1327657694265243
1772025103127085600,10.21608544921875,5.099834829571843,2.6043665055930614,-2.414561434356868
1772025103137082600,10.22608251953125,3.313678558030724,1.3723317247778177,-2.1749580207288264
1772025103147079700,10.23607958984375,0.525599745118618,-0.3684121643707156,-1.6744439092889427
1772025103157076500,10.246076416015624,-2.379827682366967,-2.1093208886921406,-0.6561266979560255
1772025103167073800,10.25607373046875,-5.049247967150807,-4.121208700375258,0.9818456757649778
1772025103177071600,10.266071533203124,-7.66025054975748,-6.172170046818256,2.755354354918003
1772025103187068700,10.276068603515625,-10.060378092831373,-7.268217563563585,3.722535545514524
1772025103197065500,10.2860654296875,-12.680182990574837,-7.382956872421502,4.052015629422664
1772025103207062800,10.296062744140626,-14.233528869628906,-7.895281540903449,5.060455005341768
1772025103217059600,10.3060595703125,-15.242210237610339,-5.311068765544891,3.040890959942341
1772025103227056600,10.316056640625,-14.649376446652411,-2.962820755051076,1.4760577644512056
1772025103237053700,10.3260537109375,-13.551928415459393,-3.6525279433086513,2.6836846647188066
1772025103247050800,10.33605078125,-13.566530941307544,-3.8553561622470616,4.612397641848028
1772025103257047600,10.346047607421875,-13.276851245129107,-4.388870626012981,7.101596091777086
1772025103267044900,10.356044921875,-13.515373585522173,-5.032673848968744,8.685618848645687
1772025103277041700,10.366041748046875,-13.643521826529502,-4.404546334050596,7.866607819604873
1772025103287038500,10.37603857421875,-12.491245642083882,-3.285485605986416,5.8741387018799776
1772025103297035800,10.386035888671875,-11.304148319625854,-2.2971496914193033,3.8194542432606218
1772025103307032600,10.396032470703124,-9.871356573188304,-1.5058230803787707,1.481840439505875
1772025103317029600,10.406029541015625,-8.050995834228395,-1.0379814044848084,-0.2667681916683912
1772025103327026700,10.416026611328125,-6.374629724705219,-0.7188052724480628,-1.0783975860252977
1772025103337023700,10.426023681640626,-4.356452165228128,0.046990883755683895,-0.9488874090149998
1772025103347021600,10.436021484375,-2.2235411421120164,0.9558207154095172,-0.33917788657993075
1772025103357018600,10.4460185546875,-0.411293566980958,1.7568886760026214,-0.3425783426731825
1772025103367015700,10.456015625,1.44653619415164,2.481177932819724,-0.8636120950505137
1772025103377012700,10.4660126953125,3.3599697690844534,3.0679543234348294,-1.5391104329526424
1772025103387009500,10.476009521484375,4.882019761642813,3.3692201202496883,-2.3508780667364597
1772025103397006800,10.4860068359375,6.220963011559844,3.437133380524814,-2.679282338106632
1772025103407003600,10.496003662109375,7.4375342657834285,3.4519925114825365,-2.6666996276482937
1772025103417000700,10.506000732421874,8.60562235186696,3.3490237199172377,-2.3065222076594827
1772025103426997800,10.515997802734375,9.20637758347392,3.0090742644429205,-1.478541105699539
1772025103436994800,10.525994873046875,9.350063585352897,2.6455735452502966,-0.8225356960356235
1772025103446991600,10.53599169921875,9.400966674116253,2.4774358236819505,-0.5605801653459668
1772025103456988700,10.54598876953125,9.805562204763293,2.5169217386350033,-0.27296529274284836
1772025103466985700,10.55598583984375,9.581833528876304,2.7419831244304773,-0.5902192245453596
1772025103476982500,10.565982421875,8.797562389305233,3.214434632207453,-1.249893093588948
1772025103486979800,10.575979736328126,8.5816008402884,3.693558749616146,-2.0583301216453314
1772025103496976600,10.5859765625,8.524469670790433,3.9664319801613686,-2.737286491046846
1772025103506973700,10.5959736328125,8.362713759213685,4.053649368104338,-3.0765786516562104
1772025103516970800,10.605970703125,8.402156127285958,4.14994555003792,-3.193227301266789
1772025103526968800,10.61596875,8.490724053055047,4.390542943139374,-2.9802804238960143
1772025103536965600,10.625965576171875,8.456223817560076,4.657659217593074,-2.632844996580481
1772025103546962700,10.635962646484375,8.324691779333353,4.8706414585381745,-2.511018067549169
1772025103556959700,10.645959716796876,8.132793827471136,4.953576346856355,-2.6904475829824803
1772025103566956800,10.655956787109375,7.7459934812337154,4.899014151063561,-3.087955493456125
1772025103576953600,10.66595361328125,7.441745161476731,4.6747409930363295,-3.2786382243096828
1772025103586950700,10.67595068359375,6.863325095796585,4.169778377754986,-3.291991334618628
1772025103596948200,10.6859482421875,5.967575694990158,3.454471761077642,-3.321816856300831
1772025103606945000,10.695945068359375,4.601464452162385,2.3748881801381705,-3.236626590271294
1772025103616942000,10.705942138671874,2.7815210618317128,0.8969675444245337,-2.6810183681190014
1772025103626939100,10.715939208984375,0.4345201287895441,-0.4358692053109407,-1.7010282570928335
1772025103636936000,10.72593603515625,-2.109278218594193,-1.649836414515972,-0.46436347838938236
1772025103646933000,10.73593310546875,-4.38427365361154,-3.5143218341454863,0.8277002391919493
1772025103656930000,10.745929931640624,-5.821864909285306,-6.153785079821944,1.8013988488584756
1772025103666927000,10.755927001953125,-7.912358932432531,-7.832920654058456,2.430462767843902
1772025103676924000,10.765923828125,-10.78889227386713,-8.604995744401217,3.209891728080809
1772025103686921200,10.775921142578126,-11.909932777571678,-9.490070606458186,4.514916926304996
1772025103696918000,10.78591796875,-12.633058835828303,-8.096626535546779,3.6279765626370906
1772025103706916000,10.795916015625,-12.006105333125591,-6.141610073381662,3.2432369483217593
1772025103716913000,10.805912841796875,-11.281672283923625,-6.106946756279468,4.763279108189046
1772025103726910200,10.81591015625,-10.811859307956695,-6.435107866543531,6.819475432676077
1772025103736907000,10.825906982421875,-10.588466732156276,-6.716918144521117,8.455725220388173
1772025103746904000,10.835904052734374,-10.469586670231818,-6.669878745448589,8.551660460054874
1772025103756901000,10.845901123046875,-10.109700049883127,-5.798457145690918,6.9041638866633175
1772025103766898200,10.855898193359375,-9.186984316217899,-4.928844056659937,4.519771088337898
1772025103776895000,10.86589501953125,-7.743490558502078,-3.9854230963572856,2.0830890075877306
1772025103786892000,10.87589208984375,-5.735121860855817,-3.228088186767697,0.3027431758910417
1772025103796889000,10.88588916015625,-4.088855706042051,-2.5591622129932046,-0.5286860206961631
1772025103806886000,10.895885986328125,-2.228707731094956,-1.3434361774221062,-0.539943327769637
1772025103816883200,10.90588330078125,-0.563153522965312,-0.16787264089137316,-0.3448845737889409
1772025103826880000,10.9158798828125,0.5170207173436879,1.3144926992714405,-0.444388027331233
1772025103836877000,10.925876953125,1.6032015045911072,2.4654063631922005,-1.4049702580541372
1772025103846874000,10.9358740234375,2.4768834504961967,3.2609459157526492,-2.7067811704069373
1772025103856871200,10.94587109375,3.349740636014938,3.6690702050477264,-3.4405177622660994
1772025103866868000,10.955867919921875,3.8452363347709175,3.5631627296820283,-3.813726221002638
1772025103876865000,10.965864990234374,4.474666456720232,3.3728307119622825,-3.4926463011711832
1772025103886862000,10.975862060546875,5.236906381747127,2.9260289014875887,-2.6672660293594
1772025103896860200,10.985860107421875,5.5628691051840775,2.6243627071782947,-1.8447066601872444
1772025103906857000,10.99585693359375,5.787403836756944,2.492008246652782,-1.2625360098019243
1772025103916854000,11.00585400390625,5.953692715588212,2.4083783618077637,-1.1158949575096369
1772025103926851000,11.01585107421875,6.1025248481839895,2.3433009094804524,-1.4709092956468461
1772025103936848100,11.02584814453125,6.011087504458427,2.3373718116924165,-2.1754744458183644
1772025103946845000,11.035844970703126,5.947818855118751,2.4412352140098807,-2.6630162629604337
1772025103956842000,11.045842041015625,5.7778767144769425,2.6954715486243366,-2.7026886403962966
1772025103966839000,11.055839111328124,5.6574131827533245,2.7984909013330936,-3.203407042236626
1772025103976835800,11.0658359375,6.006206162157654,2.904851088902354,-3.0635303695127365
1772025103986833200,11.075833251953124,6.201684895116091,3.2034745545148846,-3.0988129875570536
1772025103996830000,11.085829833984375,6.651987114927172,3.5778023726701735,-3.0082296303123233
1772025104006827000,11.095826904296874,6.693696258887648,3.82644191019088,-3.043159781657159
1772025104016824000,11.105823974609375,6.884953574758768,4.374015878969431,-3.0732801946327086
1772025104026821000,11.115821044921875,6.907542423185705,4.693755197846889,-3.4744641632705924
1772025104036818000,11.12581787109375,7.007888465031981,4.533052594715357,-3.691657884430885
1772025104046815200,11.135815185546875,6.311950273430347,4.0538118651896715,-3.5734424238950013
