time,seconds_elapsed,z,y,x
1772025033398569500,0.080569580078125,0.7103110003471375,-0.5658826556682587,-0.6278517667166889
1772025033408566300,0.090566162109375,0.7773007160365581,-0.643905368155986,-0.8145046575322746
1772025033418563300,0.100563232421875,0.4040805668622255,-0.4156738278917968,-0.7096671494856477
1772025033428560400,0.110560302734375,-0.006342647024989128,-0.21028847181648014,-0.7386760940879583
1772025033438557400,0.120557373046875,-0.20500234810709952,-0.23271087763532994,-0.7820103550322354
1772025033448554200,0.13055419921875,-0.42611645758152006,-0.2107877996407449,-0.7691559880256652
1772025033458551300,0.14055126953125,-0.4350006057828665,0.8132932359158992,-1.2199863233640789
1772025033468548400,0.15054833984375,-0.7305348732084035,2.0184723046399653,-1.5010105655305086
1772025033478545200,0.160545166015625,-0.3565279575705528,1.9347214237637818,-0.902604235137254
1772025033488542200,0.170542236328125,0.5834188968807459,0.9749120771095157,-0.20661475173979996
1772025033498539300,0.180539306640625,0.6036766720116138,0.04290244539827108,-0.16884674662053584
1772025033508536300,0.190536376953125,0.9099410077661275,-0.3947076122306287,-0.21426336679682134
1772025033518533000,0.200533203125,1.9929332281053065,-0.6990216907002031,0.13085077796429395
1772025033528533800,0.21053369140625,3.319889103108644,-0.9104746762514114,0.3765700441241264
1772025033538530800,0.22053076171875,4.241408904987574,-0.9602481764629482,0.3110702747315168
1772025033548527600,0.230527587890625,4.514356077551842,-1.0751214869640766,0.08072393427044153
1772025033558525000,0.24052490234375,4.166524636656046,-1.1882720653258263,-0.33414719893634315
1772025033568521700,0.250521728515625,2.387235328274965,-1.1363839110478757,-1.0115963786453008
1772025033578518500,0.2605185546875,-1.2526204727262258,-0.6701885410562157,-0.8092062588632106
1772025033588515800,0.270515869140625,-4.10743239621818,-0.5101581380978226,1.9696692568957805
1772025033598512600,0.2805126953125,-4.846718731158972,-0.32968729691803456,2.6725322793245314
1772025033608509700,0.290509765625,-3.867043092909455,0.6195432264462113,3.2168188969954845
1772025033618506800,0.3005068359375,-0.48098026666939253,0.5067229029521346,2.602247906003892
1772025033628502800,0.310502685546875,2.272019634076953,-0.6007131460309029,1.1677312354698777
1772025033638499800,0.320499755859375,2.7865941273123025,-1.4722741542592643,0.5326987634688616
1772025033648496600,0.33049658203125,1.7846452824562786,-1.644800758436322,1.0363777686804532
1772025033658493700,0.34049365234375,1.04061730594635,-1.727754643715918,1.452256033103168
1772025033668490800,0.35049072265625,1.3507511766105889,-1.5867817001879214,1.613299120235443
1772025033678487800,0.36048779296875,1.5444938795566558,-1.0374649793952704,1.4159642380163073
1772025033688484600,0.370484619140625,1.3912258103400468,-0.35846798572242256,0.9101030664600431
1772025033698482000,0.38048193359375,1.1130249550312756,0.4170192511513829,0.07088248534426092
1772025033708478700,0.390478759765625,0.9259043005734682,0.9416349536687135,-0.7329059862539171
1772025033718475800,0.400475830078125,3.279427913382649,0.8766209219664335,-1.2044000471755862
1772025033728472800,0.410472900390625,3.1527544211030003,0.8964902823016047,0.10428411194756626
1772025033738470000,0.420469970703125,1.0098480736732482,0.2886497686088085,1.5119151136435567
1772025033748466700,0.430466796875,0.37505496338605876,-0.5186126627102494,1.806958382681757
1772025033758463700,0.440463623046875,1.574305664974451,-0.8214899863749742,1.2763861098475753
1772025033768460800,0.450460693359375,2.626084416404366,-0.3589069616615772,0.5676214621596039
1772025033778457600,0.46045751953125,3.1404139949679375,0.15790157423615456,0.09484481408149004
1772025033788454700,0.47045458984375,3.2536236100405453,0.7350482589796185,-0.02385594575330615
1772025033798451700,0.48045166015625,3.095076139116287,1.3027803419068456,0.3123729548279196
1772025033808448800,0.49044873046875,2.7421540970832106,1.7311252891927957,0.33302572062574326
1772025033818445600,0.500445556640625,2.6143852107822894,2.1143825559958813,0.193164683862403
1772025033828443000,0.51044287109375,3.0911721174150704,2.3062930750787256,-0.19781550534293055
1772025033838439700,0.520439697265625,3.5244255872696635,2.4233432912275195,-0.9522915914352983
1772025033848436700,0.530436767578125,3.197500156280398,2.2478771264672277,-1.1001822053972632
1772025033858433800,0.540433837890625,3.612924539455771,1.138727843825519,-0.7425830383986234
1772025033868430800,0.550430908203125,4.56215827769041,0.5870663134723901,-1.24109150910452
1772025033878427600,0.560427734375,4.905790513330698,0.9205565098047256,-1.398043673661351
1772025033888424700,0.5704248046875,3.6786025880247353,1.124087616315484,-0.11259046026095747
1772025033898421800,0.580421875,1.5278209771752356,0.648628451155126,0.9474079841122031
1772025033908418600,0.59041845703125,-0.951971638765931,-0.254099556492269,0.06927576253367587
1772025033918416000,0.600415771484375,-3.4196956312507387,-1.2646595778271554,-0.5871078145265579
1772025033928412700,0.61041259765625,-6.6913453118473285,-2.341541206331551,-0.3927279096554965
1772025033938409700,0.62040966796875,-11.81945580331087,-3.980543799883127,0.16634342203009872
1772025033948406800,0.63040673828125,-15.33788244242668,-5.947936928540468,0.15268272534301502
1772025033958403800,0.64040380859375,-15.859966872900724,-6.862970875531435,-1.3740049186870456
1772025033968400600,0.650400634765625,-15.240701002091168,-5.861252332299947,-3.2082889690592884
1772025033978398000,0.66039794921875,-13.670371255010366,-4.295129973781108,-3.7453991192296145
1772025033988394800,0.670394775390625,-13.923637575548886,-3.683855393986404,-4.189594838859141
1772025033998391600,0.6803916015625,-12.005803719830512,-2.7183143718123435,-4.31172630379498
1772025034008387800,0.690387939453125,-9.648929627549649,-2.4347253937244413,-2.904470565152168
1772025034018384600,0.700384521484375,-8.93655000423491,-2.856338402406871,-1.8124492351830004
1772025034028382000,0.7103818359375,-7.301227852761745,-2.501629769217968,-0.8900961973503232
1772025034038378800,0.720378662109375,-5.228602079260349,-1.4951383124962447,0.22510524320350958
1772025034048375800,0.730375732421875,-3.7935686913758513,-0.5882151912465691,1.0618446567617357
1772025034058372600,0.74037255859375,-2.4151579389452933,0.039211774186789984,1.5835104234322905
1772025034068369700,0.75036962890625,-0.9190566266357898,0.45690088742375373,1.8344775271177292
1772025034078366700,0.76036669921875,0.33971769254505635,0.6918684579446911,1.8503148554578421
1772025034088363500,0.770363525390625,1.3685522062391042,1.0010855060249566,1.6956826582811773
1772025034098360800,0.78036083984375,2.3670295755922792,1.3172794073805212,1.4989927959673106
1772025034108357600,0.790357666015625,3.294329714438319,1.5891533977553247,1.3464549407213926
1772025034118354700,0.800354736328125,3.87462434181869,1.7606871915027498,1.4059801657490432
1772025034128351700,0.810351806640625,4.42495053191483,1.8455124236121772,1.2983439668945966
1772025034138348800,0.820348876953125,5.204197121322155,1.972762254475057,0.8979111088849604
1772025034148345600,0.830345703125,5.845467318668961,1.9867045628488063,0.7392837776575237
1772025034158343000,0.840343017578125,6.418022876229882,1.672993564350158,0.880515518252179
1772025034168339700,0.850339599609375,6.975646237596869,1.1467206692103296,0.9128285459011792
1772025034178336800,0.860336669921875,7.3999541844516985,0.7162631867498159,1.0421792215008288
1772025034188333800,0.870333740234375,7.730124296450614,0.5102404826190322,1.2361033454284072
1772025034198330600,0.88033056640625,7.927132723194361,0.5610452986396849,1.358479725036025
1772025034208327700,0.89032763671875,8.297834167546034,0.5810794941477477,1.4456190793067216
1772025034218324700,0.90032470703125,8.579690622752905,0.4362373810362071,1.6325309133194386
1772025034228321800,0.91032177734375,8.74365076637566,0.6719081313904375,1.3778975422114133
1772025034238318600,0.920318603515625,8.83645121514797,0.882591155482456,1.2066907153960316
1772025034248316000,0.93031591796875,9.166237880787254,0.7747140605442225,1.303734573891759
1772025034258312700,0.940312744140625,9.270212634524702,0.995495430932939,1.4658373992100358
1772025034268309800,0.950309814453125,9.22370339680612,1.2678963677912949,1.640091557832062
1772025034278306800,0.960306884765625,9.231748756095767,1.3363302909396588,1.7316193563200533
1772025034288303900,0.970303955078125,9.410072940635681,1.3861203038945793,1.6777989188052713
1772025034298300700,0.98030078125,8.796685021948814,1.6374200005352497,0.36786687851287425
1772025034308297700,0.990297607421875,6.908630802944302,1.4939341974034905,1.6429577609181403
1772025034318294800,1.000294677734375,8.124683586251734,0.6736945033505558,0.8790182654317468
1772025034328291600,1.01029150390625,5.952942189481854,0.9423112454950809,0.3679341715954244
1772025034338289000,1.020288818359375,3.3503029460728166,0.15706600019484757,-0.00555273875631392
1772025034348285700,1.03028564453125,0.3584539571970701,-1.345297879640758,-0.7665021855812519
1772025034358282800,1.04028271484375,-4.063026268258691,-2.587669053292274,-1.5449248183198272
1772025034368279800,1.05027978515625,-7.561706588897109,-3.7203149468556043,-3.078642306187749
1772025034378276900,1.06027685546875,-9.316981984484196,-4.014820455755293,-4.578681250207126
1772025034388273700,1.070273681640625,-10.054141244268417,-4.237300008364022,-5.414812048614025
1772025034398270700,1.080270751953125,-11.12560026320219,-5.650622207438945,-5.900531034243106
1772025034408267800,1.090267822265625,-12.7671201002717,-7.033333287411928,-4.986647426331043
1772025034418264600,1.1002646484375,-13.423907600224018,-6.5334139269948,-4.195280775541067
1772025034428261600,1.11026171875,-12.096848849368095,-4.870979312190413,-4.971252873322367
1772025034438258700,1.1202587890625,-9.410679089835286,-4.204455431121588,-5.431135406905413
1772025034448255700,1.130255859375,-7.155781855472922,-4.9234313839614385,-3.4522520392015577
1772025034458252500,1.14025244140625,-6.142011055397987,-6.068158468201756,-0.7964185273520648
1772025034468249900,1.150249755859375,-5.349204142671823,-6.218077811512351,0.4777561900563538
1772025034478246700,1.16024658203125,-3.9096670136272906,-5.686017345947027,0.965238385965675
1772025034488243700,1.17024365234375,-2.884088286858797,-5.080870601382851,1.5890522754684089
1772025034498239700,1.18023974609375,-1.9686469281107186,-3.7697926789909597,1.8052327279329299
1772025034508236500,1.190236572265625,-0.8058066795527935,-2.169026000331342,2.2535329602718353
1772025034518233900,1.20023388671875,0.24776129338145256,-0.6630252252981066,2.047452461539209
1772025034528227300,1.210227294921875,1.34942489644289,0.9851765737533569,0.9671476536531001
1772025034538224400,1.220224365234375,2.2700375203490255,2.3214587877675887,0.32786957997158167
1772025034548221400,1.230221435546875,2.9863106439709663,3.134850807882845,-0.1649006393432617
1772025034558218500,1.240218505859375,3.4251521430909633,3.293178498576581,-0.28020393875949084
1772025034568215300,1.25021533203125,3.8225761746734377,3.1227666945964097,-0.13667568472549319
1772025034578212400,1.26021240234375,4.710460833454132,3.0467250729233024,0.2974306025661528
1772025034588209400,1.27020947265625,5.761285645160078,2.703319339515269,0.8190873091474175
1772025034598206200,1.280206298828125,6.437541231170297,2.08042782555446,1.3387147018581629
1772025034608203500,1.29020361328125,6.933341465830803,1.4283917579129337,1.8081774030826985
1772025034618200300,1.300200439453125,7.407514975094795,0.9951127152256667,2.11843694595322
1772025034628197400,1.310197265625,7.555463895115256,0.5778730993218719,2.251605499340594
1772025034638194400,1.3201943359375,7.507944019049406,0.1452588772188872,2.318571541893482
1772025034648191500,1.33019140625,7.464102539235353,-0.14165237715952098,2.2444366306245325
1772025034658188300,1.340188232421875,7.445877146714925,-0.37048385607823725,1.994951143798977
1772025034668185600,1.350185546875,7.289312958562373,-0.43280967160984873,1.8227587400123475
1772025034678182400,1.360182373046875,7.090332939484715,-0.33966303974837064,1.8066659756064414
1772025034688179200,1.37017919921875,7.012887296232581,-0.20286504381746054,1.6812047817260025
1772025034698176300,1.38017626953125,6.819845435032248,-0.10678878824487328,1.5490782847374678
1772025034708173300,1.39017333984375,6.664456135877966,-0.07103665299266576,1.4653753346562384
1772025034718170400,1.40017041015625,6.3498202776193615,-0.1773059474080801,1.4239046756267546
1772025034728167200,1.410167236328125,5.783948143345118,-0.26433424251973625,1.4180932128690182
1772025034738164500,1.42016455078125,5.210189639735222,-0.287497237572819,1.3893015642791986
1772025034748161300,1.430161376953125,4.211432284396887,-0.3633243397124111,1.2582621318750082
1772025034758158300,1.440158447265625,2.414990765684843,-0.5113908947631717,0.9747875739470123
1772025034768155400,1.4501552734375,-0.007926116824150085,-0.6825345201492309,0.47715106377005573
1772025034778152400,1.46015234375,-2.3104238912731407,-1.4174202820435164,-0.32979207246676084
1772025034788149200,1.470149169921875,-4.769004207837582,-2.547650346636772,-1.3433815246254206
1772025034798146600,1.480146484375,-7.910315443906187,-3.361859236092865,-1.8572914164721965
1772025034808143400,1.490143310546875,-10.885228495550155,-3.5047833136886357,-3.1713375410199163
1772025034818140200,1.50014013671875,-12.662780604875087,-3.1509634460330007,-5.319509261631965
1772025034828137500,1.510137451171875,-15.013545274364947,-3.435632036051154,-5.8571372981965535
1772025034838134300,1.52013427734375,-17.387106297552585,-3.780256497599184,-5.091271583887934
1772025034848131300,1.53013134765625,-17.62585777052641,-2.64162246953696,-5.498114601200819
1772025034858128400,1.54012841796875,-16.2376393253088,-1.0272130499720573,-7.218795653268694
1772025034868125400,1.55012548828125,-14.195462466084956,-1.0660855092018842,-6.013017595738172
1772025034878122200,1.560122314453125,-12.749575091230868,-2.287193237811327,-3.4956910756945607
1772025034888119600,1.57011962890625,-12.023621116071938,-3.729930331940949,-1.7993647126823662
1772025034898116400,1.580116455078125,-10.858806937092542,-4.898756084649264,-0.1571903572268784
1772025034908113400,1.590113525390625,-9.455506658077239,-5.529371324729919,0.6040135027505457
1772025034918110500,1.6001103515625,-8.40267459820211,-4.83970914465785,0.6652668667450546
1772025034928107300,1.610107177734375,-6.681032592147588,-3.498765953095257,0.7728945169668644
1772025034938104300,1.620104248046875,-4.667546989879011,-2.4193460382848975,0.4590799119632691
1772025034948101400,1.630101318359375,-2.6641455592513084,-1.1016183026149868,0.12100728321149945
1772025034958098400,1.640098388671875,-0.6998550727844238,0.24657997464239595,0.1260471770748496
1772025034968095200,1.65009521484375,0.919102803865075,1.3027815109506249,0.1512036840327084
1772025034978092500,1.660092529296875,2.487826284793019,2.2256933517098427,0.19128325402997434
1772025034988089300,1.67008935546875,3.923762174475193,2.9254452563807365,0.25783114423602815
1772025034998086400,1.68008642578125,5.007436531859636,3.481276181373,0.34579438211023805
1772025035008083500,1.69008349609375,6.128515614008903,3.9805145737886427,0.3588882569611072
1772025035018080500,1.70008056640625,7.156451133036613,4.048482486860454,0.493769240289554
1772025035028077300,1.710077392578125,8.055037803095578,3.7136011284306645,0.7925549837917089
1772025035038074400,1.720074462890625,8.660265211680532,3.4069740968436,1.0987395323082805
1772025035048071400,1.730071533203125,9.251161312574148,3.3655010997265578,1.2089964350551365
1772025035058068200,1.740068115234375,9.758010764515399,3.415591995324194,1.3552527258135378
1772025035068065300,1.750065185546875,10.0742394449234,3.4276483438208696,1.5121625125333666
1772025035078062300,1.760062255859375,10.328464381361007,3.45129576139003,1.5114694157026707
1772025035088059400,1.770059326171875,10.509114378499984,3.5343414166063067,1.6057294156335293
1772025035098056200,1.78005615234375,10.536087725621462,3.5871982697859406,1.7010009306944907
1772025035108053500,1.790053466796875,10.525786111837625,3.599539864964783,1.708832501102984
1772025035118050300,1.80005029296875,10.494375074529648,3.644853170897066,1.720791672835499
1772025035128047400,1.81004736328125,10.342681122761965,3.7339632407188414,1.7019095699720084
1772025035138044400,1.82004443359375,10.119278025567532,3.7397239962026476,1.6579676985234022
1772025035148041500,1.83004150390625,9.895464594006539,3.663700202447176,1.5998143463708459
1772025035158038300,1.840038330078125,9.629998717108368,3.482441718021035,1.4216367306947708
1772025035168034300,1.850034423828125,9.14710764838159,3.3738457342237234,1.2035903382278978
1772025035178032400,1.860032470703125,8.62414117437601,3.1981814165428277,0.9043849080089479
1772025035188028400,1.8700283203125,7.7448752908587455,2.9703686862125993,0.523700195107609
1772025035198025500,1.880025390625,6.440517032110691,2.6741137032970785,0.12454773229733108
1772025035208022300,1.890022216796875,4.891421796238422,2.0970772009298204,-0.32486309163197874
1772025035218019600,1.90001953125,2.790367800632119,1.2748390265360474,-0.8886993361644446
1772025035228016400,1.910016357421875,0.24544074147939682,-0.28131255758851764,-1.430659118323028
1772025035238013200,1.92001318359375,-2.836316481858492,-2.713389774891734,-2.070652135340869
1772025035248010500,1.930010498046875,-6.37076720405817,-4.63850297396332,-3.2996868575572966
1772025035258007300,1.94000732421875,-9.600779052364826,-5.194844771087169,-5.001783036142587
1772025035268004400,1.95000439453125,-12.240512639415263,-6.786394416329264,-5.561085144376754
1772025035278001400,1.96000146484375,-15.624860478430985,-8.228289506676793,-5.372466360315681
1772025035287998500,1.96999853515625,-17.544010677444934,-6.8448489433854816,-6.961270506241918
1772025035297995300,1.979995361328125,-16.63167722158432,-4.445607535496354,-9.968893402832746
1772025035307992600,1.98999267578125,-14.702186830341816,-3.930533276045322,-9.695876087641716
1772025035317989400,1.9999892578125,-12.811459592735767,-5.499978641507029,-6.338827174440026
1772025035327986400,2.009986328125,-11.635240222644805,-6.553412174406647,-4.17533864223063
1772025035337983500,2.0199833984375,-9.907612127918004,-6.5052545849591485,-2.855193324024975
1772025035347980300,2.029980224609375,-8.358458439856767,-6.046741586163639,-1.31956634927392
1772025035357977300,2.039977294921875,-7.390908708208799,-4.632877243036032,-0.3968570453494787
1772025035367974400,2.049974365234375,-5.773102339681983,-2.6724375867784023,-0.08442439622357487
1772025035377971500,2.059971435546875,-3.891847279298305,-1.1465429014906285,-0.08703808585330844
1772025035387968300,2.06996826171875,-2.132564986157417,0.41699382444918154,-0.2905183389596641
1772025035397965300,2.07996533203125,-0.35162031178474423,1.7398469403088093,-0.2799266561880708
1772025035407962400,2.08996240234375,1.132896361193061,2.5699118628054856,0.0604920242331922
1772025035417959400,2.09995947265625,2.3565648802012205,3.159857238845527,0.36253523516133423
1772025035427956200,2.109956298828125,3.47428179244101,3.6089556358247994,0.4674182628501206
1772025035437953500,2.11995361328125,4.702625317522883,3.7860526166573165,0.5159474620889872
1772025035447950300,2.129950439453125,5.8440182889044285,3.663783496816456,0.6311676132664084
1772025035457947100,2.139947021484375,6.838785697823763,3.2721184671521186,0.9295465295333415
1772025035467944400,2.1499443359375,7.645259316852688,2.7895494699865577,1.251195116098225
1772025035477941200,2.159941162109375,8.160663246649504,2.4719950939327475,1.4497145319268105
1772025035487938300,2.169938232421875,8.593773508641123,2.344504440051317,1.512310981093347
1772025035497935400,2.179935302734375,8.893072681558131,2.2300912944078446,1.5227354906044899
1772025035507932400,2.189932373046875,9.160611857599019,2.0714310107588765,1.5389495433025062
1772025035517929200,2.19992919921875,9.376901907917857,2.0050424758329988,1.5455561019606887
1772025035527926500,2.209926513671875,9.45269160065651,1.949283763732016,1.5692935359008608
1772025035537923600,2.219923583984375,9.454314817944168,1.8209104817971586,1.6242621205374597
1772025035547920400,2.22992041015625,9.380381566727161,1.798604249703884,1.7198080686256287
1772025035557917700,2.239917724609375,9.237994957008958,1.834901013226807,1.8473641889587045
1772025035567914500,2.24991455078125,9.023748979738354,1.7981851475089787,1.9385107330441473
1772025035577911300,2.259911376953125,8.824694141858815,1.677011421689391,1.9707649431779979
1772025035587908600,2.26990869140625,8.569406544625759,1.5382166989833115,1.9702154926016926
1772025035597905400,2.279905517578125,8.188983916726707,1.3675348458901047,1.9879376117751002
1772025035607902500,2.28990234375,7.674311808335781,1.1970379939749836,1.8726850926980376
1772025035617899500,2.2998994140625,6.948234499058127,0.9914625221550464,1.6573172717906535
1772025035627896600,2.309896484375,5.732867944449186,0.5606853792861104,1.3840307842694222
1772025035637893400,2.319893310546875,4.050404687094688,-0.10618863039463758,1.0979491125829517
1772025035647890700,2.329890625,1.9503385334819554,-1.197311550219357,0.632610943942517
1772025035657887500,2.339887451171875,-0.7869529260009527,-2.073243028616905,-0.4714448149524629
1772025035667884500,2.349884521484375,-3.5025516091138122,-2.613016552777588,-1.3976416687317192
1772025035677881600,2.359881591796875,-5.888844688102602,-3.9323488010346885,-2.1992104184538124
1772025035687878700,2.369878662109375,-8.514725690889358,-6.019526831501722,-3.1723148616194723
1772025035697875500,2.37987548828125,-12.158971835803985,-7.743435613444447,-3.2503631469398737
1772025035707872500,2.38987255859375,-15.585487083941697,-9.35192470304966,-2.4265920638903973
1772025035717869600,2.39986962890625,-17.79633124156594,-9.428794007718562,-2.8913781516060233
1772025035727866400,2.409866455078125,-18.12342033868432,-6.278191796213388,-5.57771011596322
1772025035737863400,2.419863525390625,-16.972806534492968,-3.540501400540769,-6.594347995907068
1772025035747860500,2.429860595703125,-15.351455040705202,-3.067015581279993,-5.393603840890527
1772025035757857500,2.439857421875,-14.628800107091664,-3.6966535007610917,-3.730398241713643
1772025035767854300,2.449854248046875,-13.52384915292263,-3.9553950378403067,-2.6392960724160073
1772025035777851600,2.4598515625,-11.2364747133255,-4.035390950097144,-1.614250429610908
1772025035787848400,2.469848388671875,-9.444168102461099,-4.419974789328873,-0.4359968137459829
1772025035797845500,2.479845458984375,-8.182372974154353,-3.955400006276369,0.4574581194477155
1772025035807842600,2.489842529296875,-6.533123419615626,-3.038969051969051,0.8269029513344168
1772025035817839400,2.49983935546875,-4.74284100805521,-1.7445257457748053,0.6287622326251119
1772025035827836400,2.50983642578125,-2.7658763334542513,-0.3731701725527644,0.357872723243013
1772025035837833500,2.51983349609375,-0.8513537942409515,0.7384446234196425,0.2163207011854276
1772025035847830500,2.52983056640625,0.8670634045481681,1.664765688100457,0.1953510879907757
1772025035857827300,2.539827392578125,2.3381267217129467,2.3977260348901153,0.25841420482099053
1772025035867824600,2.54982470703125,3.522757361796498,2.873622130163014,0.2875298977334052
1772025035877821400,2.559821533203125,4.640307685297727,3.09569544005841,0.2991674728287384
1772025035887818500,2.569818603515625,5.7323249236136675,3.1659602318957445,0.25324725051186975
1772025035897815600,2.579815673828125,6.583007686725258,3.086157796384394,0.15429668161198495
1772025035907812600,2.5898125,7.131328382217884,2.8317586724236605,0.1560599466911517
1772025035917809400,2.599809326171875,7.775939706686138,2.841192855723202,0.12028744450435042
1772025035927806500,2.609806396484375,8.197826563873887,3.0000881171718237,0.1964132921284996
1772025035937803500,2.619803466796875,8.345499589562415,2.9792998884260653,0.2788200649193488
1772025035947800300,2.62980029296875,8.56623551337421,2.9634356720790267,0.04847112150923349
1772025035957797600,2.639797607421875,8.755381536179781,2.7416587147817015,-0.11159946732907555
1772025035967794400,2.64979443359375,9.19761501582563,2.446160687713325,0.5300710087811574
1772025035977791500,2.65979150390625,9.506709606570006,2.9455507635593414,0.553710133446008
1772025035987788500,2.66978857421875,9.145620624694228,3.439396941542625,0.5282720696004107
1772025035997785600,2.67978564453125,8.795670876470208,3.1932723094522952,0.4416422357544303
1772025036007782400,2.689782470703125,8.882491081789135,2.6817396681308745,0.3338602717537433
1772025036017778400,2.6997783203125,9.047530252820254,2.964524344098568,0.333438064286299
1772025036027775500,2.709775390625,8.678795724627376,3.537887126389146,0.40407347953431305
1772025036037772500,2.7197724609375,8.156714216762781,3.5947511693835255,0.346739115614444
1772025036047769600,2.72976953125,7.705770191916823,3.4494337669104334,0.2504452352358028
1772025036057766400,2.739766357421875,7.05554161208868,3.287616480535269,0.06772303493265062
1772025036067763500,2.749763427734375,6.09799071188569,3.0440508852779864,-0.24430410213228312
1772025036077760500,2.759760498046875,4.718366492012143,2.8815257428944108,-0.5821907433252781
1772025036087757600,2.769757568359375,2.803413744688034,2.7079952223718164,-1.0375639097250997
1772025036097754400,2.77975439453125,1.0623469071954488,1.7718296400249003,-2.011121795746684
1772025036107751700,2.789751708984375,-0.039351767179369924,0.43518005400300025,-2.930476236285269
1772025036117748500,2.79974853515625,-1.8165782978117464,-0.6485130080819129,-3.0628350807249545
1772025036127745300,2.809745361328125,-4.235678252381086,-2.0558324596107003,-2.920185436156392
1772025036137742600,2.81974267578125,-6.488391712963581,-3.99555139940083,-2.867392588123679
1772025036147739400,2.829739501953125,-8.92106894198656,-5.759131097474694,-2.0187142967022953
1772025036157736400,2.839736328125,-11.740084744954109,-7.432781518298387,-0.3728211399193853
1772025036167733500,2.8497333984375,-13.635644809544086,-7.469009015977382,-0.3790717247467488
1772025036177730600,2.85973046875,-13.282223001295327,-4.4093841294705864,-2.861501484258473
1772025036187727400,2.869727294921875,-11.340073034965991,-3.3137808493614194,-3.5616219299808143
1772025036197724700,2.879724609375,-10.777454349529743,-4.741716972461343,-2.3640667802639306
1772025036207721500,2.889721435546875,-11.046429111331701,-5.503829471716284,-1.201736965446174
1772025036217718500,2.899718505859375,-9.782767604631186,-5.425736178210378,-0.8201615873154252
1772025036227715600,2.909715576171875,-8.430846799719333,-5.295993946009874,-0.47618028250914063
1772025036237712400,2.91971240234375,-7.547012293112277,-4.766105563786626,0.20247377947755157
1772025036247709400,2.92970947265625,-5.84578705214262,-3.4882927821367975,0.3979200349384919
1772025036257706500,2.93970654296875,-3.9997044274270532,-2.184968250350654,0.15283581527918577
1772025036267703600,2.94970361328125,-2.2856606214165684,-0.994818262323737,-0.00477200017478317
1772025036277700400,2.959700439453125,-0.764355894267559,0.0903106777831912,-0.18040259824916718
1772025036287697700,2.96969775390625,0.5261357516914605,0.9803300105050206,-0.29981589026749134
1772025036297694500,2.979694580078125,1.6080968754172325,1.464739959362149,-0.2757096960801631
1772025036307691500,2.98969140625,2.3120278193384407,1.5526128886044024,-0.2620978617697954
1772025036317688600,2.9996884765625,2.8649036939173933,1.574119202491641,-0.21536526362411676
1772025036327685600,3.009685546875,3.5858658521384,1.6392963158011435,0.07002806047201156
1772025036337682400,3.019682373046875,4.406904587614536,1.6519465385377405,0.3751964176833629
1772025036347679500,3.029679443359375,5.339166148260236,1.8624165044009684,0.5087229176629334
1772025036357676500,3.039676513671875,6.003150866240262,1.72756408957988,0.6712460872851311
1772025036367673300,3.04967333984375,6.575604716992378,1.4006506412893533,0.8768885599266737
1772025036377670400,3.05967041015625,7.116756836029887,1.0187789836257695,1.2310077758550644
1772025036387667500,3.06966748046875,7.446498493483662,0.6797311531662941,1.4911442744240164
1772025036397664500,3.07966455078125,7.629042926067114,0.4011278545364737,1.5975979854956268
1772025036407661300,3.089661376953125,7.764398321974277,0.17930121287852524,1.7142520419336855
1772025036417658600,3.09965869140625,7.878841862756014,0.07890665571540594,1.778301027996093
1772025036427655400,3.109655517578125,7.929173289111256,0.16395371388196944,1.7660624548003077
1772025036437652500,3.119652587890625,7.883134591513872,0.37160102353990077,1.8506141306653618
1772025036447649500,3.1296494140625,7.850919252085685,0.658699471053481,1.8220855169259011
1772025036457646600,3.139646484375,7.816924628025293,0.900941416491568,1.5775765033386646
1772025036467643400,3.149643310546875,7.657682745096087,1.1020531869009136,1.4787646853223442
1772025036477640400,3.159640380859375,7.495697116416692,1.3498396147236227,1.4345099485322832
1772025036487637500,3.169637451171875,7.275091540986299,1.5799997849628329,1.379139505096525
1772025036497634300,3.17963427734375,6.895576091060042,1.693058008866012,1.3506085532695054
1772025036507631600,3.189631591796875,6.230832663667202,1.876224080479145,1.3433503988347948
1772025036517628400,3.19962841796875,5.273735936972499,2.0863401183381676,1.3406773802332579
1772025036527625000,3.209625,4.073392763972282,1.9858345020160078,1.2509610150814057
1772025036537621800,3.219621826171875,2.6601807472735644,1.65986476431638,0.8984305296491831
1772025036547618800,3.229618896484375,1.0080401474684477,1.1491866939976811,0.535022676371783
1772025036557615900,3.239615966796875,-1.0634271036475895,0.4598664592310786,0.4949105923444032
1772025036567613000,3.249613037109375,-3.189372963926196,-0.8792118152424693,0.728759534098953
1772025036577609700,3.259609619140625,-5.888040970504283,-2.9000559635803103,0.22967224059179425
1772025036587606800,3.269606689453125,-9.68312941879332,-4.495610752810538,-0.9022820174455642
1772025036597603800,3.279603759765625,-12.73914955880642,-5.500982265591621,-1.1807434233866632
1772025036607600600,3.2896005859375,-15.633790803861617,-4.861394906765223,-2.5686960572749373
1772025036617597700,3.29959765625,-15.964669940912723,-2.446881695464253,-5.143400415053963
1772025036627594800,3.3095947265625,-14.39818167169094,-0.6645467357769608,-6.438570574218034
1772025036637591800,3.319591796875,-13.092247541928291,-1.2183406019836664,-5.1948009319454425
1772025036647588600,3.329588623046875,-13.82640820441842,-2.6583099849656224,-2.9732512559115887
1772025036657586000,3.3395859375,-13.35055010306835,-3.3049159903824328,-1.6199777212165296
1772025036667582700,3.349582763671875,-11.870898405778407,-3.384237948900461,-1.0134356498364359
1772025036677579800,3.359579833984375,-11.330147853279113,-3.362621160376072,-0.4128534367088228
1772025036687576800,3.369576904296875,-9.739839148008823,-2.6677736866205928,-0.10958053785525261
1772025036697574000,3.379573974609375,-7.584594712531566,-1.8743933579206467,-0.46064449439886956
1772025036707570700,3.38957080078125,-5.614730225324631,-0.9981406847447156,-0.9972225469864904
1772025036717567700,3.399567626953125,-3.5683436394512653,-0.19492022229284048,-1.3370783328279852
1772025036727564800,3.409564697265625,-1.5625713880389929,0.21923136446774005,-1.3752268616974352
1772025036737561600,3.4195615234375,0.3237807032227516,0.3218551419876516,-1.166094501113519
1772025036747559000,3.429558837890625,1.9846528910160064,0.23879370468035338,-1.0270727647185325
1772025036757555700,3.4395556640625,3.302211407598853,-0.2644341957628727,-0.7999437058035284
1772025036767552800,3.449552734375,4.197172288376093,-0.827963858564198,-0.528492945809476
1772025036777549800,3.4595498046875,4.956927995371818,-0.9746925891399383,-0.27470888500716534
1772025036787547000,3.469546875,5.710394246834516,-1.0259022596344352,-0.02501549105197191
1772025036797543700,3.479543701171875,6.275831496822834,-1.3158204407438634,-0.00849208014383912
1772025036807541000,3.489541015625,6.655097355902194,-1.3932722214758395,0.03213533299453556
1772025036817537800,3.499537841796875,7.138724922209978,-1.0934554544255137,0.36845037748925386
1772025036827534600,3.50953466796875,7.591486225610971,-0.6511886570319533,0.7584370986778288
1772025036837532000,3.519531982421875,8.109936098974943,-0.05340893410444259,0.9552657118752598
1772025036847528700,3.52952880859375,8.592803786826133,0.5243149660050869,1.0182545944254844
1772025036857525800,3.53952587890625,8.861926432666182,0.9795452898681163,1.0367536162555218
1772025036867522800,3.549522705078125,9.047270725101232,1.3619880254179237,1.0973477126237003
1772025036877520000,3.559519775390625,9.202786280983686,1.65168642629683,1.2806402601607143
1772025036887516700,3.5695166015625,9.259220700389147,1.839261254262924,1.3886959996014832
1772025036897514000,3.579513916015625,9.290683760145306,2.14378722191751,1.3411904443219302
1772025036907510800,3.5895107421875,9.241248990368842,2.516791974775493,1.3302709909006953
1772025036917507800,3.5995078125,9.017160833519696,2.6651789939522743,1.4501254508152603
1772025036927505000,3.6095048828125,8.780072909843922,2.57109668867588,1.5783526022776961
1772025036937501700,3.619501708984375,8.365188624894618,2.5426716814413663,1.5998786437787114
1772025036947498800,3.629498779296875,7.827823623180389,2.4897388404160736,1.3998584679983554
1772025036957495800,3.639495849609375,7.327976158955693,2.2848665484294295,0.810941996614635
1772025036967492900,3.649492919921875,6.481538778328895,2.1498858310535547,0.13685849394649266
1772025036977489700,3.65948974609375,5.235999788296223,2.041868231666088,-0.3940000484831631
1772025036987486700,3.66948681640625,3.5086364819854494,1.8226120250180362,-1.0037180464856326
1772025036997483800,3.67948388671875,1.4900824904114007,1.006148342372477,-1.8506285975821315
1772025037007480800,3.689480712890625,-0.3648509647578001,-0.9060726419001817,-2.2333380212441085
1772025037017477600,3.6994775390625,-2.404192308294773,-3.9738995395630594,-2.6047163419440387
1772025037027475000,3.709474853515625,-5.778370635473728,-6.6282075954109425,-3.46668213109225
1772025037037470700,3.719470703125,-9.510774371790886,-8.147523194569349,-2.803435956519842
1772025037047468800,3.72946875,-13.30235978039503,-9.770117966416478,-2.050919406997412
1772025037057464800,3.73946484375,-16.325784057229757,-8.592885619890689,-4.734007128736376
1772025037067461600,3.749461669921875,-16.294288848769664,-4.958389884617924,-8.240401384752989
1772025037077459000,3.759458984375,-14.249097025638818,-3.589925941184163,-9.547311666071414
1772025037087455700,3.769455810546875,-13.935785109460353,-4.287347649341822,-8.224093224030733
1772025037097452800,3.779452880859375,-14.18711666254401,-5.402002835923433,-5.943693299621343
1772025037107449900,3.789449951171875,-12.098057640635966,-5.969758299726247,-4.500779095359146
1772025037117447000,3.799447021484375,-10.488914471036194,-5.889342116230726,-3.196866534551978
1772025037127443700,3.809443603515625,-9.540395018550752,-5.1921775977045295,-1.7129254695050418
1772025037137440800,3.819440673828125,-7.759243423429131,-3.9012130735367534,-0.4913210434198379
1772025037147437800,3.829437744140625,-5.74410771586597,-2.628748082655668,-0.0071478259280323975
1772025037157434600,3.8394345703125,-3.796551506578922,-1.1065455298840998,0.04083192273452878
1772025037167432000,3.849431884765625,-1.9666157145440577,0.48296764109432694,0.11112725584059953
1772025037177428700,3.8594287109375,-0.3803606685787439,1.6483821240544319,0.13598477985188365
1772025037187425800,3.86942578125,0.809550542256236,2.3771283602803943,0.23638737419098615
1772025037197422800,3.8794228515625,1.6964193019926548,2.612830967077613,0.39582536421418185
1772025037207420000,3.889419921875,2.332988189780712,2.498289226618409,0.4992796012088656
1772025037217416700,3.899416748046875,2.7743618377268313,2.3590081817001103,0.6964581238225102
1772025037227414000,3.9094140625,3.3776626621633765,2.7699861068606375,1.0437338305316866
1772025037237410800,3.919410888671875,4.285290716812014,3.065077306693792,1.6176562925316393
1772025037247407600,3.92940771484375,5.0238013912051915,2.9514626179516315,2.049449480575323
1772025037257405000,3.939405029296875,5.556048903775215,2.8981384395211935,2.2521214860387144
1772025037267401700,3.949401611328125,6.0922764258921145,2.9635756650716063,2.4747668967336414
1772025037277398800,3.959398681640625,6.609772944054007,2.9886510696172714,2.775298241794109
1772025037287395800,3.969395751953125,6.935410673320293,2.8773230305075645,2.9692525416642424
1772025037297393000,3.979392822265625,7.138134555101394,2.629217745994031,3.091699356159568
1772025037307389700,3.9893896484375,7.325028415066003,2.409098785036802,3.18748145109117
1772025037317386800,3.99938671875,7.538042220193147,2.268495843864977,3.1639298951119184
1772025037327383800,4.0093837890625,7.670673744094372,2.2146230916410685,3.0345331153482196
1772025037337380900,4.019380859375,7.679009026241302,2.315204111286998,2.9110926136404274
1772025037347377700,4.029377685546875,7.567364760789275,2.5394173558205364,2.7435569496184584
1772025037357374700,4.039374755859375,7.448805016860366,2.744576940315962,2.5139973756209013
1772025037367371800,4.049371826171875,7.295257546180486,2.908139316792786,2.3514374541848895
1772025037377368600,4.05936865234375,7.0444964864611626,2.977797082647681,2.2701446339853106
1772025037387366000,4.069365966796875,6.784458479830622,3.0505589519977567,2.1864295550748705
1772025037397362700,4.07936279296875,6.541760899579525,3.119971510919928,2.1201976720154283
1772025037407359700,4.08935986328125,6.270140007182955,3.1858406981468197,2.0485165836393833
1772025037417356800,4.099356689453125,6.025003801608086,3.302039558163285,1.8791329536631702
1772025037427353900,4.109353759765625,5.733861631661653,3.320342692095041,1.5756703774563967
1772025037437350700,4.1193505859375,5.404943565550446,3.1340374456733464,1.4282562949649988
1772025037447348000,4.129347900390625,5.103655264642835,2.71979379671514,1.4406721244238316
1772025037457344800,4.1393447265625,4.352492613947391,2.1744056475430726,1.250021980665624
1772025037467341800,4.149341796875,2.9617531258195635,1.2071651279747486,0.929886355946958
1772025037477339000,4.1593388671875,0.9438041144013404,-0.5030798702746629,0.7778988280601798
1772025037487335700,4.169335693359375,-2.250916640293598,-2.8660505258649587,0.9617772857263683
1772025037497332700,4.179332763671875,-5.730054640594124,-5.204962260475755,1.3749958294205367
1772025037507329800,4.189329833984375,-9.225290958258508,-6.641430065077543,1.4365322481401264
1772025037517326800,4.199326904296875,-13.370659994161128,-6.47559945140779,-0.6237690274477005
1772025037527324200,4.20932421875,-15.316776526033877,-4.983940505459905,-3.9568841073542833
1772025037537321200,4.2193212890625,-14.684242008328438,-3.5783711124688384,-5.6032887938559055
1772025037547318300,4.229318359375,-14.871774166196584,-3.350979237899184,-5.583489283886552
1772025037557315300,4.2393154296875,-16.10791053711176,-3.9132086317569015,-4.7312791650772095
1772025037567312100,4.24931201171875,-15.363814171540737,-4.2983261394739145,-3.6942630984932183
1772025037577309200,4.25930908203125,-13.50146897881031,-4.327486767506599,-3.020975714638829
1772025037587306200,4.26930615234375,-12.1715530849576,-4.116583378662169,-2.350225594177097
1772025037597303000,4.279302978515625,-10.171043284118175,-3.535314645552635,-1.7526261962525544
1772025037607300400,4.28930029296875,-7.932918320858478,-2.6324928221419452,-1.2716364311024546
1772025037617297200,4.299297119140625,-5.7783197820693255,-1.5993252476796507,-0.8233150098450481
1772025037627294200,4.309294189453125,-3.6045594466924666,-0.7329632693991065,-0.484523419168964
1772025037637291300,4.319291259765625,-1.6779858196794986,-0.03744973295032978,-0.3429221876747906
1772025037647288300,4.329288330078125,0.034116204613447186,0.37949148452877995,-0.24511947363577782
1772025037657285000,4.33928515625,1.4533558110386133,0.31099341010302306,-0.4330727064602077
1772025037667282400,4.349282470703125,2.219914768308401,-0.08657792099565267,-0.6196869457658379
1772025037677279200,4.359279296875,2.5120745908647772,-0.18256459858864546,-0.3485831360459328
1772025037687276300,4.3692763671875,3.2614947818070648,0.2780690456226468,-0.2049590934872627
1772025037697273300,4.3792734375,4.206162235039472,0.6301011530786752,-0.09512231584861874
1772025037707270100,4.389270263671875,5.0480818459808825,0.6294105404660105,-0.12397197823598981
1772025037717267200,4.39926708984375,5.662864433896542,0.367189929099381,-0.22726298749297855
1772025037727264300,4.40926416015625,6.090858960309625,0.03529372396022081,-0.04232786038070917
1772025037737261300,4.41926123046875,6.51418549491167,-0.20985709466189145,0.26172961297929287
1772025037747258000,4.429258056640625,6.977936978882551,-0.36114392693340774,0.41831228663660586
1772025037757255400,4.43925537109375,7.400951963317394,-0.36871962288469073,0.3540910858124494
1772025037767252200,4.449252197265625,7.759873538026214,-0.20829262182414532,0.32883199526295065
1772025037777249300,4.459249267578125,8.11911718429625,0.033631051445007325,0.42048115510828793
1772025037787246300,4.469246337890625,8.358330429562926,0.33965631774663924,0.4562872855700552
1772025037797243400,4.479243408203125,8.456578622347116,0.5930708145841955,0.5181159287018701
1772025037807240200,4.489240234375,8.395449323123692,0.7397986683771014,0.6755204036034643
1772025037817237200,4.4992373046875,8.286358249285817,0.9033443859800696,0.83629198031798
1772025037827234300,4.509234375,8.312775716090202,1.0783306582689285,0.8187346232522279
1772025037837231000,4.519231201171875,8.293992105165124,1.1991270752087235,0.7272054365247488
1772025037847228400,4.529228515625,8.060968362188339,1.1836097726032138,0.5742059551164508
1772025037857225200,4.53922509765625,7.5510396489322185,1.2698603613406418,0.40419922480583187
1772025037867222300,4.54922216796875,6.993396998342871,1.3208306701213122,0.29668782137483357
1772025037877219300,4.55921923828125,6.148322138240933,1.206369593682885,0.14837459808662534
1772025037887216400,4.56921630859375,4.830255672135949,1.0077958173185586,-0.2034770382359624
1772025037897213200,4.579213134765625,3.2643191915780303,0.8041796628728508,-0.625233108650893
1772025037907210200,4.589210205078125,1.9249124158024786,0.3678282270029187,-1.580331793396175
1772025037917207300,4.599207275390625,0.5504074386388063,-0.20489917999356985,-2.3444724374778567
1772025037927204000,4.6092041015625,-1.7942600830197333,-1.307264793844521,-2.1935826416999102
1772025037937201200,4.619201171875,-4.855010758686065,-3.4202526806116103,-1.89417474771142
1772025037947198200,4.6291982421875,-8.249832060921191,-5.670592982321978,-1.1977628011181949
1772025037957195300,4.6391953125,-12.453227169334887,-7.7385566092312335,0.17922288694530725
1772025037967192000,4.649192138671875,-16.0706496047318,-7.879163934317231,0.07356149529516696
1772025037977189400,4.659189453125,-17.324211742222307,-5.432278731721639,-3.23765096488297
1772025037987186200,4.669186279296875,-16.832822894263266,-3.272977129808068,-5.7733840792328115
1772025037997183200,4.679183349609375,-15.46296895777583,-2.450326575221121,-5.953548338681459
1772025038007180300,4.68918017578125,-14.815993242263794,-2.5552605293795465,-5.814682304304838
1772025038017177300,4.69917724609375,-14.88440568423271,-2.903202152651548,-5.364183100616931
1772025038027174100,4.709174072265625,-14.03519591628313,-3.287394069956243,-3.8125016476437446
1772025038037171200,4.719171142578125,-12.700543057036398,-3.613123861420154,-2.338654252718389
1772025038047168300,4.729168212890625,-11.050428410100936,-3.505962878862023,-1.0881896428517996
1772025038057165000,4.7391650390625,-9.277122852304577,-3.1649265049338338,0.03590074994266033
1772025038067162400,4.749162353515625,-7.435627555379271,-2.2029098574936388,0.4463580122299492
1772025038077159200,4.7591591796875,-5.345747280216217,-0.761431531253457,0.46838908064365387
1772025038087156200,4.76915625,-2.9480905111700295,0.4782511339664459,0.48339010429009793
1772025038097153300,4.7791533203125,-0.6839174989402294,1.4396218847185371,0.5631961930632591
1772025038107150300,4.789150390625,1.2991297104448079,2.1004867171123625,0.7820707069173455
1772025038117147100,4.799147216796875,3.0370535737365483,2.500407533946633,1.0408147282145916
1772025038127144400,4.80914453125,4.4023470704406495,2.7941920350953935,1.203518295904994
1772025038137141200,4.819141357421875,5.535922646069526,2.954188535784185,1.4135453403063118
1772025038147138300,4.82913818359375,6.593260785192251,2.956699934083223,1.5733569859474896
1772025038157135400,4.83913525390625,7.650670235985517,2.8752611295416948,1.6334402832493184
1772025038167132200,4.849132080078125,8.394199030801653,2.701334595438838,1.7889159455128012
1772025038177129200,4.859129150390625,8.80443169055283,2.6589620191335674,1.9954805745005606
1772025038187126300,4.869126220703125,9.262678731888531,2.79594238589406,2.156777051872015
1772025038197123300,4.879123291015625,9.619691258105634,2.938343316398561,2.3054472719043493
1772025038207120100,4.8891201171875,9.912174905788898,2.949382596807182,2.368209140765667
1772025038217117200,4.8991171875,10.24255719923377,2.9528356598705052,2.358890692800283
1772025038227114200,4.9091142578125,10.42922426470518,3.1494290760725736,2.350503534335643
1772025038237111300,4.919111328125,10.501555341422558,3.363264134454727,2.3720919735483825
1772025038247108000,4.929108154296875,10.454473272252082,3.4839737498939036,2.3608260447770357
1772025038257105400,4.93910546875,10.370140792095661,3.589527881777286,2.269869908697158
1772025038267102200,4.949102294921875,10.265573333162068,3.7549925847440955,2.166426339226961
1772025038277099000,4.95909912109375,10.094614708954095,3.8741146387308834,2.049531898161769
1772025038287096300,4.969096435546875,9.762863465243578,3.864167829734087,1.945330788322538
1772025038297093000,4.979093017578125,9.247150323367118,3.854720786952972,1.7542387460157274
1772025038307090200,4.989090087890625,8.661848096957803,3.855375451469421,1.521255627310276
1772025038317087200,4.999087158203125,8.071949190407992,3.6624189304649826,1.241504912211001
1772025038327084300,5.009084228515625,7.095107314279675,3.330251507169008,0.6804012344475835
1772025038337081000,5.0190810546875,5.461690704166889,2.720754750701785,-0.09348908862359821
1772025038347078400,5.029078369140625,3.4535616604954003,1.58710143366158,-0.7911648446075618
1772025038357075200,5.0390751953125,1.370506847438216,0.12709727064967155,-1.5098296856716273
1772025038367072300,5.049072265625,-0.8460007427752018,-1.4402128363490103,-2.1858549700573087
1772025038377069300,5.0590693359375,-3.186743199944496,-2.9034540815860033,-2.587816937330365
1772025038387066000,5.069066162109375,-5.907770922368765,-4.4337101769536735,-2.6056805108010765
1772025038397063200,5.079063232421875,-9.26525530437827,-6.293867504251003,-1.983823454454541
1772025038407060200,5.089060302734375,-12.844672126507758,-7.802083617246151,-1.513944719775021
1772025038417057300,5.099057373046875,-15.288354733669756,-6.96430417484939,-2.572376791614294
1772025038427054000,5.10905419921875,-14.921064559066295,-4.405096076887846,-4.3863127582237125
1772025038437051400,5.119051513671875,-13.030039215296506,-3.1272546536654233,-4.6913317700922486
1772025038447048200,5.129048095703125,-12.432134112423658,-4.050158018857241,-3.3723286076590417
1772025038457045200,5.139045166015625,-12.555361848163605,-5.462209759604931,-1.5806670166999102
1772025038467042300,5.149042236328125,-11.425794339132308,-5.774890392142534,-0.8576224992468953
1772025038477039400,5.159039306640625,-9.628622752580046,-5.704352628582716,-0.37620164920315147
1772025038487036200,5.1690361328125,-8.168107717436552,-5.551496062776446,0.48881344451308245
1772025038497033500,5.179033447265625,-6.779213564914465,-4.303822398802637,0.6963697148866951
1772025038507030300,5.1890302734375,-4.90707236983478,-3.006622779637575,0.5047654852740466
1772025038517027000,5.199027099609375,-2.955668837469816,-2.1362439669311044,-0.03751286131441593
1772025038527024400,5.2090244140625,-1.4520873985379934,-1.3442635681569575,-0.5307496752277017
1772025038537021000,5.21902099609375,-0.4589420378625393,-0.7247638885915278,-0.542356818652153
1772025038547017700,5.229017822265625,0.35253391949832436,-0.19306699564158916,-0.35695641211569307
1772025038557015000,5.23901513671875,1.2796785755217075,0.25491876392066476,-0.22768004386126994
1772025038567011800,5.24901171875,2.4394489151149985,0.8048205911248922,-0.00722527507841587
1772025038577009000,5.2590087890625,3.603773264750838,1.3178800036221743,0.2804848745927214
1772025038587006000,5.269005859375,4.693767472806573,1.636486811338365,0.5804154772810638
1772025038597003000,5.2790029296875,5.683229761055111,1.7637933408245443,0.9620163551792502
1772025038606999800,5.288999755859375,6.553123420593142,1.7530433987513183,1.3178554537028073
1772025038616996900,5.298996826171875,7.255959555014967,1.6590081474870442,1.5083040835395454
1772025038626994000,5.308993896484375,7.85301827019155,1.5067615302726625,1.6425284295901654
1772025038636989000,5.318989013671875,8.294822710770369,1.4447685999572277,1.735170911321789
1772025038646985700,5.32898583984375,8.588264389830828,1.4194082409903406,1.8295190279275177
1772025038656982800,5.338982666015625,8.870458698689937,1.407818340961635,1.867539400372654
1772025038666979800,5.348979736328125,9.020514235600828,1.409200150708854,1.93644956273064
1772025038676977000,5.358976806640625,9.04494257441461,1.4002297855287789,1.9105273320972918
1772025038686973700,5.3689736328125,8.99492269822657,1.411438285024464,1.8332209511853754
1772025038696971000,5.378970947265625,8.838032346859574,1.4930974543184041,1.9273384739056227
1772025038706967800,5.3889677734375,8.670710617849231,1.6185899201199412,1.8707644998989998
1772025038716964900,5.39896484375,8.489592418676613,1.7809376601099967,1.786845715110004
1772025038726962000,5.4089619140625,8.277240292328596,1.9246660398259758,1.7044478562779724
1772025038736959000,5.418958984375,8.059145822936296,2.0373355566725135,1.5572975392892956
1772025038746955800,5.428955810546875,7.71691001009047,2.1974831562697887,1.474383986020088
1772025038756952800,5.438952880859375,7.1045093488752835,2.332400745281577,1.4193503733232617
1772025038766950000,5.448949951171875,5.982614274168014,2.397022855056822,1.3413890356339513
1772025038776946700,5.45894677734375,4.616290849894285,2.2202666504859923,1.0226782560866325
1772025038786944000,5.468944091796875,2.991547375580668,1.6737898292943834,0.4958250037755817
1772025038796940800,5.47894091796875,0.8568196584314107,1.0357695736542343,-0.05204897086285054
1772025038806937900,5.488937744140625,-1.7984060967832802,0.25468700099140407,-0.7810732933778315
1772025038816935000,5.498934814453125,-4.72963548952341,-1.2884019802033901,-1.5821113702893257
1772025038826932000,5.508931884765625,-7.9986255955219265,-2.821627154509723,-1.9190210196763275
1772025038836928800,5.5189287109375,-11.074393807578087,-4.335220284368098,-1.9098259058296678
1772025038846926000,5.528926025390625,-14.381291327166556,-6.741836897200345,-1.395162565267086
1772025038856923000,5.5389228515625,-17.777770333480834,-7.295292032971978,-1.4747335301101208
1772025038866919700,5.548919677734375,-18.62145286244154,-4.1162072388261555,-4.370588827130198
1772025038876917000,5.5589169921875,-16.824024670779703,-1.791008095486462,-6.691163525539636
1772025038886913800,5.568913818359375,-14.554852242827415,-2.455978025111556,-5.861494324362278
1772025038896910800,5.578910888671875,-14.28741944977045,-3.393191947467625,-4.04725849802345
1772025038906908000,5.588907958984375,-14.191623326313495,-3.669035718256235,-2.3842191953241825
1772025038916905000,5.598905029296875,-12.462885809040069,-3.499266011571884,-1.5349281788319349
1772025038926901800,5.60890185546875,-10.201253713464736,-3.8078824634104964,-0.6651411945387721
1772025038936899000,5.618899169921875,-8.562403972387314,-4.344816087970138,0.374808623942174
1772025038946896000,5.628895751953125,-7.158045124229789,-4.475155409280956,1.1668220116704702
1772025038956893000,5.638892822265625,-5.670806332811713,-3.964597458210587,1.3496873467713593
1772025038966890000,5.648889892578125,-4.049038074916601,-2.9322151889070867,1.2582673925720154
1772025038976887000,5.658886962890625,-2.328549330550432,-1.815418898643553,1.181945346522331
1772025038986883800,5.6688837890625,-0.5239303506016731,-0.9048261489704251,1.1181666287686676
1772025038996881000,5.678880859375,1.164673893725872,-0.3671715166598558,0.9851347804382443
1772025039006878000,5.6888779296875,2.4992151092916726,-0.05735241103321313,0.7776639963909984
1772025039016874800,5.698874755859375,3.5130291639864444,0.2523816466584802,0.6961843483824283
1772025039026871800,5.708871826171875,4.2853690427452324,0.5275520482301712,0.6310321503184736
1772025039036868900,5.718868896484375,5.093289353451133,0.7618594012767076,0.5259173962330446
1772025039046866000,5.728865966796875,5.87969282887578,1.0155670358419417,0.40792058341652154
1772025039056862700,5.73886279296875,6.582100508752465,1.2464625346183775,0.2282260969040915
1772025039066860000,5.748860107421875,7.174334580251574,1.387409759183228,0.18355021209251135
1772025039076856800,5.75885693359375,7.560594243741035,1.5198071820676327,0.263782051997073
1772025039086854000,5.76885400390625,7.9378820807456965,1.6175070933192968,0.37386933379806575
1772025039096851000,5.778850830078125,8.273303537401556,1.6353963857531546,0.4109025949019938
1772025039106847700,5.78884765625,8.491998895296454,1.6167060060694813,0.3641298839416355
1772025039116844800,5.7988447265625,8.651903041526674,1.6598860993653535,0.3184767515957355
1772025039126841900,5.808841796875,8.742246744796633,1.7553166043803095,0.2922344952277839
1772025039136839000,5.8188388671875,8.736904799246787,1.8515940816134213,0.2575513591802679
1772025039146835700,5.828835693359375,8.64493670964539,1.951111271420121,0.22788188657630234
1772025039156833000,5.8388330078125,8.477554774880408,2.102831818933785,0.15060140729062257
1772025039166829800,5.848829833984375,8.208065049293637,2.3108754344329236,0.044066374611109495
1772025039176827000,5.858826904296875,7.824725072643161,2.445516836851835,-0.1590084394995123
1772025039186824000,5.868823974609375,7.3895298210710285,2.4541712679505348,-0.4397779031872749
1772025039196821000,5.878821044921875,6.768471806147694,2.449563481894135,-0.6006018676761538
1772025039206817800,5.88881787109375,6.058595105564594,2.377457153843343,-0.6215831347759813
1772025039216814800,5.89881494140625,5.377388619148731,2.2385002263128757,-0.8761088807910681
1772025039226812000,5.90881201171875,4.259651833164692,2.0839622832909224,-1.1058161926962435
1772025039236808000,5.918807861328125,2.5384108091264963,1.8526643411934374,-1.1692263693984597
1772025039246806000,5.928805908203125,0.6151023213893175,1.2311267260596155,-1.2507342205882073
1772025039256802800,5.938802734375,-1.4536059864073991,0.3108671533748507,-1.6918253983311353
1772025039266799900,5.9487998046875,-3.605260288438201,-0.19973960527330636,-1.8690224785372613
1772025039276796000,5.9587958984375,-4.92525684582293,-0.7160209024265408,-2.1024609397947787
1772025039286795000,5.968794921875,-5.45818298830688,-1.6671990527272222,-2.2208704615980386
1772025039296791800,5.978791748046875,-6.3704205825775855,-2.872078115591407,-1.9111600770428776
1772025039306788900,5.988788818359375,-7.989632141727209,-3.761290223583579,-1.085397820176184
1772025039316786000,5.998785888671875,-9.942144512116908,-4.1808425003439185,0.10645301695186644
1772025039326783000,6.008782958984375,-11.223743826568127,-3.79709569645822,0.6826067816678434
1772025039336779800,6.01877978515625,-10.750009877765178,-2.0464678344160316,-0.14843434718353674
1772025039346777000,6.028777099609375,-8.746205711555481,-1.6488959187954664,-0.6881270794592798
1772025039356774000,6.03877392578125,-7.607773928067088,-3.2295857318490744,-0.06597224574256688
1772025039366771000,6.04877099609375,-7.994516991159319,-4.415021258574724,0.9678542675524949
1772025039376768000,6.05876806640625,-8.051984260743856,-4.268392188981175,1.7530913295462727
1772025039386764800,6.068764892578125,-7.088691017496585,-3.9081355662763118,2.2658707560583946
1772025039396761900,6.078761962890625,-5.807126774358749,-3.4731606794565915,2.2562743679344655
1772025039406759000,6.088759033203125,-4.612182830053568,-2.475392335155606,2.1393616605602204
1772025039416756000,6.098755859375,-3.650155661219358,-1.5035557199686764,2.2138632131844758
1772025039426752800,6.108752685546875,-2.5928461636692286,-0.45920068879872555,2.0041864435255525
1772025039436749800,6.118749755859375,-1.2817355080515145,0.5546893537417054,1.5983806603059172
1772025039446747000,6.128746826171875,0.20428221713900566,1.4827780126169323,1.3310332074448465
1772025039456744000,6.138743896484375,1.1634306156665086,1.944792589792609,0.7530855085168033
1772025039466740700,6.14874072265625,1.6527327204793691,1.7755618122905492,-0.2712343407643959
1772025039476738000,6.158738037109375,1.4038187499314545,2.032690361215174,-0.9172970696173608
1772025039486734800,6.16873486328125,1.0703934355288742,2.8084014699727295,-1.0511396498087793
1772025039496731600,6.178731689453125,1.4348966097623108,3.08442147411108,-1.3380962776988743
1772025039506729000,6.18872900390625,2.1514847906827925,2.973238980951905,-1.5060370153903961
1772025039516725800,6.198725830078125,2.9699557214975356,2.839558824780583,-1.7274518613770604
1772025039526722800,6.208722900390625,3.969227456098795,2.9195895160898564,-1.4200459543719888
1772025039536720000,6.218719970703125,4.74871545304656,2.909254000036418,-0.8439288318719714
1772025039546716700,6.228716552734375,5.241845591714978,2.7228482158496976,-0.44223987285401667
1772025039556713700,6.238713623046875,5.769813819530606,2.4322499435216187,-0.2631983703576028
1772025039566710800,6.248710693359375,6.37891719276607,2.091561067856848,-0.3682189798861742
1772025039576707800,6.258707763671875,6.706575029683113,1.8502841680586337,-0.45242198844403025
1772025039586704600,6.26870458984375,6.68278265068531,1.6141142360106109,-0.4773184562262147
1772025039596702000,6.278701904296875,6.6557683870315545,1.4589838800534605,-0.5016572901256382
1772025039606698800,6.28869873046875,6.67161126832962,1.4519678638115525,-0.5580478703893721
1772025039616695600,6.298695556640625,6.669039372014999,1.5359914241492747,-0.657508653833717
1772025039626692900,6.30869287109375,6.667088822469115,1.6386270382374524,-0.786991504445672
1772025039636689700,6.318689697265625,6.708005354747176,1.7696248234570024,-0.8188258817322551
1772025039646686700,6.328686767578125,6.809652542319894,1.8612182345271109,-0.7817530192703008
1772025039656683800,6.338683837890625,6.777717773398757,1.8155986391246317,-0.8008479611668735
1772025039666680800,6.348680908203125,6.477782640665769,1.737536325278878,-0.9091362672545015
1772025039676677600,6.358677734375,5.786294998732209,1.698568881241977,-1.1125124023992568
1772025039686675000,6.368675048828125,4.576494261556864,1.5140236302301286,-1.0612572122626005
1772025039696671700,6.378671630859375,2.733768546053767,1.2471160300910473,-0.9093552437674254
1772025039706668800,6.388668701171875,0.6131891812443733,0.7899164519816636,-1.1138079221025108
1772025039716665900,6.398665771484375,-0.9076081809043883,-0.5869149223029613,-1.6088512009158729
1772025039726662700,6.40866259765625,-2.194295173883438,-2.5608292694225905,-1.9679108689211309
1772025039736659700,6.41865966796875,-3.7808050713926553,-4.670844570119678,-1.807719137921184
1772025039746656800,6.42865673828125,-5.559252083730697,-6.311737507462501,-1.4245203233070671
1772025039756653800,6.43865380859375,-9.070802991858125,-6.779985718330741,-0.4305703682504594
1772025039766650600,6.448650634765625,-13.306502871549128,-6.966632910057902,0.9167615014359355
1772025039776647700,6.458647705078125,-14.159469946205615,-6.705510030800104,0.7244473699882626
1772025039786644700,6.468644775390625,-12.3554775737226,-5.289962849152088,-1.6067574435070155
1772025039796641800,6.478641845703125,-10.118222379034757,-5.790017234125733,-2.8841978847131133
1772025039806638600,6.488638671875,-10.071446599334477,-6.78696081804037,-1.8356404334172605
1772025039816636000,6.498635986328125,-10.634679032754898,-7.325459207698702,-0.0016880261521786451
1772025039826632700,6.5086328125,-10.937262634170056,-7.48342917099595,1.100860762245953
1772025039836629500,6.51862939453125,-10.52672719208002,-6.00061988645792,1.4106255073368548
1772025039846626800,6.528626708984375,-8.756367040085792,-3.877034325569868,1.1442644351646303
1772025039856623600,6.53862353515625,-6.226008019989728,-2.5563152991294857,0.8533074855919927
1772025039866620700,6.54862060546875,-3.7004227901667353,-1.222230010637641,0.3295793064989149
1772025039876617700,6.55861767578125,-1.1135083546340465,0.33417057981193066,-0.5170598803102969
1772025039886614800,6.56861474609375,1.1298211915314196,1.2301941213846206,-1.427397193917632
1772025039896611600,6.578611572265625,2.0299258649379013,1.5307605377584694,-1.9069000815108417
1772025039906609000,6.58860888671875,1.9662118099182844,1.9994033009022474,-1.8280046778418122
1772025039916605700,6.598605712890625,2.042694161096215,2.7735446761250495,-1.4743705420166253
1772025039926602800,6.608602783203125,2.3157073846340177,3.406070426002145,-0.9880017141766846
1772025039936599800,6.618599853515625,2.8638310962498186,3.6066146256566047,-0.429542632637918
1772025039946596900,6.628596923828125,3.7087329378724094,3.6136136907637115,0.16137231908664107
1772025039956593700,6.63859375,4.709834225988388,3.681003219425678,0.6180981422044336
1772025039966590700,6.6485908203125,5.333424389737844,3.6761236306905745,0.9775561618775128
1772025039976587800,6.658587890625,5.819990347585081,3.693753979927301,1.2358917485043406
1772025039986584600,6.66858447265625,6.395325306731462,3.671112524530291,1.2226937556918709
1772025039996582000,6.678581787109375,6.940663187021016,3.5873587210446596,1.140363628333807
1772025040006578700,6.68857861328125,7.273808515438437,3.4778064594358202,1.0328088972177356
1772025040016575700,6.69857568359375,7.377839383277297,3.3914988798141477,1.0300712158821523
1772025040026572800,6.70857275390625,7.459621594429016,3.349983212599158,1.1123324427224694
1772025040036569900,6.71856982421875,7.534921457824111,3.3722891524314877,1.107799110141769
1772025040046566700,6.728566650390625,7.569348043560981,3.4540760397583243,0.9781249747414141
1772025040056564000,6.73856396484375,7.620572619363665,3.58728331772089,0.8361769756361842
1772025040066560800,6.748560791015625,7.664098457357287,3.6976328671872616,0.6311039003804325
1772025040076557600,6.7585576171875,7.624226465696096,3.8094413832902907,0.525685012249276
1772025040086555000,6.768554931640625,7.469025382590293,3.992182215228677,0.47683461823202666
1772025040096551700,6.7785517578125,7.176050151997805,4.092721149298549,0.4929897803496569
1772025040106548700,6.788548828125,6.64718000690639,4.050619791150093,0.3063269891945645
1772025040116545800,6.7985458984375,5.944703353446721,3.803495042106509,-0.1530034634636715
1772025040126542800,6.80854296875,5.042386264687776,3.7687189122796054,-0.6295883081857114
1772025040136539600,6.81853955078125,3.5823289101839064,3.5826188330411908,-1.087789537618309
1772025040146536700,6.82853662109375,1.6222276921004055,2.3202175555348394,-1.9379627437725662
1772025040156533800,6.83853369140625,-0.24332711032629012,0.6455816308051348,-3.1815982382714747
1772025040166530800,6.84853076171875,-1.36960434564054,-1.265240884846449,-3.495002216647565
1772025040176527600,6.858527587890625,-1.9580413629442452,-4.427130214041471,-2.9299156797930594
1772025040186524700,6.868524658203125,-4.8358974774152035,-7.182704933711886,-2.9060642640843986
1772025040196521700,6.878521728515625,-9.512791556832195,-7.672070751410723,-2.1871968861855566
1772025040206518500,6.8885185546875,-14.208812946045398,-8.215636361330747,-0.0376839526981581
1772025040216515800,6.898515869140625,-15.944374171859025,-7.0416352518111465,-0.41925884677171704
1772025040226512600,6.9085126953125,-12.868644538247585,-4.109773406386375,-3.458698438861966
1772025040236509700,6.918509765625,-9.482128123021125,-4.224098873746395,-4.015874933244287
1772025040246506800,6.9285068359375,-10.002931281512975,-5.3988978556454175,-2.0826383412107825
1772025040256503800,6.93850390625,-10.79266010196805,-5.981272211909293,0.23806235819850116
1772025040266500600,6.94850048828125,-9.904247619920968,-6.131068221101165,1.5195447317391633
1772025040276498000,6.958497802734375,-9.409392557156085,-5.9841907297044985,2.303938913168013
1772025040286494700,6.96849462890625,-8.773404684126376,-4.998204593133926,3.070931293419003
1772025040296491800,6.97849169921875,-6.800429955944418,-3.8514717220291494,3.039260143870115
1772025040306488800,6.98848876953125,-4.120256806477904,-2.5404931683585046,1.9262816583290694
1772025040316485600,6.998485595703125,-1.566840151399374,-0.7274453827604651,0.6867684313919394
1772025040326482700,7.008482666015625,0.6917892552286387,0.6793874542951583,-0.16538316216319798
1772025040336479700,7.018479736328125,2.4649866764754056,1.1752981635928152,-0.5975167246097699
1772025040346476800,7.028476806640625,3.4304064103573557,1.1887670092359184,-0.6423286934237927
1772025040356473600,7.0384736328125,3.8712849682629105,1.2628642188429833,-0.5259242278326303
1772025040366471000,7.048470947265625,4.352695443043112,1.438026139959693,-0.16696500626085325
1772025040376467700,7.0584677734375,4.897819388321042,1.4304393380925058,0.40191593617424365
1772025040386464800,7.06846484375,5.411583149695396,1.2105746441572904,0.9389373851478099
1772025040396461800,7.0784619140625,5.937670970591903,1.0369155288189649,1.3286705699667334
1772025040406459000,7.088458984375,6.486217876055837,0.7244456164225935,1.4089173882447181
1772025040416455700,7.09845556640625,6.868770501720905,0.3416790557458997,1.2670707306221127
1772025040426452700,7.10845263671875,6.903390564203262,0.5349632012695074,1.2958011505439877
1772025040436449800,7.11844970703125,6.934283130595087,0.8838473660886287,1.5669249070733784
1772025040446446600,7.128446533203125,7.261354692056774,0.9011771249435842,1.5365085798911748
1772025040456444000,7.13844384765625,7.5740785792142145,0.875117677796632,1.3533759721562266
1772025040466440700,7.148440673828125,7.711616579857468,0.9405516884766518,1.2676914928689598
1772025040476437800,7.158437744140625,7.7941288588494055,0.9967615053460002,1.2849942175865172
1772025040486434800,7.168434814453125,7.788107698863744,1.0239397273898123,1.2937594155833125
1772025040496431900,7.178431884765625,7.778876344659924,1.0034119031459092,1.3254910631477832
1772025040506428700,7.1884287109375,7.685379730316996,1.02413992613703,1.391413734127581
1772025040516425700,7.19842578125,7.578502825397252,1.1503308955967426,1.3596329867243766
1772025040526422800,7.2084228515625,7.464708688434958,1.2265756386265159,1.1607374310597776
1772025040536420000,7.218420166015625,7.27111737665832,1.234546179114282,0.9340475672796368
1772025040546417000,7.2284169921875,6.921585561585426,1.2068573771998286,0.6832735750135034
1772025040556414200,7.238414306640625,6.373940573397278,1.2630568188056348,0.3329903205187991
1772025040566411000,7.248410888671875,5.4652112795084715,1.1454337712049483,-0.07785910115754231
1772025040576408000,7.258407958984375,3.8312954877018925,0.6866583220809698,-0.6038491059690714
1772025040586405000,7.268405029296875,1.4114707259893418,0.31806495592445133,-0.9656183982592076
1772025040596402000,7.27840185546875,-1.429502641764283,-0.4428390443235635,-1.5698467858694494
1772025040606399000,7.28839892578125,-3.878606689453125,-2.381806873485446,-1.4441973759405313
1772025040616396000,7.29839599609375,-6.139373692631721,-5.86688127809763,-0.771923260781914
1772025040626393000,7.30839306640625,-10.966591604506968,-7.235543958973884,0.2857233232354745
1772025040636390000,7.318389892578125,-16.783997780817746,-6.34228695950508,1.3182361235834656
1772025040646387200,7.32838720703125,-20.369421149885653,-5.331547489950061,-0.5373756692387164
1772025040656384000,7.338384033203125,-19.73905637743473,-2.3558245832279323,-4.368677440550923
1772025040666381000,7.348381103515625,-15.56884340765476,-0.40567280448973175,-7.728758268794417
1772025040676378000,7.358378173828125,-13.027468488025665,-1.6771835633859038,-9.003498218870162
1772025040686375200,7.368375244140625,-13.836608111393451,-3.3266955682530996,-6.296200915634632
1772025040696372000,7.3783720703125,-14.870257916414737,-3.4392847133398052,-2.749990782058239
1772025040706369000,7.388369140625,-14.273770863646268,-3.832497849228978,-1.4310862576939165
1772025040716366000,7.398365966796875,-12.94349841144085,-4.082898843464255,-0.8440187751777469
1772025040726363000,7.40836279296875,-10.596152025961874,-3.3071631847873326,0.2530724236679263
1772025040736360200,7.418360107421875,-7.262337273353338,-2.8159453094810245,0.9709915426649153
1772025040746357000,7.42835693359375,-3.963439520347118,-1.8316300287321208,0.6037135699559003
1772025040756354000,7.43835400390625,-1.2270949863255023,-0.5037251824408769,0.020778584134578705
1772025040766351000,7.44835107421875,1.3815057958364485,0.548216650596261,-0.25108517710715533
1772025040776348200,7.45834814453125,3.566640927186608,1.1533967129081486,-0.5845128295972943
1772025040786345000,7.468344970703125,4.976580205824971,1.5757941499665378,-0.943362435048446
1772025040796342000,7.478342041015625,5.702912951168417,2.046765356057882,-0.9271991626895963
1772025040806339000,7.488339111328125,6.317935777580738,2.312151153457165,0.020399594754353163
1772025040816336100,7.498336181640625,6.646643415811657,2.0429130645439026,0.6342662368688732
1772025040826333000,7.5083330078125,7.018156176546215,1.4984861616194247,0.4688162200145423
1772025040836330000,7.518330078125,8.349275016447901,1.4247940256819127,1.0411512666925786
1772025040846327000,7.5283271484375,9.08628989932537,1.81130328001827,2.4867098479837177
1772025040856323800,7.53832373046875,8.684444544169306,2.425392332711816,3.2520284498035905
1772025040866321200,7.548321044921875,8.099526348641515,3.177110279202461,3.5527556096971034
1772025040876318000,7.55831787109375,7.695636335915327,3.5998426473036407,3.744772219502926
1772025040886315000,7.56831494140625,7.80840755957067,3.1871321992620825,3.5701445513933896
1772025040896312000,7.57831201171875,8.236779687124491,2.3681501040548083,3.3928765979081392
1772025040906309000,7.58830908203125,8.256157172289491,2.487986736051738,2.5355396376043555
1772025040916306000,7.598305908203125,7.736773232945799,3.6758980052411556,0.8865287141270936
1772025040926303200,7.60830322265625,7.199466683420538,4.5998336360901595,0.3762479725629091
1772025040936300000,7.618300048828125,6.972074224328995,4.438813053050637,0.7131342410743237
1772025040946296800,7.628296875,6.761985366737842,4.152898846885562,1.2237902456916867
1772025040956294100,7.638294189453125,6.782528388550877,4.343213913470507,2.2264478233389555
1772025040966291000,7.648291015625,6.7705141256302594,4.425950941129028,2.9259359625071286
1772025040976288000,7.6582880859375,6.558267797744274,4.056986988094449,2.808135512512922
1772025040986285000,7.66828515625,6.0417100217372175,3.6715579302102324,2.323165299424529
1772025040996282000,7.6782822265625,4.984288880506157,3.6341745404943824,2.2544684875562786
1772025041006279000,7.68827880859375,3.6355133878827095,3.538273787619173,1.7705153425559401
1772025041016276200,7.698276123046875,1.944720109078288,2.9362910600438714,0.877114989093691
1772025041026273000,7.70827294921875,-0.6310521701931953,1.977814861689508,0.19018449900783596
1772025041036270000,7.71827001953125,-2.5393086347490548,1.7898510344058274,0.5568034232862293
1772025041046267100,7.72826708984375,-4.470874663221836,0.21903028893768786,-0.27372204766059294
1772025041056264000,7.738263916015625,-6.9930310876399275,-2.5340023450344797,0.3081229692332446
1772025041066261000,7.748260986328125,-8.873608102631568,-5.016781867831945,2.4884666285231707
1772025041076258000,7.758258056640625,-9.927871656614542,-7.2480153180122375,3.6262682974144815
1772025041086255000,7.768255126953125,-12.036041037183999,-7.797167203631997,3.2760978921771047
1772025041096252000,7.778251953125,-14.211204809617996,-7.265358082479238,2.9352307373359796
1772025041106249200,7.788249267578125,-14.549298115831613,-7.752982609468698,3.1652970918118952
1772025041116246000,7.79824609375,-13.196301790642737,-6.380715182098746,2.4436831916838884
1772025041126243000,7.8082431640625,-12.481276036733389,-5.131371539086103,2.0683815600603817
1772025041136240000,7.818240234375,-11.976998481106758,-5.581172239115834,2.696417597302794
1772025041146237200,7.8282373046875,-10.459596022093296,-5.65091154577434,2.4871131680876015
1772025041156234000,7.83823388671875,-9.357508056139945,-5.0574301045626395,2.154479296323657
1772025041166231000,7.84823095703125,-8.016596136498451,-4.696406589138507,1.898497871607542
1772025041176228000,7.85822802734375,-6.05263415133357,-3.6557682404041287,1.561515449245274
1772025041186225000,7.868224853515625,-4.15262119898796,-2.5265233874559403,1.2312589741371571
1772025041196222000,7.878221923828125,-1.774456481397152,-1.7252736405551432,0.8985733721859752
1772025041206219000,7.888218994140625,0.31108897943198677,-0.7744535099118948,0.12108721657991409
1772025041216216000,7.898216064453125,1.6729969253510235,0.21583353872299194,-0.5586784964431077
1772025041226212900,7.908212890625,2.7065970460116864,1.263786009863019,-1.4510285371348262
1772025041236210200,7.918210205078125,3.0905262207269666,2.1112404585778712,-2.265018230882287
1772025041246207000,7.92820703125,3.280245659506321,2.7465093696832654,-2.537633102752268
1772025041256204000,7.9382041015625,4.0332665052890775,3.524512681031227,-2.2430453223966063
1772025041266201000,7.948201171875,4.660996837583184,3.9835535030931233,-2.3956870764084157
1772025041276198100,7.9581982421875,5.128073082062602,4.059632534167171,-2.9274671175971627
1772025041286195000,7.96819482421875,5.000236391222477,2.6171020685255524,-4.314593675924837
1772025041296192000,7.97819189453125,5.22166321990788,3.0346938588678833,-4.263661361066997
1772025041306189000,7.98818896484375,5.341986466377973,0.48137306537926194,-4.389131615036725
1772025041316185900,7.998185791015625,5.484066202104091,0.17918781563192604,-3.4868943135157227
1772025041326183200,8.00818310546875,6.154629129430651,1.626637909758091,-2.71367735966146
1772025041336180000,8.018179931640624,6.7570286211132995,0.4437798323050141,-1.559195920256525
1772025041346177000,8.028177001953125,7.386254744923114,1.122539510090649,-0.4934357705514878
1772025041356174000,8.038174072265624,7.893252665424346,2.2089625816613436,0.5427729982376098
1772025041366171100,8.048171142578125,8.051898920547961,2.287589543652534,0.7394400641977786
1772025041376168000,8.05816796875,7.479877615994215,2.3500237879946826,0.02555858495272696
1772025041386165200,8.068165283203125,6.516596063184738,2.2639304356455803,-1.1092930019613354
1772025041396162000,8.078162109375,5.387383943462371,1.6819532620057462,-1.312147012928128
1772025041406158800,8.088158935546875,6.291669117423892,1.3285174252316354,-0.7387646491542458
1772025041416156200,8.09815625,7.612938178962469,1.5925997388169169,0.13983805774655192
1772025041426153000,8.108153076171876,7.193020576021075,2.5478394394680857,1.2960164007298647
1772025041436150000,8.11814990234375,7.054447387111186,3.230240688626468,1.1796966177474706
1772025041446147000,8.12814697265625,7.632807831558584,3.7092654373139142,0.9962772289603948
1772025041456144100,8.13814404296875,6.776572110494971,4.767352933499216,0.40538638876378535
1772025041466141000,8.148140869140626,4.831054129037261,3.386181484183669,0.1933130793571472
1772025041476138200,8.15813818359375,4.862248893246054,2.2696236788511275,-0.0000881166748702526
1772025041486135000,8.168135009765624,4.216858985620737,1.9716054856553673,0.3044139586474746
1772025041496132000,8.178132080078125,3.4797201841026544,2.248272263264656,-0.16614990875199437
1772025041506129200,8.188129150390624,1.2732587716072796,1.4514450089812279,-0.7001262909412383
1772025041516126000,8.1981259765625,-1.3652707003504037,-1.306030283613503,0.12123502755276858
1772025041526123000,8.208123046875,-2.6840315784603357,-3.7255478790730234,1.331893185275048
1772025041536120000,8.2181201171875,-5.786279216641187,-5.377470452213287,1.606695922578126
1772025041546117400,8.228117431640625,-8.572437290623784,-5.562475137430429,2.0975749213188886
1772025041556114200,8.2381142578125,-9.935810632920264,-3.294118994297087,3.8398920511335133
1772025041566111200,8.248111328125,-6.209492938518524,-1.4571467277541756,5.0163914072096345
1772025041576108300,8.2581083984375,-5.77912992940843,-2.046974907155335,5.865179734876752
1772025041586105300,8.268105224609375,-9.320282779595255,-3.1922891436338423,3.566723637033999
1772025041596102100,8.27810205078125,-15.168173526018856,-6.52929187862873,-6.969847780451178
1772025041606099200,8.28809912109375,-17.62046029539704,-7.004643784022331,-5.507037327846884
1772025041616096300,8.29809619140625,-12.905454219728707,-4.534596024765074,0.6854200124576687
1772025041626093000,8.308093017578125,-7.597714306345582,-3.8265959317088125,1.491424552670121
1772025041636090400,8.31809033203125,-5.168132120728492,-3.7366114171400664,1.0381452898096293
1772025041646087200,8.328087158203125,-4.388430188769102,-3.613367022526264,-0.18629056030921637
1772025041656084200,8.338084228515624,-2.635457224905491,-3.190187495179474,-0.8057792070239782
1772025041666081300,8.348081298828125,-1.064718897023797,-2.044473153467476,-0.8631282570563257
1772025041676078300,8.358078369140625,0.1293646310597658,-1.5726646197691558,-0.9788890179164708
1772025041686075100,8.3680751953125,0.8517734809577464,-1.9633374235257506,-1.1218131685774773
1772025041696072400,8.378072509765625,0.8290688971966504,-2.3733310138240453,-1.8745032480359076
1772025041706069200,8.3880693359375,0.3030179011791944,-3.3610157710060475,-3.7769486882254477
1772025041716066300,8.39806640625,-0.6901368118464947,-2.9947680911928414,-3.818657539924979
1772025041726063400,8.4080634765625,-2.788398546385765,-0.549852435104549,-2.3882668632797897
1772025041736060200,8.41806005859375,-4.29674851489365,2.0218346206799147,-1.2701669430717826
1772025041746057200,8.42805712890625,-2.6827210803836583,2.8417791311785576,-1.0345057642634958
1772025041756054300,8.43805419921875,0.7150088027745485,2.33941223147884,-0.7305315122075379
1772025041766051300,8.44805126953125,2.6593115632236004,1.439592366363108,-1.0105205661073327
1772025041776048000,8.458048095703125,3.158077661952376,0.44553792801871894,-1.0967169404394923
1772025041786045400,8.46804541015625,5.667409676110744,0.8938261776588856,0.4165759278306737
1772025041796042200,8.478042236328125,7.168790974649786,1.2455253998987377,1.3836447075612843
1772025041806039300,8.488039306640625,7.479049932998419,0.9036543287120758,1.3614166552707552
1772025041816036400,8.498036376953126,7.322585698089003,1.0924554836027323,1.1879888644702732
1772025041826033400,8.508033447265625,7.138968083316088,1.7050011062465606,1.2117534786783157
1772025041836030200,8.5180302734375,7.761777325820923,2.1192481162056325,1.5971552101641893
1772025041846027000,8.528027099609375,8.297667578807472,2.6117422950580713,2.0688187824338673
1772025041856024300,8.5380244140625,8.151779098448158,2.455770812101662,2.689256035110354
1772025041866021000,8.548021240234375,7.305956634849309,2.2753683599829673,0.7575899072639644
1772025041876018200,8.55801806640625,6.027844577991962,1.9869635060459374,-3.1680384994745254
1772025041886015200,8.56801513671875,4.2606314918518065,1.4716796954974531,-3.6193916896432636
1772025041896012300,8.57801220703125,3.5747581826686856,1.0995689688697456,-0.9262713803201913
1772025041906009000,8.588009033203125,4.786845569476485,1.0410057207420467,0.5119987975284457
1772025041916006400,8.59800634765625,2.7735166190743445,1.5260045754030347,0.0009192337367683648
1772025041926003200,8.608003173828125,4.937788410615921,1.7684727308124302,0.21295089595876632
1772025041936000300,8.618000244140624,6.622140258195996,0.5196741544619202,-0.8520596774879843
1772025041945997300,8.627997314453125,3.7307331727564335,-0.7983361975416541,-2.345079025068879
1772025041955994000,8.637994140625,2.357091534423828,-1.2178826290830969,-2.674303088389337
1772025041965991200,8.6479912109375,0.9203665401905774,-0.7681447651565074,-2.007336870380491
1772025041975988200,8.65798828125,-2.496773561358452,-0.9534162846162915,-0.5938461098056286
1772025041985985300,8.6679853515625,-6.971565690284967,-3.8111312360733747,1.4132687153220176
1772025041995982000,8.677982177734375,-9.807458978295326,-6.846888924780488,2.9394647216439247
1772025042005979400,8.6879794921875,-11.804876658338308,-6.881524769353867,2.8674998478904365
1772025042015976200,8.69797607421875,-14.455988548493384,-6.441648666489124,2.9085037661910054
1772025042025973200,8.70797314453125,-14.111469008624553,-5.8909250015079975,2.1668881115198135
1772025042035970300,8.71797021484375,-11.708646819639204,-4.411519387933612,1.078165823096037
1772025042045967400,8.72796728515625,-9.505837499910593,-3.762023214033246,0.3635712271455675
1772025042055964200,8.737964111328125,-8.65866245265901,-3.4421301658987997,0.23506430889368055
1772025042065961500,8.74796142578125,-8.67636060643494,-3.8552249370828267,0.4947922997269779
1772025042075958300,8.757958251953125,-8.661800166162848,-4.385518685236573,0.5678227568853647
1772025042085955000,8.767955078125,-8.427896717742085,-3.456728892354667,0.5810097899124026
1772025042095952400,8.777952392578126,-7.000420613369346,-2.1478853048861026,0.6361704630549997
1772025042105949200,8.78794921875,-4.477295051658153,-1.455547475863993,0.43504429879412054
1772025042115946200,8.7979462890625,-2.3588842630594966,-0.983801778268814,0.01038914593681693
1772025042125943300,8.807943359375,-1.3680086008816956,-0.3438043773368001,-0.2881771826609969
1772025042135940400,8.8179404296875,-1.208945581650734,0.21304332348257302,-0.4956054427407682
1772025042145937200,8.827937255859375,-1.3961562524795532,0.8371493277996778,-1.1760068963840604
1772025042155934200,8.837934326171874,-0.8496820616364479,1.4647250540539622,-2.082760214024782
1772025042165931300,8.84793115234375,0.6926140156149864,2.035704448339343,-2.522661159069836
1772025042175928300,8.85792822265625,2.2128543284028765,2.4054370476588605,-2.30988437756896
1772025042185925000,8.867925048828125,3.2684692969948053,2.6364795536905525,-2.0091101636633275
1772025042195922200,8.877922119140624,4.38910589607358,2.5005890279933807,-1.1886256280038505
1772025042205919200,8.887919189453125,5.956466271954774,2.313246839739382,-0.2198351755797863
1772025042215916000,8.897916015625,7.018659449893236,2.3569456962123514,0.5334962705221027
1772025042225913300,8.907913330078125,7.409438052111864,2.4024364045381543,0.8176664825640618
1772025042235910100,8.91791015625,7.391852126538753,2.2255106886193157,0.7096450107190757
1772025042245907200,8.9279072265625,7.355069917586445,1.889012250381708,0.43111952656582
1772025042255904300,8.937904296875,7.429329332017898,1.7084870486661792,0.18998393493443727
1772025042265901300,8.9479013671875,7.468354351460933,1.7207111549451946,0.02646232885941863
1772025042275898000,8.957898193359375,7.701437131148576,1.8156135444328187,-0.05843589542098343
1772025042285895400,8.9678955078125,7.971363494586944,1.9513599854841828,-0.1160761834848672
1772025042295892200,8.977892333984375,8.204953054752945,2.121114202338457,-0.17865809266939758
1772025042305889000,8.987888916015624,8.583390646314621,2.2590376951679585,-0.2448977937091142
1772025042315886300,8.99788623046875,8.770576182702182,2.4807424640119073,-0.23459157681539652
1772025042325883100,9.007883056640624,8.669149944403767,2.846579517197609,-0.12812120686993003
1772025042335880200,9.017880126953125,8.230683708336949,3.323502032908797,0.07018325103372335
1772025042345877200,9.027877197265624,7.724325839304924,3.815246270176768,0.24618586075827478
1772025042355874300,9.037874267578125,7.406549929454922,4.269772245162725,0.4047940488938242
1772025042365871000,9.04787109375,7.2645941123694175,4.538170376120507,0.38651217694580553
1772025042375868400,9.057868408203126,7.079142267906666,4.4265930384248495,0.08702310747988522
1772025042385865200,9.067865234375,6.730025463375449,4.0119118748322125,-0.34304727535918356
1772025042395862300,9.0778623046875,5.91449292410016,3.3915538248717785,-0.7685388059753924
1772025042405859300,9.087859375,3.9361932015031575,2.4532839637219905,-1.332492027951032
1772025042415856400,9.0978564453125,0.7462327930778264,1.0570721816629172,-1.7428518212132156
1772025042425853200,9.107853271484375,-3.1468700392395257,-1.2048743866890668,-1.5457836271062493
1772025042435850200,9.117850341796874,-7.963770555239916,-5.216075775164366,-0.5743777314867824
1772025042445847300,9.127847412109375,-13.105679854953289,-9.300702465334535,1.4837104711614548
1772025042455844000,9.137843994140624,-15.352490813493727,-9.443620989972352,2.9751556282281872
1772025042465841400,9.14784130859375,-17.049770531708003,-8.019994546765089,2.254310520515591
1772025042475838200,9.157838134765624,-16.649030507445335,-7.695855531623959,0.84560297562927
1772025042485835300,9.167835205078125,-14.801317066657543,-5.577340698128938,-0.03264014071151614
1772025042495832300,9.177832275390625,-13.589953902471064,-5.137708340892195,-0.17903266160283238
1772025042505829400,9.187829345703125,-12.247580678105354,-6.612463498312234,0.19746497487220913
1772025042515826200,9.197826171875,-10.859030224454402,-7.492384046345949,0.5762030472178011
1772025042525823200,9.2078232421875,-9.74389046922624,-7.946121501302718,0.4434768307704478
1772025042535820000,9.217820068359375,-8.734590092563629,-6.963976258069277,-0.019768311113491654
1772025042545817000,9.227817138671876,-7.4733327243953935,-4.966525844800472,-0.32633301805406806
1772025042555814100,9.237814208984375,-5.615320007911325,-3.7335228034749623,-0.5642061007581651
1772025042565811200,9.247811279296876,-3.3292391152560707,-2.936962967956066,-0.6566570054404437
1772025042575808000,9.25780810546875,-1.5812264041483401,-1.523021467939019,-0.5500483230028301
1772025042585805000,9.26780517578125,-0.6852537159800529,0.34895547648966313,-0.33489969780407847
1772025042595802000,9.277802001953125,-0.07637538367211819,1.692934967008233,-0.21204620220400391
1772025042605799200,9.287799072265624,0.4245657210081816,2.4384248327642677,-0.2070017052307725
1772025042615796000,9.2977958984375,1.2090315063685177,2.92850727429986,-0.32655294441506266
1772025042625793300,9.307793212890624,2.296836679947376,3.0966505488261578,-0.5698940832667052
1772025042635790000,9.3177900390625,3.5713603569239374,2.984498333851993,-0.6463805260978639
1772025042645785000,9.32778515625,4.889628483080863,2.7598049045860766,-0.5328017854519188
1772025042655782100,9.3377822265625,6.0994993628829715,2.603764448046684,-0.5122380861770361
1772025042665779200,9.347779296875,7.017230293872952,2.5540289417579767,-0.7422822288211435
1772025042675776000,9.35777587890625,7.651984825715422,2.5932991681337354,-1.0693967526417225
1772025042685773000,9.36777294921875,8.055396115013956,2.6289395135745406,-1.1623477888658642
1772025042695770000,9.37777001953125,8.200861986047029,2.524561731994152,-0.9472226176079362
1772025042705767200,9.38776708984375,7.983211168769001,2.3295041470572353,-0.7037504727877676
1772025042715764000,9.397763916015625,7.616174676665663,2.1486542434319853,-0.5922537991128861
1772025042725761300,9.40776123046875,7.4466481310874215,2.1410589659973978,-0.4614690721221268
1772025042735758000,9.417758056640626,7.366765031555294,2.311149575199187,-0.3527017503459006
1772025042745755100,9.427755126953125,7.508881592160463,2.4911139281615613,-0.2920749938171357
1772025042755752200,9.437752197265626,7.8423852324962615,2.6034917685851453,-0.26888627980090674
1772025042765749200,9.447749267578125,8.178986838847399,2.680026726733148,-0.2169647347100079
1772025042775746000,9.45774609375,8.386358838695287,2.783534447480738,-0.059415481042861935
1772025042785743400,9.467743408203125,8.45394009053707,2.9894992108792064,0.12145371180474758
1772025042795740200,9.477740234375,8.409548575624823,3.2542847042977807,0.29505116008371113
1772025042805737000,9.487737060546875,8.254026590001583,3.5281069061309096,0.4471093420539051
1772025042815734300,9.497734375,7.966666276681423,3.8165252040714024,0.5557523067981004
1772025042825731000,9.50773095703125,7.597237921005487,4.046250197763741,0.6922759427670389
1772025042835728100,9.51772802734375,6.707955085864663,4.111269197902083,0.9886183117050676
1772025042845725200,9.52772509765625,5.175964714050292,3.6662992790296673,0.9860331905826926
1772025042855722200,9.53772216796875,3.2664263929903505,2.582300219735503,0.34558636538274584
1772025042865719000,9.547718994140626,0.8037725433766841,1.1683674875468015,-0.0832708422742784
1772025042875716000,9.557716064453125,-2.378594925701618,-1.0301946961313486,0.05474982731938362
1772025042885713200,9.567713134765626,-5.330161004027724,-4.561922423107922,0.3418508321162313
1772025042895710200,9.577710205078125,-6.9526049692273135,-8.514343413573503,0.3937481926139444
1772025042905707000,9.58770703125,-7.963041656443476,-9.519961886852979,0.5168551515184343
1772025042915704000,9.5977041015625,-11.35889230172634,-7.648616226065158,0.3503953365670517
1772025042925701000,9.607701171875,-15.223635300999879,-8.048355548852681,0.17731102544199676
1772025042935698000,9.617697998046875,-15.622598378717898,-6.6266323089182375,0.10363850752040743
1772025042945695200,9.6276953125,-14.289958612859248,-3.496779455453157,0.1743936036253348
1772025042955692000,9.637692138671875,-12.8102788585186,-3.662252633987367,0.13848328213673083
1772025042965689000,9.647689208984374,-12.014202130341529,-4.889802962864935,0.238853873902373
1772025042975686100,9.65768603515625,-12.029107438528538,-5.413540128982067,0.3559339737327769
1772025042985683200,9.66768310546875,-11.499112088799476,-5.638484025877714,-0.02611884918399155
1772025042995680000,9.677679931640625,-10.192094255453348,-4.273188775607943,-0.33341194346435366
1772025043005677300,9.68767724609375,-8.232989647191763,-2.3953639819338917,-0.48030163675546644
1772025043015674000,9.697674072265626,-5.852226145279407,-1.704990438722074,-0.8756596026536076
1772025043025671000,9.7076708984375,-3.266929666337371,-1.7201891768977045,-1.3532982307448982
1772025043035668200,9.717668212890626,-1.2643179247826337,-1.2893337080955505,-1.6581882094062863
1772025043045665000,9.7276650390625,0.09728606975376605,-0.27676176241636274,-1.8627045275621115
1772025043055662000,9.737662109375,0.9743214177399873,0.8087474091798067,-1.9539991018161176
1772025043065659100,9.7476591796875,2.0497546010017396,1.5825029999554157,-1.74203685156852
1772025043075656200,9.75765625,3.4014269841104743,2.0711106927633285,-1.3539533336527645
1772025043085653000,9.767653076171875,4.325514006128907,2.3743030737265944,-1.0131485765233634
1772025043095650300,9.777650390625,4.81525800949037,2.4929949196025727,-0.7612075863044708
1772025043105647000,9.787647216796875,5.398196429377794,2.3319097468942402,-0.7596258700709789
1772025043115644200,9.79764404296875,6.406657432606816,2.0868883998706935,-1.0719241522274912
1772025043125641200,9.80764111328125,7.559955361315607,2.137752033406496,-1.342817461001873
1772025043135638300,9.81763818359375,8.30075093177557,2.385415711632371,-1.3872215431347488
1772025043145635000,9.827635009765626,8.636796657809615,2.50025468147248,-1.2214190595809369
1772025043155632000,9.837632080078125,8.561993053498863,2.451608431725204,-0.9740832981351762
1772025043165629200,9.847629150390626,8.190733975264429,2.5293860834106803,-0.6975906349837779
1772025043175626000,9.8576259765625,7.789973492735624,2.7151158680319782,-0.4351615684982389
1772025043185623300,9.867623291015626,7.567670465737581,2.8049402236029506,-0.2581491241440177
1772025043195620000,9.8776201171875,7.406026197841763,2.8758953357920047,-0.16951164027005433
1772025043205617200,9.8876171875,7.258153265666961,3.048232554876804,-0.18235336699075996
1772025043215614200,9.8976142578125,7.291038467180728,3.234149386502802,-0.23597404414974152
1772025043225611300,9.907611328125,7.2997215398520225,3.329626361007988,-0.26818127333670855
1772025043235608000,9.917608154296875,7.186895371139049,3.453492979173362,-0.2580772279515862
1772025043245605000,9.927605224609374,7.1372045807749025,3.662948215036094,-0.24383323321752248
1772025043255602200,9.937602294921875,7.085432307961582,3.8321927288025615,-0.17001900527030228
1772025043265599000,9.947598876953125,6.7316428354442115,4.000678825417161,0.015464476439729332
1772025043275596000,9.957595947265625,5.949806229543686,4.2472693214535715,0.27976708171218634
1772025043285593000,9.967593017578125,4.909635498321056,4.29432508713901,0.23599895939528942
1772025043295590100,9.977590087890626,3.5011844124138354,3.8870536152809856,0.17652071531452238
1772025043305587000,9.9875869140625,1.4624398657262325,3.1007860411956902,0.3082899232979864
1772025043315584300,9.997584228515626,-0.6247352421313523,1.601180227896571,0.2544847564175725
1772025043325581000,10.0075810546875,-2.7943349506974218,-0.9092521487191318,0.42067645848467944
1772025043335578000,10.017578125,-5.3819981587707995,-4.633892557558417,0.9993781906504183
1772025043345575200,10.0275751953125,-7.86184045907259,-8.406079438209533,1.6357726717196404
1772025043355572200,10.037572265625,-9.976634810739755,-8.875551637914777,1.823614918450266
1772025043365569000,10.047569091796875,-13.14027186038494,-6.883985606509447,1.8101023797959088
1772025043375567000,10.057567138671875,-16.142162350803613,-7.954767164573073,1.9875190941020846
1772025043385564200,10.067564208984376,-15.281106662237644,-7.67606654304862,1.3222729778841138
1772025043395561200,10.077561279296875,-12.715158442366123,-4.680715683531761,1.3882587772279977
1772025043405558000,10.08755810546875,-11.325911238622664,-4.591558559697866,1.9413477100357412
1772025043415555300,10.097555419921875,-11.477537385851145,-5.74405043272078,2.226371689362824
1772025043425552100,10.10755224609375,-11.86123275181055,-6.181191557663679,2.4025372345641256
1772025043435549000,10.117548828125,-11.542976949489116,-6.765988172638416,2.0800494937613605
1772025043445546200,10.127546142578124,-10.9253524161458,-6.403619672346115,1.1039763369832187
1772025043455543000,10.13754296875,-9.984697705686091,-4.822459026910364,0.45996180936433373
1772025043465540000,10.1475400390625,-8.478443248152733,-3.5214530011996623,0.16518807798251509
1772025043475537200,10.157537109375,-6.653913699075579,-2.5419538885608315,-0.09927256739586592
1772025043485534200,10.1675341796875,-4.814180735647678,-1.553350262968242,-0.5047432003770024
1772025043495531000,10.177531005859375,-2.8916911630779505,-0.5126718744844198,-0.8414895489610731
1772025043505528300,10.1875283203125,-1.0244593673497437,0.47513183290213346,-1.057871369216591
1772025043515525000,10.197525146484375,0.46449616485834117,1.364701376029849,-1.1985631577156484
1772025043525522200,10.207522216796875,1.8591864364385604,2.0482754683598876,-1.1428178896181285
1772025043535519200,10.217519287109376,3.0000270346343516,2.497659112021327,-0.9623058396451175
1772025043545516300,10.227516357421875,3.691346918785572,2.8339968067392705,-0.7706899195946753
1772025043555513000,10.23751318359375,4.321979402261972,3.2212484038755296,-0.6427906849123537
1772025043565510400,10.247510498046875,4.8677521668374535,3.7618040183246135,-0.3211854260325432
1772025043575507200,10.257507080078126,5.424949996268749,4.156436373361945,-0.10323233787231147
1772025043585504300,10.267504150390625,6.395533396524191,3.956560866749286,-0.3058626961510628
1772025043595501300,10.277501220703124,7.671226117280125,3.598730594408512,-0.5325494181260466
1772025043605498400,10.287498291015625,8.893732022249699,3.376908044403791,-0.749623166168481
1772025043615495200,10.2974951171875,9.635504913309216,3.1816865010768174,-0.9300926921740174
1772025043625492200,10.3074921875,9.799780114230513,2.9802751631990074,-1.1123892874762416
1772025043635489300,10.3174892578125,9.603266777527331,2.9985344579890367,-1.1623441356040536
1772025043645486300,10.327486328125,9.118263831213117,3.311909210270643,-1.1635498581320047
1772025043655483100,10.337483154296875,8.618777601516246,3.593820026013255,-1.122338872952014
1772025043665480200,10.347480224609376,8.45834329393208,3.9596956576436755,-0.9486968548789619
1772025043675477200,10.357477294921875,8.508704530903696,4.164541353884339,-0.9048523063249886
1772025043685474000,10.36747412109375,8.526177059230207,4.283056674149632,-0.8590725519247353
1772025043695471400,10.377471435546875,8.513755384552478,4.399160257098078,-0.8011006938189268
1772025043705468200,10.38746826171875,8.514917414069176,4.544542541500926,-0.7570349037297069
1772025043715465200,10.39746533203125,8.343771158334611,4.668105208283663,-0.702200759127736
1772025043725462300,10.407462158203124,7.866355306148528,4.758194644531607,-0.6585159311801195
1772025043735459300,10.417459228515625,6.973065573453903,4.870838442414999,-0.4622676751539111
1772025043745456000,10.4274560546875,5.530982851579785,4.75682861687541,-0.23231793279498814
1772025043755453400,10.437453369140625,3.735391812217235,3.9942847404658792,-0.061495502187311646
1772025043765450200,10.4474501953125,1.3732687133669852,2.567581374031305,-0.039350817331299186
1772025043775447000,10.457447021484375,-1.5385335098475217,0.03177694801092148,0.009158362032845617
1772025043785444400,10.4674443359375,-4.170300648063421,-3.975114176049828,0.04640986899733543
1772025043795441200,10.477441162109375,-5.548091222769021,-7.732281766745448,0.26412023444287475
1772025043805438200,10.487438232421875,-6.798032247152924,-8.507337918725609,0.7420921130765229
1772025043815435300,10.497435302734376,-9.876386968570946,-6.15550941939652,0.9650004124913364
1772025043825432300,10.507432373046875,-14.246140513920784,-5.275037082698941,1.1034275439940393
1772025043835429000,10.51742919921875,-16.2467754024446,-6.48850511021018,0.35422749860845504
1772025043845426400,10.527426513671875,-14.604785609775782,-5.809469538092613,0.20398330725766717
1772025043855423200,10.53742333984375,-12.223482009637355,-5.345079171696305,1.0017290646255015
1772025043865420300,10.547420166015625,-10.766079553556441,-6.840000918832421,1.251627954557538
1772025043875417300,10.557417236328124,-10.041120434653758,-8.06794229285419,1.2872782368704676
1772025043885414400,10.567414306640625,-10.002380661892891,-8.882861668667196,1.3222566112712024
1772025043895411200,10.5774111328125,-10.068921464771032,-8.517609137371181,0.9850496594380587
1772025043905408300,10.587408203125,-9.641960957580805,-6.12350392332673,0.47966158528625963
1772025043915405300,10.5974052734375,-8.307453059762716,-3.7603637563884256,0.3503593519382179
1772025043925402000,10.607402099609375,-6.187886086866259,-2.1495488541841508,0.3544616726905107
1772025043935399200,10.617399169921875,-3.722345283639431,-1.0376929429322481,0.32399887601807714
1772025043945396200,10.627396240234376,-1.655271299046278,-0.18363573495149613,0.35993469727411864
1772025043955393300,10.637393310546875,-0.20345336509943007,0.6040878831610084,0.3222660608761012
1772025043965390000,10.64739013671875,0.8109294293940067,1.2070417938560247,0.05441796501651406
1772025043975387400,10.657387451171875,1.6100526856601238,1.6576614090532062,-0.37596608688160776
1772025043985384200,10.66738427734375,2.3944302082151174,2.2386881501004097,-0.6579838701300322
1772025043995381200,10.67738134765625,3.1516222022026774,2.9252053101450204,-0.7520302273102104
1772025044005378300,10.68737841796875,3.6765655292391775,3.4824110306218263,-0.886229438919574
1772025044015375000,10.697375,4.3342531929016115,3.652173723043501,-1.101133149446547
1772025044025372200,10.7073720703125,5.218850500574708,3.729959265774488,-1.2469623008340596
1772025044035369200,10.717369140625,6.113450146824121,3.8224633619487283,-1.4578130827084184
1772025044045366300,10.7273662109375,6.895484321123361,3.777467451402545,-1.7551416862048208
1772025044055363000,10.737363037109375,7.447687411007284,3.5743203757733104,-1.9661266158528625
1772025044065360400,10.7473603515625,7.769301291584968,3.3618998603641983,-2.022216167343408
1772025044075357200,10.757357177734375,7.835944970315694,3.2668928414583203,-1.975353878403455
1772025044085354200,10.767354248046875,7.717588640004396,3.2568852421849965,-1.9486746919229625
1772025044095351300,10.777351318359376,7.606794269379973,3.303548793682456,-1.901140495070815
1772025044105348400,10.787348388671875,7.4136892798155545,3.458287519973516,-1.725563271151483
1772025044115345200,10.79734521484375,7.350932671651243,3.7075831833153963,-1.54612279593274
1772025044125342200,10.80734228515625,7.615245871382951,3.911182094365358,-1.4890334197498858
1772025044135339300,10.81733935546875,7.547094710698723,4.265255644521117,-1.222437662038952
1772025044145336000,10.827336181640625,7.335948453009128,4.6280718885809184,-0.9306621626250445
1772025044155333400,10.83733349609375,7.216839843025803,4.700350358328223,-0.9945182564638555
1772025044165330200,10.847330078125,6.7716767396688455,4.744271333119273,-1.1738318904325364
1772025044175327200,10.8573271484375,6.387480438449979,4.754540213677287,-1.329135557129979
1772025044185324300,10.86732421875,6.310982305181026,4.6183378455519675,-1.1309256456419825
1772025044195321300,10.8773212890625,4.671785942623019,4.706569671234488,-0.6281177241764963
1772025044205318100,10.887318115234375,1.9452596227824688,4.287529435649514,-0.5880341355912387
1772025044215315500,10.8973154296875,0.7607914797842502,2.867754407173395,-0.642134705221653
1772025044225312300,10.907312255859376,-0.46768356272280215,1.0562532664954662,-0.4869849139116704
1772025044235309300,10.917309326171875,-1.8863392317801713,-1.5810194833993911,-0.4332280431523919
1772025044245306400,10.927306396484376,-3.5825668105930086,-5.3976662680238485,-0.08572831842899321
1772025044255303200,10.93730322265625,-4.801627543544769,-8.08655346982181,0.5676308145098388
1772025044265300200,10.94730029296875,-6.611990620103478,-7.546827584195136,1.361507694555074
