time,seconds_elapsed,z,y,x
1772024948089611300,0.078611328125,1.6900240479975939,-0.834914700615406,-0.8601333130240439
1772024948099608000,0.088608154296875,2.093707724496722,-0.0298369198590517,-0.8356867079012096
1772024948109606100,0.098606201171875,0.8805740435063838,0.3734241473138332,0.8956871492251753
1772024948119603500,0.108603515625,-0.23136603889763355,0.642742607986927,1.744017503991723
1772024948129600300,0.118600341796875,-0.4991507141321897,0.9651309800684451,2.0239767472751438
1772024948139597300,0.128597412109375,-0.32696284039020534,0.7018266651183367,1.8653451051987706
1772024948149594400,0.138594482421875,0.24962650273144243,0.343797070813179,1.3271771165385842
1772024948159591200,0.148591064453125,0.6699439186453819,0.29026304902434347,1.0757748363062738
1772024948169588200,0.158588134765625,0.759493841189146,0.5941191545933485,1.011371922239661
1772024948179585300,0.168585205078125,0.685775694027543,1.1336597467809915,0.5495440998077392
1772024948189582300,0.178582275390625,0.5222323145121336,1.6556775417596101,-0.1793508972391486
1772024948199579100,0.1885791015625,-1.869064271852374,1.5954951679974794,-0.8384864216223359
1772024948209576400,0.198576416015625,-5.099351429969072,0.6612842268496751,1.2435127449020742
1772024948219573200,0.2085732421875,-0.14031623318493366,0.7461386850535869,-0.045921793219447136
1772024948229570300,0.2185703125,1.1499988871634006,1.989491563218832,-2.084958454721421
1772024948239567400,0.2285673828125,0.7498585823595524,1.25708855805099,0.38587519421651956
1772024948249564400,0.238564453125,0.9840952082574367,0.6296954948872328,2.1647351712696254
1772024948259561200,0.248561279296875,1.2752081521093845,-0.2636059282451868,1.716844981036335
1772024948269558300,0.258558349609375,1.1094020883589983,-0.9873574249237775,1.379039405722916
1772024948279555300,0.268555419921875,0.47137715654373163,-1.0775029752731322,1.3758553688593207
1772024948289552100,0.27855224609375,-0.1485053848594427,-1.0443255128145217,0.9105747756250202
1772024948299549400,0.288549560546875,-0.4904413379758596,-1.068234211668372,0.38273660392984743
1772024948309546200,0.298546142578125,-0.8395148878872394,-0.9385936862766742,-0.011014730489253997
1772024948319543300,0.308543212890625,-0.3943172977387905,-0.5880886422574519,0.3272816970810294
1772024948329540400,0.318540283203125,-0.5903659395396709,-0.9524322420150041,0.5380043225310742
1772024948339538400,0.328538330078125,-0.6313835941046476,-1.5213894828230141,0.5750343687646091
1772024948349535200,0.33853515625,0.09580781389474868,-1.6274629624053836,0.4075806839376688
1772024948359532300,0.3485322265625,0.3212228354334831,-1.2733081637069583,0.25155732466354963
1772024948369529300,0.358529296875,-0.06898936507403851,-0.77840692371279,0.2783392408661544
1772024948379526400,0.3685263671875,-0.6962894892573356,-0.46717122928649185,0.35036154389530416
1772024948389523200,0.378523193359375,-0.9438853629440068,-0.3301967077448964,0.11502061001732945
1772024948399520500,0.3885205078125,-0.9021177667945622,-0.32190760282725095,-0.2557648593559861
1772024948409517300,0.398517333984375,-1.045692124992609,-0.34128830286264417,-0.5470635350383818
1772024948419514400,0.408514404296875,-1.1550701990783214,-0.26289748771488664,-0.8024290198132396
1772024948429511400,0.418511474609375,-1.0260597882837057,-0.15269669906944036,-0.9344402198590338
1772024948439509000,0.428509033203125,-1.0055804793566465,-0.11752981635928153,-1.0264621585395186
1772024948449506000,0.438506103515625,-0.9788514623850584,-0.10148819761872291,-1.1854849188253282
1772024948459502800,0.4485029296875,-0.7115478486657142,-0.03318710706979036,-1.42450118021518
1772024948469500000,0.4585,-0.6546259380042553,-0.07206658056229352,-1.5592562721416354
1772024948479497000,0.4684970703125,-0.43628304680883884,-0.1410524385049939,-1.802591565774381
1772024948489493800,0.47849365234375,-0.08226035005748271,0.18408757037222384,-2.2005007505252956
1772024948499491000,0.488490966796875,-0.06999415820240974,0.6331228389874101,-2.263168219101429
1772024948509487900,0.49848779296875,-0.027777064719796178,0.8386430734887719,-2.26036412146613
1772024948519485000,0.50848486328125,-0.2326712762773037,0.534122658792138,-2.0589093828380105
1772024948529482000,0.51848193359375,-0.1676408779621124,-0.35944939797520636,-1.5914479384332894
1772024948539479000,0.52847900390625,0.26100539035797116,-1.342084470552206,-1.4227163426250218
1772024948549476900,0.538476806640625,0.41239188361167906,-1.7303475828185677,-1.5064949882909655
1772024948559474000,0.548473876953125,0.4172480914711952,-1.4724378203883766,-1.5097276866018772
1772024948569471000,0.558470947265625,0.5298199931621551,-0.7731877277597785,-1.5515661560304461
1772024948579468000,0.568468017578125,0.651496992328763,-0.13939824155718086,-1.6325602855443953
1772024948589464800,0.57846484375,0.8003460760593414,0.4419496942684054,-1.9909997758246958
1772024948599462100,0.588462158203125,0.6888602160394192,0.8029244021147489,-2.1864919527865947
1772024948609459000,0.598458984375,0.31168285367190834,0.8902230386003851,-2.0343108020238576
1772024948619455700,0.608455810546875,0.2646370248585939,0.7531877267822623,-1.6754909341238438
1772024948629453000,0.618453125,0.4805810382187366,0.3334799671992659,-1.402616972926259
1772024948639449900,0.628449951171875,0.42883039271533485,-0.030194062733650207,-1.1880084459535778
1772024948649447000,0.638447021484375,0.35974691961705685,0.1370999014869332,-1.0304498399361968
1772024948659444000,0.64844384765625,0.29189444961845873,0.5296545734673738,-1.2033566756024956
1772024948669441000,0.65844091796875,0.11761281846761702,0.7780781301498413,-1.5721498021148144
1772024948679437800,0.668437744140625,-0.0406862306535244,0.7282590372309088,-1.683406675684452
1772024948689435000,0.678434814453125,-0.06575345189273357,0.6669511665701866,-1.6365816500149666
1772024948699432000,0.688431884765625,0.15227204391658306,0.4495426336154341,-1.738411062286794
1772024948709429000,0.698428955078125,0.14701368499696255,-0.38268969604820013,-1.1849663017787038
1772024948719425800,0.70842578125,0.041087212669849396,-0.2523565122172236,-0.3422936074476689
1772024948729422800,0.7184228515625,0.212039991658926,0.18571575609594582,0.4427145411610603
1772024948739420000,0.728419921875,0.5185656086981296,0.1328542267411947,0.5082014510720968
1772024948749416700,0.738416748046875,0.7851654580622911,-0.10463701703846454,0.2536594480419531
1772024948759414000,0.7484140625,0.8917050938516855,-0.11697189021557569,0.12285893896017223
1772024948769412000,0.758412109375,0.8743640829503536,0.08342559444457293,0.10658420558348297
1772024948779409000,0.768408935546875,0.8570780171066522,0.185187640568614,0.0030374314671382306
1772024948789405700,0.77840576171875,0.8279483687341213,0.1431196001678705,-0.19381174959428607
1772024948799403000,0.788403076171875,0.46916941736638546,0.022656360705196856,-0.6358394775349646
1772024948809399800,0.79839990234375,0.5986012684434652,-0.008870411936938763,-0.2427741160860285
1772024948819396900,0.80839697265625,1.0900468150258065,-0.06564619212597608,0.2148294762469828
1772024948829394000,0.818393798828125,1.1135872650891543,-0.15281360344737768,0.3468875476418063
1772024948839391000,0.828390869140625,1.6288357120633123,-0.20420915190279482,0.2627021843384951
1772024948849387800,0.8383876953125,2.0438310561716557,-0.07610153516680002,0.07507496859803796
1772024948859385000,0.848385009765625,2.128408450999856,0.019225217212736605,0.10692808711770921
1772024948869382000,0.8583818359375,2.1482938856869933,0.024057167413830755,0.27833197087515144
1772024948879379000,0.86837890625,2.292728660106659,0.08632277719080447,0.24999252303224057
1772024948889376000,0.8783759765625,2.580060331854224,0.2863295089676976,0.01022091323044151
1772024948899372800,0.888372802734375,2.9860359186828136,0.6203542505681514,-0.6146971015892922
1772024948909369900,0.898369873046875,3.548891920006275,0.873389684960246,-1.205155833978951
1772024948919367000,0.908366943359375,3.845201847979426,1.06255938090235,-1.4947496054396032
1772024948929364000,0.918364013671875,3.751418817910552,1.445097978042066,-1.6122572099670767
1772024948939360800,0.92836083984375,3.5626603331178424,1.2018982934877276,-1.478830151773989
1772024948949358000,0.938358154296875,3.4041935262143608,0.7551695482492446,-1.3413063257865607
1772024948959355000,0.94835498046875,3.0374744294971228,0.5789701007783412,-1.394708245628327
1772024948969353000,0.95835302734375,1.9501596697837114,0.3239642430961132,-1.9602137385472653
1772024948979349800,0.968349853515625,-0.3575654839247465,-0.5110094942301512,-1.9647255168832838
1772024948989347000,0.97834716796875,-3.5354479165434833,-2.0940578531086445,-1.4967292349494994
1772024948999343900,0.98834375,-6.890442819824814,-4.2292078873232,-1.2774733205623925
1772024949009341000,0.9983408203125,-10.750255376958846,-6.167607853469252,-0.560843602055125
1772024949019338000,1.008337890625,-14.162759635400771,-6.889212985768914,-0.3411595619164407
1772024949029335000,1.0183349609375,-16.314548377466203,-6.011960780161619,-2.13996810202077
1772024949039331800,1.028331787109375,-16.412053642928598,-4.666921259196102,-4.482335383912921
1772024949049329200,1.0383291015625,-15.242420665490627,-3.691919165715575,-5.144239203965664
1772024949059326000,1.048325927734375,-13.540900825488567,-2.3121064375326035,-4.940260938209295
1772024949069322800,1.05832275390625,-12.633217825782298,-1.3755851736158131,-3.7874785578072068
1772024949079320000,1.068320068359375,-11.368830342894793,-1.595011183872819,-1.9713646626368164
1772024949089316900,1.07831689453125,-9.756575178754328,-2.4771622674375773,0.32247860764823855
1772024949099314000,1.08831396484375,-8.38389098727703,-3.1934511731505393,2.4122768305510283
1772024949109311000,1.09831103515625,-7.066703057572245,-3.5168279717475173,3.74939841799885
1772024949119308000,1.10830810546875,-5.3927229664027685,-3.341573988433182,3.7000869823411104
1772024949129304800,1.118304931640625,-3.5984137835443017,-2.4701918439030646,3.1064833760544657
1772024949139302000,1.128302001953125,-1.9322610249996184,-1.3107850769251583,2.627293499933183
1772024949149299000,1.138298828125,-0.3006441577851772,-0.07681669769883155,2.204415001359582
1772024949159297000,1.148297119140625,1.322896955001354,0.8829138846307992,1.790468143390864
1772024949169293800,1.1582939453125,2.5386089620470997,1.7325070989400146,1.4195555405065416
1772024949179291100,1.168291015625,3.4241958652794358,3.1293431503772733,0.7019177044026553
1772024949189288000,1.178287841796875,4.052727577084303,3.170629100489616,1.0892559569090605
1772024949199285000,1.188284912109375,4.042132533311844,2.9617706614762542,1.9771846009619534
1772024949209282000,1.198281982421875,4.293965021654963,3.889798530074954,2.5068036647245284
1772024949219278800,1.20827880859375,4.891479079383611,4.574862860962749,2.418682459809631
1772024949229276000,1.21827587890625,5.762594974192977,4.4250522387236355,2.221568234603852
1772024949239273000,1.22827294921875,6.432727693408728,4.085349743747711,2.16387314761281
1772024949249270000,1.23827001953125,6.6360594779551025,3.89719097841382,2.0073319019444287
1772024949259266800,1.248266845703125,6.975023137262463,3.7997172771334644,1.6601109941624104
1772024949269264000,1.258263916015625,7.416114461135864,3.64414736071527,1.6932479784801602
1772024949279261000,1.268260986328125,7.838159723755717,3.6098335877031085,2.501398298549652
1772024949289258000,1.278258056640625,7.969957719442248,3.826718096783757,2.653955589148402
1772024949299254800,1.2882548828125,7.7559414592742915,4.134355474457145,1.9966990103796123
1772024949309252000,1.298252197265625,7.497716639545559,4.543427858257293,1.1937378564510495
1772024949319249000,1.308248779296875,7.374974056974053,5.022690215092897,0.8306092585064471
1772024949329246000,1.318245849609375,7.165339957413077,5.355767154449224,0.7354905959196388
1772024949339243800,1.328243896484375,7.2099196883738035,5.677546454721689,0.5402617826016619
1772024949349241000,1.338240966796875,7.415770762264728,5.96574380338788,0.41762722698189314
1772024949359238000,1.34823779296875,7.5427037822633975,5.934386542093754,0.19605839600991457
1772024949369235000,1.35823486328125,7.423485866686701,5.971863747572899,-0.14119153644843027
1772024949379232000,1.36823193359375,7.253920742663741,6.067115681150555,-0.52290553759858
1772024949389228800,1.378228759765625,7.268695117947459,5.91357931638658,-0.48240142204631115
1772024949399225900,1.388225830078125,7.346048991262912,5.739239817568659,-0.46343460004143416
1772024949409223000,1.398222900390625,7.245420625343918,5.626224848285317,-0.5631952432151883
1772024949419220000,1.408219970703125,7.0498781794995065,5.397219693300127,-0.8962749590504914
1772024949429216800,1.418216796875,6.429860029017925,5.185344536814093,-1.192404123629257
1772024949439214000,1.428214111328125,5.2001148204445835,4.579758231788873,-1.607294034601748
1772024949449210600,1.438210693359375,2.992075783368945,3.597203238710761,-2.1388693469986317
1772024949459207400,1.44820751953125,-0.6158370654046535,2.1658856564790008,-1.950275989639759
1772024949469204700,1.458204833984375,-3.4433711058706042,-0.4899275432348251,-0.6150739720776677
1772024949479201500,1.468201416015625,-5.825430492812394,-4.310166214871407,1.5286168037280439
1772024949489198300,1.4781982421875,-9.680262338924408,-8.109893428876996,3.3599995797008275
1772024949499195600,1.488195556640625,-14.405953474736213,-9.769989371600747,4.038685023206472
1772024949509193700,1.49819384765625,-16.793398061847686,-11.005671569007635,3.751474055229127
1772024949519190500,1.5081904296875,-16.78580161536932,-7.863693393462896,0.7274588267639279
1772024949529187300,1.518187255859375,-16.09628790385723,-5.354332153210043,-1.557967255244404
1772024949539184600,1.5281845703125,-15.692073481482266,-7.209622751253843,-1.0423580121338367
1772024949549181400,1.538181396484375,-15.177417155182361,-9.054768387380243,0.03023242198266089
1772024949559178500,1.548178466796875,-13.893000445222853,-10.282497579956054,1.3852680709794163
1772024949569175600,1.558175537109375,-12.291356691467762,-10.567725557422637,2.417658085197955
1772024949579172600,1.568172607421875,-10.924599551951884,-8.987884470152855,2.1343663364909586
1772024949589169400,1.57816943359375,-9.098438602280616,-6.537904808673262,1.8221373932436107
1772024949599166700,1.588166748046875,-6.857606718149781,-4.358739399382472,1.690391858396679
1772024949609163500,1.59816357421875,-4.447002204725146,-2.4614772070497275,1.0706544245526195
1772024949619160600,1.60816064453125,-2.339375260469317,-0.9902160292252897,0.6448945983890444
1772024949629157600,1.61815771484375,-0.42885260454714297,-0.0791480632558465,0.12962744671441614
1772024949639154400,1.628154541015625,1.1797072122067211,0.6104273153156041,-0.3705961208136752
1772024949649151500,1.6381513671875,2.5441145737260578,1.165873040382564,-0.5319042886229232
1772024949659148500,1.6481484375,3.8513165314674374,1.6721783024445176,-0.6527728574834764
1772024949669146600,1.658146728515625,4.9959465850740665,1.9360642166748643,-0.6861512493416667
1772024949679143700,1.668143798828125,6.127502053052186,1.6312138393715023,-0.3979743954742327
1772024949689140500,1.678140380859375,7.221509588402509,1.3166869944453239,-0.16475176892448215
1772024949699137500,1.688137451171875,8.048409909388422,1.4038897693410515,0.04299925683625042
1772024949709134600,1.698134521484375,8.712480552086234,1.5374062593832611,0.3057062452140264
1772024949719131400,1.70813134765625,9.056287559771537,1.7386682519182561,0.5709433365913108
1772024949729128700,1.718128662109375,9.219439309620856,2.018195387394726,0.8902570870004594
1772024949739125500,1.72812548828125,9.299187384596467,2.202424119803309,1.0533228390667586
1772024949749122600,1.73812255859375,9.106492144876718,2.5328297941237685,1.1289913896437733
1772024949759119600,1.74811962890625,8.830278079470991,2.9060362070336936,1.0710702388118951
1772024949769116700,1.75811669921875,8.548449096792936,3.2386241938292977,0.7771930909436195
1772024949779113500,1.768113525390625,8.299777118307352,3.5827301844611763,0.4557105816606432
1772024949789110800,1.77811083984375,8.166568086779117,3.9355008353248238,0.15387312243767082
1772024949799107600,1.788107666015625,8.027734201106428,4.217277503293753,-0.0936105230461806
1772024949809104400,1.7981044921875,7.8952540683746335,4.435150731150806,-0.30396533809714016
1772024949819101700,1.808101806640625,7.783827245065569,4.484320127989352,-0.49611901828609406
1772024949829099800,1.818099853515625,7.669958289301395,4.432548147436976,-0.5253203801879659
1772024949839096600,1.8280966796875,7.5291113102406255,4.339272190107405,-0.5616711023878306
1772024949849093400,1.83809326171875,7.440016730248928,4.261477002765238,-0.6917471696525812
1772024949859090700,1.848090576171875,7.320587802270055,4.186725420902669,-0.9528139348089695
1772024949869087500,1.85808740234375,6.642579819634556,4.097127859824895,-1.0593038862377404
1772024949879084500,1.86808447265625,5.634058026129007,4.062988274335861,-1.2510463552773
1772024949889081600,1.87808154296875,4.407890091520548,3.819652980703115,-1.7447651074886321
1772024949899078700,1.88807861328125,2.215108829331398,3.2485333011642097,-2.0583499953895807
1772024949909075500,1.898075439453125,-0.03945698111951351,1.5801339327365158,-1.9099559619501232
1772024949919072500,1.908072509765625,-2.9414047497957942,-1.9882669898599385,-1.004583577273786
1772024949929069600,1.918069580078125,-7.682251953685284,-6.9226476378589865,0.9216936240758746
1772024949939066600,1.928066650390625,-12.688422411131858,-10.669032553255557,2.3479499043300747
1772024949949063400,1.9380634765625,-17.080256855386494,-12.71868661649227,2.5664003475531936
1772024949959060700,1.948060791015625,-19.394930805319547,-11.644719998651743,0.803707661446929
1772024949969057500,1.9580576171875,-19.885093326354024,-5.136144744837284,-3.5158667254999276
1772024949979054300,1.968054443359375,-19.16170774037838,-2.302649750140309,-5.154331558912992
1772024949989052400,1.978052490234375,-18.186634042966364,-3.592318681539595,-4.696776883755624
1772024949999049700,1.9880498046875,-17.58348344065547,-5.609667096716165,-3.5942680620417
1772024950009046500,1.998046630859375,-16.503482218825816,-6.71334963838458,-1.9903188078232108
1772024950019043300,2.008043212890625,-14.441457334315777,-7.446721780845523,-0.33134872732423243
1772024950029040600,2.01804052734375,-12.845932355701922,-6.788963974556326,0.40839609197378157
1772024950039037400,2.028037353515625,-10.91062012643814,-5.325550879883766,0.6159748664401471
1772024950049034500,2.038034423828125,-8.086171192505955,-3.879029883301258,0.7812634821876883
1772024950059031600,2.048031494140625,-4.970244573062658,-2.2162474779725074,0.5487952176691964
1772024950069028600,2.058028564453125,-2.21760356875658,-0.9310463396370411,0.31502434611953795
1772024950079025400,2.068025390625,0.14380290625691414,-0.09724281513392925,0.2344800061997026
1772024950089022700,2.078022705078125,1.7685650852710006,0.4459726661741733,-0.07977708187438547
1772024950099019500,2.08801953125,3.038275809007883,0.8445528820544481,-0.29417211222685874
1772024950109016600,2.0980166015625,4.578264193838835,1.7431658555984495,-0.24222777078226207
1772024950119013600,2.108013671875,6.05517097633481,2.1165546393379566,0.19743505465798078
1772024950129010400,2.118010498046875,7.222873277971148,1.5713652276083827,0.7830368485357612
1772024950139007500,2.128007568359375,8.261631804308294,1.1121917190775275,1.449419056111574
1772024950149005600,2.138005615234375,9.092624947565794,1.270893211519718,2.0431590021289883
1772024950159002600,2.148002685546875,9.640007485425471,1.3461328691601753,2.2690653143160042
1772024950168999400,2.15799951171875,9.982385337090491,1.3240546006038785,2.3748659683063624
1772024950178996500,2.16799658203125,9.99318613256812,1.4098518926158548,2.5717969458997247
1772024950188993500,2.17799365234375,9.904389074218273,1.5868039120197295,2.617283854833245
1772024950198990600,2.187990478515625,9.587443185451626,1.85633396961689,2.494381697785854
1772024950208987400,2.1979873046875,9.307993206864595,2.1514432896286246,2.1821467631891367
1772024950218984700,2.207984619140625,9.004758448064326,2.54294523768574,1.7955201660834252
1772024950228981500,2.2179814453125,8.662813142597674,2.8811010877415537,1.5046210111126304
1772024950238978600,2.227978515625,8.308463113588095,3.0801030263900757,1.2546129617176949
1772024950248975600,2.2379755859375,7.828013008272648,3.363377823962271,1.0508762496322392
1772024950258972700,2.24797265625,7.3916335153520105,3.672730188859999,0.7526973859820515
1772024950268969500,2.257969482421875,7.098371869033574,3.8846386630937455,0.44580677155535664
1772024950278966800,2.267966796875,6.874238119477033,3.87552947396487,0.30876104794107373
1772024950288963600,2.277963623046875,6.551164687740802,3.885768251645565,0.04862878715582192
1772024950298961700,2.287961669921875,6.105192606088519,3.984387908090651,-0.23276733879661185
1772024950308958500,2.29795849609375,5.582957953488826,4.064220738740265,-0.6985283542253077
1772024950318955800,2.307955810546875,4.900650812354684,4.219738048188388,-1.131796729388088
1772024950328952600,2.31795263671875,3.954386445319652,4.126794099292159,-1.2929178501926362
1772024950338949400,2.327949462890625,2.776764807215333,3.404056748092174,-1.3798589054122565
1772024950348946700,2.33794677734375,0.8332201716572046,2.290299971655011,-1.400510502166301
1772024950358943500,2.347943603515625,-1.0983423496842384,0.6320166313111781,-1.359024207176268
1772024950368940500,2.3579404296875,-2.5127771861761805,-1.981884010824561,-0.6621030689518899
1772024950378937600,2.3679375,-4.730871168798208,-5.203721320503949,0.8962913987286388
1772024950388934700,2.3779345703125,-8.059917391830682,-8.065581993463635,2.4967925583198665
1772024950398931500,2.387931396484375,-11.75539571133256,-9.258063347047568,3.1060692422956224
1772024950408928500,2.397928466796875,-13.697697653353213,-9.510207385557889,3.0778409266769886
1772024950418925600,2.407925537109375,-14.587396083557605,-7.077751105809211,0.8161497943907976
1772024950428922600,2.417922607421875,-14.100884486246109,-4.0488621338278055,-1.5005613604582846
1772024950438919400,2.42791943359375,-13.745154985576868,-4.078772411184013,-1.2694552876710892
1772024950448918000,2.43791796875,-13.7973913687706,-5.380871785089373,0.37369050663243975
1772024950458915000,2.4479150390625,-13.54779584569931,-6.759948892474174,2.090613119482249
1772024950468912000,2.457912109375,-11.915098782032727,-7.330073423495889,3.045334495347738
1772024950478909000,2.467908935546875,-10.296471160250901,-6.987137353426218,3.1256185768961906
1772024950488906000,2.477906005859375,-8.896509670269488,-5.624250917863845,2.6433745739012955
1772024950498903000,2.487903076171875,-6.83049016316533,-4.209139789545536,2.058557646790892
1772024950508899800,2.49789990234375,-4.579177217030525,-2.8082950869888066,1.3112049097724259
1772024950518897200,2.507897216796875,-2.918751019439101,-1.2165426126509904,0.298795826504752
1772024950528894000,2.51789404296875,-1.4951052870094774,0.28158114539682866,-0.5002399706736207
1772024950538891000,2.52789111328125,0.00116027595102787,1.5305875192791223,-1.0432366215992719
1772024950548888000,2.53788818359375,1.4311656065404414,2.423175825706124,-1.3168920154981314
1772024950558885000,2.547885009765625,2.71501942192018,3.086717476093769,-1.3704754293866455
1772024950568882000,2.5578818359375,3.883182326805591,3.741423493596911,-1.1087700010005384
1772024950578879200,2.567879150390625,5.167282225900888,4.0290234608918425,-0.4034127506032586
1772024950588876000,2.5778759765625,6.302919410234689,3.862914030280709,0.1850525429468602
1772024950598874000,2.5878740234375,7.204535072726011,3.7645916032165285,0.6070099811527878
1772024950608871000,2.597870849609375,7.916568074560165,3.848486276477575,1.0502792335871607
1772024950618868200,2.6078681640625,8.2590300973773,3.8635061509549615,1.3816270841285585
1772024950628865000,2.617864990234375,8.266623036724328,3.755708039537072,1.5795498492382465
1772024950638861800,2.62786181640625,8.258778168442845,3.765920805993676,1.6172291531607508
1772024950648859100,2.637859130859375,8.197059086632729,3.8781285505473613,1.4608436825759707
1772024950658856000,2.64785595703125,8.02638980076015,3.9938755751430985,1.1644876504387707
1772024950668853000,2.65785302734375,7.8523536688029765,4.168583322751521,0.8305260372024029
1772024950678850000,2.66785009765625,7.7111273350358,4.546465033996105,0.539419303895533
1772024950688847000,2.67784716796875,7.620532871875167,4.952304427224397,0.22974238321855664
1772024950698844000,2.687843994140625,7.488889774489403,5.115238734930753,0.0228720127498731
1772024950708841000,2.697841064453125,7.409288999029994,5.184129900327324,-0.11078655264414847
1772024950718838000,2.707838134765625,7.3683707131862635,5.230553213328123,-0.2116375483378768
1772024950728835000,2.7178349609375,7.196915245372057,5.117816476464271,-0.3156942447377369
1772024950738832000,2.727831787109375,7.057538338863849,4.949847681722044,-0.4887828301791101
1772024950748830200,2.737830322265625,6.9507648943185805,4.872398531338572,-0.7113256572823972
1772024950758827000,2.747826904296875,6.689307084017992,4.765599952352047,-1.1064108706537634
1772024950768824000,2.757823974609375,6.015768355751037,4.579770506748557,-1.7079374519594013
1772024950778820900,2.76782080078125,4.869804423192143,4.0524201185703275,-2.429308775503188
1772024950788818200,2.777818115234375,3.2973926091402768,3.485362573903799,-2.951511717790365
1772024950798815000,2.78781494140625,1.2473393174529075,2.541940152296424,-3.1931802472546695
1772024950808811800,2.797811767578125,-1.3530010013639926,0.6285895794719457,-3.2919264526888727
1772024950818809000,2.80780908203125,-4.020861197224259,-2.1634709965527055,-3.091083270087838
1772024950828806000,2.817805908203125,-6.510393116891383,-5.1474523207932705,-1.797744418004155
1772024950838803000,2.827802978515625,-9.49532312015891,-7.887507984292506,-0.11916055936627089
1772024950848800000,2.837800048828125,-13.39943483774662,-10.588805754852295,2.194696155899763
1772024950858797000,2.847797119140625,-15.744196467429399,-11.550546507960558,3.1008325106859207
1772024950868793900,2.8577939453125,-16.319727241408824,-8.25639974887371,0.13331892164349554
1772024950878791200,2.867791259765625,-15.269004721033573,-5.6068608071237795,-1.6159814911872148
1772024950888788000,2.8777880859375,-14.018846839028596,-6.424530358427763,-0.9625851680431514
1772024950898786000,2.8877861328125,-12.893491394734381,-8.023640794312954,-0.0458817534700036
1772024950908782800,2.897782958984375,-11.852178507739305,-8.710596638035774,1.2828151199817657
1772024950918780200,2.9077802734375,-10.067819056487084,-8.835209690654278,2.726215354195237
1772024950928777000,2.91777685546875,-8.374166296598315,-8.169405940553546,3.0875907517969607
1772024950938774000,2.92777392578125,-6.667536566236615,-6.371433559012413,2.4347714248232544
1772024950948771000,2.93777099609375,-4.473551773476601,-4.913838210707903,2.0708181395575402
1772024950958767900,2.947767822265625,-2.5525708519041537,-3.303943345957994,1.4407156713046132
1772024950968765000,2.957764892578125,-1.0836498074650764,-1.3220634267866611,0.7289004769396037
1772024950978762000,2.967761962890625,-0.08015782482028007,0.6953291197925806,0.037737463850528
1772024950988759000,2.977759033203125,0.7777274170160293,2.4089532390862702,-0.6670305884819477
1772024950998755800,2.987755859375,1.5829267783254384,3.524164890506863,-1.0080039801765233
1772024951008753200,2.997753173828125,2.3154233069956303,4.092819056715071,-0.9876024857260286
1772024951018750000,3.00775,3.257085148671269,4.252236296211183,-0.8596573660753667
1772024951028747000,3.0177470703125,4.356512370982766,4.2508153234973545,-0.6080437081146985
1772024951038744000,3.027744140625,5.328672226774692,4.202372779628634,-0.1782734407333657
1772024951048742100,3.0377421875,6.145263919714093,4.03590123770684,0.3268248566916212
1772024951058739000,3.047739013671875,6.670586016935109,3.664253160154819,0.8710987244788557
1772024951068736000,3.057736083984375,6.862656987276673,3.1253897365763783,1.3656325194001198
1772024951078733000,3.067733154296875,6.994227603948116,2.7335326914712783,1.687434177634865
1772024951088730000,3.077730224609375,7.034126483616232,2.4683742730870843,1.8078027245514094
1772024951098727000,3.087726806640625,7.002483975639939,2.4289082318782804,1.64055245334208
1772024951108724200,3.09772412109375,7.071007476767897,2.6197651502549646,1.302439857906103
1772024951118721000,3.107720947265625,7.163426232746243,2.879125111493468,1.0331856215756385
1772024951128717800,3.1177177734375,7.178197100898623,3.1343527952328323,0.7960168146833777
1772024951138715100,3.127715087890625,7.180965396568179,3.431758409488201,0.5496572413260117
1772024951148712000,3.1377119140625,7.219813305878639,3.6897082116678357,0.31732440322283656
1772024951158709000,3.147708984375,7.263469492253661,3.799601249538362,0.08635980299925432
1772024951168706000,3.1577060546875,7.271769703087211,3.7925858178183436,0.012687029349338262
1772024951178703000,3.167703125,7.361288061448931,3.7837507694557306,0.005206660698424093
1772024951188700000,3.177699951171875,7.402374105075001,3.7638220801487563,-0.09600880722641013
1772024951198698000,3.187697998046875,7.370134215727448,3.714897305721044,-0.22269505852293223
1772024951208695000,3.197695068359375,7.160953120630979,3.5997666594579814,-0.438735116136074
1772024951218692000,3.207692138671875,6.837516116279363,3.3336408573463556,-0.7419090846598148
1772024951228689000,3.21768896484375,6.0300149077683685,2.9506866651430723,-0.8622621417462826
1772024951238686200,3.227686279296875,4.718725388452411,2.4350275915414095,-1.0053899252206087
1772024951248683000,3.23768310546875,2.79765854216218,1.3634639431893825,-1.0337566263966262
1772024951258680000,3.24768017578125,0.24781857652664183,-0.4185357931941747,-0.5834448715722188
1772024951268677000,3.257677001953125,-2.065221634724736,-2.631881119984388,0.19333006702456623
1772024951278674200,3.267674072265625,-4.060446188637614,-5.600902190980315,1.4267971821978687
1772024951288671000,3.2776708984375,-6.128490479567646,-8.899558536446094,3.4554335918471217
1772024951298668000,3.28766796875,-8.844816892433165,-11.338278552764654,4.690535651278496
1772024951308665000,3.2976650390625,-11.54089838964939,-11.984648703598975,3.9595901514425873
1772024951318662000,3.307661865234375,-12.859547039556503,-10.224889440596103,1.5922911112591622
1772024951328659000,3.317658935546875,-13.055852870988845,-7.960320707046985,-0.7757453032881021
1772024951338656000,3.327656005859375,-12.309813554656506,-7.0267819660723205,-1.6038002011366188
1772024951348654000,3.337654052734375,-11.036623172110318,-7.126458730354905,-1.183347541470453
1772024951358651000,3.34765087890625,-9.641161331635713,-7.275038934016227,-0.021687077281624077
1772024951368648000,3.35764794921875,-8.123532078129053,-6.864416982686519,1.117314249723032
1772024951378645000,3.36764501953125,-6.360148779410124,-5.927656357055902,2.0224108131326735
1772024951388642000,3.37764208984375,-4.44421578887701,-4.475540609206259,2.5520453667253253
1772024951398638800,3.387638916015625,-3.013168840280175,-3.8148429500728844,2.59605109719038
1772024951408636200,3.39763623046875,-2.640915490311384,-3.15217749799788,2.4922543303683398
1772024951418633000,3.407633056640625,-2.8066496578693387,-2.1360817621067163,2.1175603092491624
1772024951428630000,3.417630126953125,-3.2409289636403322,-0.946956733213365,1.42091075450778
1772024951438627000,3.427626953125,-3.1120185060888526,0.46824382695406674,0.7681929151471704
1772024951448623900,3.437623779296875,-2.25137899710834,1.8847110460564493,-0.8383622107207774
1772024951458620700,3.44762060546875,-1.046217610171437,3.1004490643262863,-2.4513570873126387
1772024951468618000,3.457617919921875,0.022100772649049756,4.064276852841675,-3.1595173393666744
1772024951478614800,3.46761474609375,1.2344798358798026,4.433879396040737,-2.9642040261030194
1772024951488611600,3.477611572265625,2.5572096176207064,4.333011960668862,-2.3437127051517366
1772024951498609700,3.487609619140625,3.5280759264707564,3.9526068684265017,-1.5514695637881755
1772024951508607000,3.49760693359375,4.24607865036428,3.349981751294434,-0.5255415121253579
1772024951518603800,3.507603759765625,4.949582893306016,2.805063849982619,0.6813016173534094
1772024951528600600,3.5176005859375,5.529715608122944,2.1853902751550076,1.5764201729103922
1772024951538598000,3.527597900390625,6.124691087284684,1.9267051444381473,2.0504738551869988
1772024951548594700,3.5375947265625,6.467427250868082,1.7568103500694034,2.2516920085802674
1772024951558591700,3.547591796875,6.705369745546579,1.5629969199746847,2.3490137341693043
1772024951568588800,3.5575888671875,7.030705276995897,1.5929457757756114,2.242935432281345
1772024951578585900,3.5675859375,7.288973351344466,1.8623977997004986,1.9074242515154183
1772024951588582700,3.577582763671875,7.460031928795575,2.155857891200483,1.5224477597042918
1772024951598580000,3.587580078125,7.614940166434645,2.37544932115227,1.2367603480324147
1772024951608576800,3.59757666015625,7.719542696681618,2.542363053883612,1.0590192240774632
1772024951618573800,3.60757373046875,7.758235123169421,2.6307541617810726,0.8727434229459613
1772024951628571000,3.61757080078125,7.810546909686923,2.7418264725640413,0.7148794773064553
1772024951638569000,3.62756884765625,7.833460752284527,2.8792677348345515,0.5813156775237992
1772024951648565800,3.637565673828125,7.86930012742877,3.0318107046470044,0.4502781082831323
1772024951658562800,3.647562744140625,7.8859759524196384,3.183384537166357,0.34651601091567424
1772024951668560000,3.657559814453125,7.671245406502485,3.2979131258830425,-0.03891089154407382
1772024951678557000,3.667556884765625,7.254360303124785,2.9714544356226917,-0.2851758454205468
1772024951688553700,3.6775537109375,6.361801807314157,2.73291485183388,-0.6858776930972933
1772024951698550800,3.68755078125,4.737361115339398,1.6312001031070946,-1.0870697719763964
1772024951708547800,3.6975478515625,2.239044416192174,0.13107406532615423,-1.0087507799558342
1772024951718544600,3.707544677734375,-1.3615239150375127,-1.8663380617588758,-0.8073074395045637
1772024951728542000,3.7175419921875,-3.8069039737671613,-3.8604116920709606,-1.75954912738353
1772024951738538800,3.727538818359375,-6.841758576154708,-5.399044570639729,-2.018520089304447
1772024951748535800,3.737535888671875,-10.93195751349926,-7.693409307515621,-0.8583686414390802
1772024951758532900,3.747532958984375,-15.315993266701698,-8.747429115870595,0.533665854935348
1772024951768530000,3.757530029296875,-16.623732400059698,-6.934151613169908,-0.8461286800038069
1772024951778526700,3.767526611328125,-16.08961383292079,-4.546719301018118,-2.883429822950065
1772024951788524800,3.77752490234375,-15.077317781573534,-4.44667779507637,-1.8064872580386697
1772024951798521900,3.78752197265625,-14.28652396223545,-6.0744485082566735,0.02299560259692371
1772024951808519000,3.797518798828125,-12.919395066797733,-7.216182840421795,1.5681477268666029
1772024951818515700,3.807515625,-10.561821886336803,-7.134834344512224,2.434546383895725
1772024951828513000,3.817512939453125,-8.45694453305006,-6.924731458395719,2.62664701872319
1772024951838509800,3.827509765625,-6.9929702973634,-6.041292088586092,3.21801219843328
1772024951848506600,3.837506591796875,-4.752155948889255,-4.525019510385394,3.2915964900821444
1772024951858504000,3.84750390625,-2.334953936895728,-3.0528175445795056,2.553357618367672
1772024951868500700,3.857500732421875,-0.2810767030060291,-1.356857092270255,1.7450706663064657
1772024951878497800,3.867497802734375,1.1766373032420874,0.08195055345594883,1.0468130918465555
1772024951888494800,3.877494873046875,1.8675328245013951,0.945668154707551,0.59720762212798
1772024951898492000,3.887491943359375,2.2294325382381674,1.5287018516629933,0.11954787818342447
1772024951908488700,3.89748876953125,2.5107167465150355,2.0329922667711973,-0.2577258572306484
1772024951918485800,3.90748583984375,2.9383453622251747,2.5561796900510787,-0.5280149165015667
1772024951928483800,3.91748388671875,3.4967081437826155,2.991865355488658,-0.559976865690574
1772024951938481000,3.92748095703125,4.042777260956168,3.336247824974358,-0.5195854532651603
1772024951948477700,3.937477783203125,4.60824256799519,3.5240655217856167,-0.6370305870156735
1772024951958474800,3.947474853515625,5.324010080182552,3.537826628373563,-0.6554919071838259
1772024951968471800,3.957471923828125,5.955139407265186,3.494339076563716,-0.33483039542753246
1772024951978468900,3.96746875,6.201270469096302,3.224221866728365,0.25014353060917927
1772024951988465700,3.977465576171875,6.238681039080023,2.738692558452487,0.6723804981425404
1772024951998463000,3.987462890625,6.24674393402636,2.1567527942135927,0.9100058166306465
1772024952008459800,3.997459716796875,6.142091134896874,1.795902005007863,1.246766924392432
1772024952018456600,4.00745654296875,5.967770925301313,1.7014760008603333,1.506057473656535
1772024952028454000,4.017453857421875,6.01291004371047,1.6550824984759092,1.4025564749106765
1772024952038450700,4.02745068359375,6.122122113579511,1.8339429818496107,1.0171511632282286
1772024952048447700,4.03744775390625,6.233410405200719,2.1904802917703985,0.6445543335840106
1772024952058444800,4.04744482421875,6.402054322725534,2.3675424935504794,0.3655614511147141
1772024952068443000,4.05744287109375,6.526206772094965,2.565264036999643,0.23652586934622374
1772024952078439700,4.067439697265625,6.611366935247182,2.7845567762658,0.16958598414789886
1772024952088436700,4.077436767578125,6.576121434342861,2.923641421829164,0.2336935319971293
1772024952098433800,4.087433837890625,6.585381430119275,2.9445222972944376,0.16522073814310131
1772024952108430800,4.097430908203125,6.387936950045824,2.9748849945932623,-0.02309504438340664
1772024952118427600,4.107427734375,6.038682198348641,2.8808538349822164,-0.16941544988658278
1772024952128425000,4.117425048828125,5.5611295680403705,2.68008780927062,-0.3544176874183118
1772024952138421800,4.127421875,4.522664471691846,2.3757792837589977,-0.5752282108362764
1772024952148418800,4.137418701171875,2.8977614229023456,1.8348326241657136,-0.782489516851306
1772024952158416000,4.147415771484375,-0.03299976780414581,0.7899757809534669,-1.0495251272842288
1772024952168412700,4.15741259765625,-2.2043214778572318,-0.7347317403763532,-1.129559617985785
1772024952178409700,4.16740966796875,-4.525733211612701,-0.9761363582074641,-1.3848596363089978
1772024952188406800,4.17740673828125,-7.59779204775691,-1.9337533093839883,-1.3335977972358464
1772024952198403800,4.18740380859375,-9.464205512839555,-4.125217643755674,-1.4198255896195768
1772024952208400600,4.197400634765625,-12.19503216022253,-6.4695847211629145,-0.8549732268471271
1772024952218398700,4.207398681640625,-15.603300973051786,-8.771088808399439,0.760860014975816
1772024952228395800,4.217395751953125,-16.698824758183957,-8.453845397990941,-0.3549744810508564
1772024952238392800,4.227392822265625,-16.2331618876338,-6.696096305766702,-2.8651626371145245
1772024952248389600,4.2373896484375,-14.534794958704708,-7.224829088214039,-1.86635822776407
1772024952258387000,4.247386962890625,-12.993844450843334,-8.547052089476585,-0.9001891368195414
1772024952268383700,4.2573837890625,-11.890320899128913,-9.582529109925032,0.13636647264584897
1772024952278380800,4.267380859375,-9.884166954922675,-9.433830832841991,1.42543349262923
1772024952288377900,4.2773779296875,-7.690105005273223,-8.935944439557193,2.121413039154559
1772024952298375000,4.287375,-6.122379303210973,-7.892995475792884,2.6942572043985127
1772024952308371700,4.297371826171875,-3.912945012384653,-6.440092669218778,3.1766841627448796
1772024952318369000,4.307369140625,-1.61354695751667,-4.3981829364985225,2.7144778623893857
1772024952328365800,4.31736572265625,0.583883007261157,-2.0177450132787227,1.9437138546451924
1772024952338362600,4.327362548828125,2.2937714471578596,0.17518179486095906,1.2795565565772353
1772024952348360000,4.33735986328125,3.3844010305076835,1.9266250649392604,0.6620646366376429
1772024952358358000,4.34735791015625,4.045536788797378,3.2655835124254224,0.05190542507315986
1772024952368354800,4.357354736328125,4.576669033601879,4.39677014709115,-0.3784271432328969
1772024952378351600,4.3673515625,5.175760131388903,5.198671635898948,-0.4727828951558098
1772024952388349000,4.377348876953125,5.886100942352414,5.452886050942539,-0.4588601317327469
1772024952398345700,4.387345703125,6.661384473347663,5.472454674765467,-0.36411490556821224
1772024952408342800,4.3973427734375,7.365267486473917,5.489646048063039,-0.21648073231903836
1772024952418339800,4.40733984375,7.8055872414529315,5.424616818791628,0.09655185546139254
1772024952428337000,4.4173369140625,8.109542715743183,5.155529828786849,0.5507860626928508
1772024952438333700,4.427333740234375,8.23849467434883,4.659386479777098,0.9228897019926458
1772024952448330500,4.43733056640625,8.170145360744,4.104024049079418,1.1843522615335882
1772024952458327300,4.447327392578125,8.040086902201175,3.6019068863570687,1.4132169851347802
1772024952468324000,4.457323974609375,7.873843616077304,3.351314753463864,1.4553325179390608
1772024952478321400,4.4673212890625,7.5504410985171795,3.4627784016519785,1.2275325009599327
1772024952488318200,4.477318115234375,7.315753221720457,3.8316076223909854,0.9720029116645454
1772024952498316300,4.48731640625,7.2454609573543065,4.21804673410058,0.601425057159923
1772024952508313300,4.497313232421875,7.16259212000966,4.510192528131604,0.20948621552288532
1772024952518310400,4.507310302734375,7.02191582134068,4.779453121137618,-0.04685824295249767
1772024952528307200,4.51730712890625,7.0348185575336215,5.054188930684328,-0.20080296018850058
1772024952538304300,4.52730419921875,7.1197267917513845,5.232320807522535,-0.272996345468238
1772024952548301300,4.53730126953125,7.189398293870687,5.266024339681864,-0.405118714270927
1772024952558298400,4.54729833984375,7.215885318779945,5.184244466617703,-0.28468133990187194
1772024952568295200,4.557295166015625,7.41017162708342,5.185258027574419,0.01919130580998026
1772024952578292500,4.56729248046875,6.864793999305367,5.5200552148520945,-0.13302166486312633
1772024952588289300,4.577289306640625,5.814899161925911,4.806521160805225,-0.5708137188622727
1772024952598286300,4.587286376953125,4.7209670298993585,3.7664918838798997,-0.8925804153814911
1772024952608283400,4.597283447265625,2.8637340656161308,3.0299475411236285,-1.0309436148025095
1772024952618280400,4.607280517578125,0.9155161775499582,2.0780355235904455,-1.536081002128869
1772024952628277200,4.61727734375,-1.428492003417015,0.1286024145156145,-1.8788922767750917
1772024952638275300,4.627275390625,-4.3937809021472924,-2.4479595538288352,-2.2248323509663344
1772024952648272400,4.6372724609375,-6.9293585336744785,-5.548474084606767,-2.166850263727456
1772024952658269400,4.64726953125,-10.20921022542715,-9.089072223520278,-0.804587659151852
1772024952668266200,4.657266357421875,-14.686929639977215,-12.38009529762864,1.1844608364745974
1772024952678263300,4.66726318359375,-16.791497196662426,-13.500769890630245,1.3115988775260745
1772024952688260400,4.67726025390625,-18.207162451732156,-10.740284602564573,-1.4194307450830936
1772024952698257200,4.687257080078125,-17.947448854750395,-9.449843810009956,-1.3931767982773482
1772024952708254500,4.69725439453125,-17.45988394899368,-9.906260713309049,-1.2494555789545179
1772024952718251300,4.707251220703125,-16.277531775236127,-9.881572846776246,-1.7884058040335773
1772024952728248300,4.717248291015625,-14.110720820605755,-8.956157791024445,-1.040544532971084
1772024952738245400,4.727245361328125,-12.666904991328716,-8.74852100276053,0.28541078668758274
1772024952748242400,4.737242431640625,-12.087533908534049,-8.047416806697845,1.5251432823985813
1772024952758239200,4.7472392578125,-10.039062917602061,-6.778166686210036,2.1327457495518027
1772024952768237300,4.7572373046875,-7.201968437108397,-4.983925892412662,1.7584717074103653
1772024952778234400,4.767234375,-4.17849038425982,-2.6019495075792074,0.9598119770027697
1772024952788231400,4.7772314453125,-1.5118489165395497,-0.2405173136025667,0.3260334871182218
1772024952798228200,4.787228271484375,0.5854968721985817,1.513327172398567,-0.27244335122797636
1772024952808225300,4.797225341796875,2.23036075899899,2.656131764143705,-0.6475546844437718
1772024952818222300,4.807222412109375,3.538510811245441,3.566764261305332,-0.8386144319161772
1772024952828219400,4.817219482421875,4.762151273202896,4.343433693701028,-0.9212593973770737
1772024952838216200,4.82721630859375,5.8387324574559925,4.7089024980962275,-0.8542964235641062
1772024952848213200,4.837213134765625,6.893225728541612,4.679730179625749,-0.5659777135405689
1772024952858210300,4.847210205078125,7.871675039866566,4.389772251027822,-0.4147661384623497
1772024952868207000,4.85720703125,8.448263213944434,4.288500911030173,-0.356434799394384
1772024952878204400,4.867204345703125,8.768521588259935,4.284004184132814,-0.2000773127950728
1772024952888201200,4.877201171875,8.908138148742914,4.002463370746374,0.033072906105592846
1772024952898198300,4.8871982421875,8.899600037500262,3.5497564278811216,0.2543578421022743
1772024952908196000,4.897196044921875,8.715803559029101,3.2299019581913946,0.38953656626828015
1772024952918193400,4.907193359375,8.378246259388327,3.114185328733921,0.4543641354877501
1772024952928190200,4.917190185546875,8.12452751890719,3.232282715848088,0.3692486882600933
1772024952938187300,4.927187255859375,7.935181005093455,3.6083640996724364,0.029130305959656832
1772024952948184300,4.937184326171875,7.681480384790897,4.118061926782131,-0.31200737291853875
1772024952958181400,4.947181396484375,7.35551006256938,4.532642260348797,-0.4449683479698375
1772024952968178200,4.95717822265625,7.062048509764671,4.777949730837345,-0.5818595751421526
1772024952978175500,4.967175537109375,6.949591174364089,4.945552614876628,-0.7241102469883859
1772024952988172300,4.97717236328125,6.910000337731838,5.150393634942174,-0.7486922419939189
1772024952998169000,4.987169189453125,6.960816917255521,5.289892706525325,-0.7338797266568988
1772024953008166400,4.99716650390625,7.023155007746816,5.261816366598009,-0.7743949115924537
1772024953018163200,5.0071630859375,7.040651501470804,5.209269017758965,-0.7478959039844572
1772024953028160300,5.01716015625,6.9821063735216855,5.146094476443529,-0.7393097158163785
1772024953038158300,5.027158447265625,6.774479522129893,4.954216982847452,-0.8860622656591236
1772024953048155400,5.0371552734375,6.397832905638218,4.598175347489119,-1.0857604429434984
1772024953058152200,5.047152099609375,5.599966955956816,4.107206770768761,-1.1627070506323127
1772024953068149200,5.057149169921875,3.9913714833676814,3.273233150395751,-1.2769549957767128
1772024953078146300,5.067146240234375,1.735300529050827,1.749399781551957,-1.217624124277383
1772024953088143400,5.077143310546875,-0.7440121944189071,-0.5776069957315921,-0.5971908536562696
1772024953098140200,5.08714013671875,-3.214928845465183,-3.8560225172013043,0.7032558211386203
1772024953108137500,5.097137451171875,-6.43451223873794,-7.593441451331973,3.0113585759878156
1772024953118134300,5.10713427734375,-10.51277582361698,-10.856586922955513,5.141622883987426
1772024953128131300,5.11713134765625,-15.00647255949974,-11.891558916491269,5.131324192813039
1772024953138128400,5.12712841796875,-17.93288607639074,-10.277522129631041,2.8692247719869015
1772024953148125400,5.13712548828125,-18.7199237580657,-7.550549235066771,-0.19046497818334027
1772024953158122200,5.147122314453125,-17.41618626156449,-6.050083297806978,-1.4484751993902028
1772024953168120300,5.157120361328125,-17.284373068308827,-6.8123442656219,-1.773487928625941
1772024953178117400,5.167117431640625,-17.165282578504083,-8.507855805119872,-1.5957152404889463
1772024953188114400,5.177114501953125,-14.914216300606727,-9.04419789352715,-1.158461668147519
1772024953198111200,5.187111328125,-12.625316258877515,-9.213657219088077,-0.5261881029332056
1772024953208108300,5.1971083984375,-11.20506952123642,-8.613446177360414,0.6273162716004997
1772024953218105300,5.207105224609375,-8.553585875159502,-6.9367088964372865,1.246754795563221
1772024953228102100,5.21710205078125,-5.46415154132247,-5.1601381993651385,0.9563184357985853
1772024953238099500,5.227099365234375,-2.943689645862579,-3.1683535567730665,0.3921117505185306
1772024953248096300,5.23709619140625,-0.8183212932109832,-1.164664541375637,-0.14799356287978588
1772024953258093300,5.24709326171875,0.8520359312862157,0.5213432567179203,-0.7526449982076883
1772024953268090400,5.25709033203125,2.1217676978111264,2.0356717151135206,-1.2190700853019951
1772024953278087400,5.26708740234375,3.18528131069839,3.37200565931499,-1.5018049307785928
1772024953288084200,5.277084228515625,4.264766399699449,4.3067268880724905,-1.6952752465240657
1772024953298082300,5.287082275390625,5.356686607381701,4.68314144937396,-1.3653778139866888
1772024953308079400,5.297079345703125,6.254645500931144,4.609041024896502,-0.622008958972618
1772024953318076400,5.307076416015625,6.947276467680931,4.394092452314496,0.11537965258806943
1772024953328073200,5.3170732421875,7.468910231778025,4.249227469784021,0.7408924549631773
1772024953338069200,5.3270693359375,7.900891197478771,4.029703259849548,1.2385340797066688
1772024953348066300,5.33706640625,8.159421137633919,3.628811259895563,1.5605011576361953
1772024953358063000,5.34706298828125,8.334760753405094,3.2596956234306096,1.665916319440305
1772024953368060400,5.357060302734375,8.31973678727448,3.2109020741671324,1.4828899485588072
1772024953378057200,5.36705712890625,7.915088065135478,3.254127467909455,1.3115117837645112
1772024953388054300,5.37705419921875,7.425258137056231,3.249965672054887,1.1358752308733762
1772024953398051300,5.38705126953125,6.975126013115048,3.3546815995484587,0.7303950994115322
1772024953408048400,5.39704833984375,6.670124244642257,3.50436479601562,0.3222868479358032
1772024953418045200,5.407045166015625,6.490806372889876,3.817467453357577,-0.093489015558362
1772024953428042500,5.41704248046875,6.421116750591993,4.284805563643575,-0.3752690445281565
1772024953438039300,5.427039306640625,6.400011418721079,4.648907171338796,-0.4253292161939665
1772024953448037000,5.437037109375,6.367046137708425,4.724757069832086,-0.35907457331344483
1772024953458035000,5.447034912109375,6.434026501047611,4.613223863539099,-0.4388010940443724
1772024953468032000,5.457031982421875,6.612086481693387,4.577192765215039,-0.5575974597407505
1772024953478029000,5.467029052734375,6.660843206077813,4.643444229757786,-0.6228805541753769
1772024953488026000,5.477026123046875,6.415513523757458,4.647238945865631,-0.7743973958104848
1772024953498023000,5.48702294921875,5.950056404912472,4.426447492474317,-0.9420888349160551
1772024953508020200,5.497020263671875,5.237620082974433,4.255106590950489,-1.275570847941935
1772024953518017000,5.50701708984375,4.039259608224034,3.8504496855050325,-1.6553595618516206
1772024953528013800,5.517013916015625,2.2051783869475123,2.8931209036201238,-1.71095636138916
1772024953538011100,5.52701123046875,0.030033903735876083,1.7092203313767909,-1.379017193891108
1772024953548008000,5.537008056640625,-1.8979349770277738,0.07429799287617206,-0.6378028134971857
1772024953558005000,5.5470048828125,-3.5918642157703635,-3.281529854097962,1.4183824050739406
1772024953568002000,5.557001953125,-6.155030111446976,-7.3384987220138305,4.141725126442313
1772024953577999000,5.5669990234375,-10.320491502785682,-9.673162151530384,5.538003543996811
1772024953587997000,5.576996826171875,-13.625642470967769,-11.225650536972283,6.408884461006521
1772024953597994000,5.586993896484375,-15.304765770244597,-9.963373178106545,3.880137552282214
1772024953607991000,5.596990966796875,-15.382525886273383,-5.253902524733543,0.42950325047560034
1772024953617988000,5.606988037109375,-14.094980815160273,-4.830083238178491,0.8326903025642037
1772024953627985000,5.61698486328125,-13.939709589427709,-5.850924999552965,0.6670955434769391
1772024953637982200,5.626982177734375,-13.352570210719108,-6.233029296928644,1.4715909943006933
1772024953647979000,5.63697900390625,-11.940165418750047,-7.095562072309852,2.759173620945215
1772024953657976000,5.64697607421875,-10.264176325845717,-7.858163816386461,2.8876638072580096
1772024953667973000,5.65697314453125,-9.07108940758407,-7.130671379613876,2.7521698796629903
1772024953677970000,5.666969970703125,-6.774181415966153,-5.274674094605445,2.226266767683625
1772024953687967000,5.676967041015625,-4.056348690190911,-3.139157565166056,1.303885088278353
1772024953697964000,5.686964111328125,-1.526512817186117,-1.2370926487267018,0.21766733002141117
1772024953707961000,5.696961181640625,0.12305121012926101,-0.06956278104782104,-0.5876631833869963
1772024953717959200,5.706959228515625,0.8823217639565467,0.7613949986353516,-1.1489779466178267
1772024953727956000,5.7169560546875,1.8063725456178188,1.2481357285276056,-1.7001333540797232
1772024953737953000,5.726953125,2.8305665400296447,1.5970444432660937,-2.0933990969389678
1772024953747950000,5.7369501953125,3.8043221405804153,1.9202964464396237,-2.2265597592808306
1772024953757947000,5.74694677734375,4.7776802662461995,1.7394895051732657,-2.019626296980679
1772024953767944200,5.756944091796875,5.709275471937656,1.3069076509699225,-1.7213512064144014
1772024953777941000,5.76694091796875,6.4642299161314964,1.205498656067252,-1.541528746140748
1772024953787938000,5.77693798828125,6.963322178074717,1.3445190042227506,-1.470533155810833
1772024953797935000,5.78693505859375,7.267640055936575,1.4600801508575676,-1.3486562501579522
1772024953807932200,5.79693212890625,7.447663445609807,1.4791408251583575,-1.1048885564573108
1772024953817929000,5.806928955078125,7.509052857074141,1.6394076672211289,-0.8700568872757255
1772024953827926300,5.81692626953125,7.51582512768805,1.9161299744099378,-0.6743037212900816
1772024953837924000,5.826924072265625,7.420503051483631,2.1694296126961707,-0.4339085727624595
1772024953847921200,5.836921142578125,7.2568363378494976,2.405497545674443,-0.2693083776704967
1772024953857918000,5.84691796875,7.139848957803845,2.720656258763373,-0.23205139081329107
1772024953867915300,5.856915283203125,7.151151857584715,3.2437229782730337,-0.1837928982745856
1772024953877912000,5.866912109375,7.1610659333556885,3.811331434820592,-0.28172143065035343
1772024953887908900,5.876908935546875,7.058941775920987,4.332848002278805,-0.5367345948562026
1772024953897906200,5.88690625,6.695636287039518,4.515991569799184,-0.37731910892575976
1772024953907903000,5.896903076171875,6.511759729069471,4.5622804427653545,-0.3883004120694473
1772024953917900000,5.906900146484375,6.331033744084834,4.6604397882223125,-0.47500970435980705
1772024953927897000,5.91689697265625,6.10071341484785,4.730412319114804,-0.44669758291523903
1772024953937894100,5.92689404296875,5.892102228593826,4.838837037998438,-0.5662770983459428
1772024953947891000,5.936890869140625,5.675599412307143,5.013237911614775,-0.8311275832921267
1772024953957889000,5.946888916015625,5.242583842861652,5.190800464132428,-1.0829038844686
1772024953967886000,5.956885986328125,4.27401587408185,5.461311933982372,-1.5779343768656253
1772024953977883100,5.966883056640625,2.6275410449534653,5.536444624117016,-1.9142159574821591
1772024953987880000,5.9768798828125,0.8495768476963043,4.607430082568526,-1.7747719770871102
1772024953997877200,5.986877197265625,-1.0256161361694336,2.3540958597391843,-1.262663143312931
1772024954007874000,5.9968740234375,-3.0113258427619933,-1.6034131015151738,-0.2533892162658274
1772024954017871000,6.00687109375,-4.8792473743200295,-6.413916025432944,0.880148511570692
1772024954027868200,6.0168681640625,-7.69536862488985,-10.388595317196845,1.906203915940225
1772024954037865200,6.026865234375,-11.799688442045449,-12.252094356137514,1.8698805566713212
1772024954047862000,6.036862060546875,-15.110545512914657,-13.998551069974898,2.017134480164945
1772024954057858800,6.04685888671875,-16.989615045952796,-11.45257479403019,-1.041356141614914
1772024954067856100,6.056856201171875,-16.218773296797274,-6.782977885884046,-3.376065748360753
1772024954077854200,6.066854248046875,-15.052157621353864,-7.711534746792912,-1.7266490205615759
1772024954087851000,6.07685107421875,-15.516964751857518,-8.414437516710162,-1.4440581136003137
1772024954097848000,6.08684814453125,-14.533517193853854,-8.223344451490044,-0.26675759720914066
1772024954107845000,6.09684521484375,-12.371316947889328,-8.542434366548061,0.8527828041307628
1772024954117842000,6.106842041015625,-11.04779338542223,-7.60715375034213,0.7503789529718459
1772024954127839000,6.1168388671875,-8.981170651727915,-5.8116351916939015,1.3871271428495644
1772024954137836000,6.1268359375,-6.339781698685884,-3.896424085694551,1.459559049592912
1772024954147833000,6.1368330078125,-3.6077965289175506,-1.7521107940763234,0.8953248917840421
1772024954157830000,6.146829833984375,-0.8525783675998448,0.1508762056440115,0.44990317402351643
1772024954167827200,6.1568271484375,1.3416887492328882,1.5281751974403857,0.2053295342348516
1772024954177824000,6.166823974609375,2.8859499890774485,2.515712655106187,0.19279323846781626
1772024954187821000,6.176821044921875,4.115924914753437,3.2884804038882254,0.180986499084346
1772024954197818000,6.186818115234375,4.912533557850122,3.845872879108786,0.18453262899229303
1772024954207816200,6.196816162109375,5.705898104459047,4.40896736536324,0.3828739665739238
1772024954217813000,6.20681298828125,6.769423992305994,4.670559615698457,0.7018602751269936
1772024954227810000,6.21681005859375,7.606366399356722,4.300422234970331,0.9378184641204774
1772024954237807000,6.22680712890625,8.108121158507466,3.745737265142798,1.1039216841865331
1772024954247804200,6.23680419921875,8.303534425014258,3.5265579231232405,1.2877357713796198
1772024954257801000,6.246801025390625,8.197046811673045,3.553817685970664,1.3425677240245044
1772024954267798000,6.256798095703125,8.103149799835682,3.502913428163528,1.3056120582014321
1772024954277795000,6.266795166015625,7.984860105019807,3.4512761799067255,1.0025202150031924
1772024954287791900,6.2767919921875,7.63665749272406,3.5878532265633343,0.9320968716032803
1772024954297789200,6.2867890625,7.230355742681026,3.8915181934744116,1.1546425482507794
1772024954307786000,6.296785888671875,6.98101565567553,4.186836187800765,1.185219326691702
1772024954317783000,6.306782958984375,6.805691821995377,4.434892664736509,1.1533475400041788
1772024954327780900,6.31678076171875,6.753138043415546,4.660713344466686,1.1300282584108412
1772024954337778200,6.326778076171875,6.740442812493443,4.851317164865136,1.021165294240415
1772024954347775000,6.33677490234375,6.728805566191673,4.942860307052731,0.7316840432435273
1772024954357772000,6.34677197265625,6.669341569831967,4.991600664824247,0.43249618521388616
1772024954367769000,6.35676904296875,6.64624710997045,5.0072570836395025,0.22653602492529898
1772024954377766100,6.36676611328125,6.565029546964168,5.047978385606408,-0.0003689246439374983
1772024954387763000,6.376762939453125,6.297592662253975,4.986807585328817,-0.16934857692914082
1772024954397760300,6.38676025390625,5.964554301342368,4.945035897526145,-0.4417276124829426
1772024954407757000,6.396757080078125,5.411120208358764,4.799048048445582,-0.674686436997354
1772024954417753900,6.40675390625,4.38369673050642,4.0929596342295405,-1.0325392134308815
1772024954427751200,6.416751220703125,2.845451389950514,2.880345008677244,-1.48425568395406
1772024954437749200,6.426749267578125,0.5254296492487192,1.3403402572333811,-1.634645859646797
1772024954447746000,6.43674609375,-2.088480345237255,0.1635240902930498,-1.6134095948725937
1772024954457742000,6.4467421875,-4.286849052169919,-1.693945605355501,-1.5406979944050312
1772024954467739000,6.45673876953125,-6.094530926820635,-5.329736056613922,-0.2672578748814761
1772024954477736000,6.46673583984375,-8.766341321611405,-9.59853507283032,2.121114348468929
1772024954487733000,6.47673291015625,-12.787066325235367,-11.654660377907753,2.926220916928351
1772024954497730000,6.48672998046875,-15.703279935151338,-12.625394584810733,3.410502270969748
1772024954507726800,6.496726806640625,-16.20675318865776,-12.876145123136043,2.6892837999001142
1772024954517724200,6.50672412109375,-15.36328225662112,-8.249559673720597,-0.8380850012145936
1772024954527721000,6.516720947265625,-12.80662208957672,-7.838184858196973,0.16605448555350302
1772024954537717800,6.5267177734375,-12.066156773984432,-8.076619520306586,1.1179752709150315
1772024954547715000,6.536715087890625,-10.582635541784763,-7.566167075437307,2.3879067977957424
1772024954557713200,6.546713134765625,-8.532260178536177,-8.409434009334445,4.045585304114223
1772024954567710000,6.5567099609375,-7.298186585369706,-8.30310012525022,3.975781115525961
1772024954577706800,6.566706787109375,-6.089888069450855,-6.7562734188318245,3.836010825785994
1772024954587704000,6.5767041015625,-4.213381664898991,-4.778625438141822,3.8014129751354453
1772024954597700900,6.586700927734375,-2.568763861814141,-2.341006076541543,2.531318512777984
1772024954607698000,6.596697998046875,-1.010436102694273,0.09214461521208286,1.0567223453119396
1772024954617695000,6.606695068359375,0.3431605264753103,1.3643728747278452,-0.05670863323695957
1772024954627692000,6.616692138671875,1.135609711804986,1.8562462913334368,-0.9189363612569869
1772024954637688800,6.626688720703125,2.0754934378921983,2.2487580009549855,-1.6987477449402213
1772024954647686000,6.636685791015625,3.0070243461757897,2.61678993383646,-2.432933834132552
1772024954657683000,6.646682861328125,3.9827304962724446,3.058010437047481,-2.6151740230724214
1772024954667680000,6.656679931640625,5.217955597561597,3.2149148169398307,-2.3906860532507297
1772024954677677800,6.666677734375,6.282443608438968,2.9749463693916796,-2.0596401813305913
1772024954687675000,6.6766748046875,6.886774944967031,2.7342671432256695,-1.8151961958035825
1772024954697672000,6.686671875,7.408052150711417,2.7075784582644697,-1.7567215027421712
1772024954707669000,6.6966689453125,7.873834848248958,2.7731343417584893,-1.614082671828568
1772024954717665800,6.706665771484375,7.865232439598441,2.695592252394557,-1.42587159178555
1772024954727663000,6.7166630859375,7.522769247737527,2.6435774029970167,-1.1612794289819897
1772024954737660000,6.726659912109375,7.224336336261033,2.730997912296653,-0.9211872089236974
1772024954747656700,6.73665673828125,6.94604721814692,2.982189180126786,-0.8653622997187077
1772024954757654000,6.746654052734375,6.738964556634426,3.2415473877996206,-0.9987154158927499
1772024954767650800,6.75665087890625,6.6091954364269965,3.545926055938005,-1.3975219878748057
1772024954777647900,6.76664794921875,6.580606470802426,3.937364583370089,-1.7722275533013045
1772024954787645700,6.776645751953125,6.472515513917803,4.326089760190248,-2.1087094787955283
1772024954797643000,6.78664306640625,6.480035388028622,4.631603569838404,-2.2984293559662996
1772024954807639800,6.796639892578125,6.532003475674986,4.820013679584861,-2.4629110392451286
1772024954817636900,6.806636962890625,6.50776978265047,4.896732177606225,-2.4565046793341634
1772024954827634000,6.816634033203125,6.495993420138955,4.888294019606709,-2.19696307791844
1772024954837631000,6.826630859375,6.413416259217262,4.917728788405657,-2.08554312274158
1772024954847627800,6.836627685546875,6.2517550401866435,5.0297763739615675,-2.0376326399229465
1772024954857625000,6.846625,5.907707794004678,5.0097173362731935,-2.048741040045023
1772024954867622000,6.856621826171875,5.319024108463525,4.846715224027633,-2.281095797719061
1772024954877619000,6.866618896484375,3.950955301827192,4.863427289375663,-2.523216747125983
1772024954887616000,6.876615966796875,2.264447152996063,4.458998931989074,-2.4321209103144703
1772024954897612800,6.88661279296875,0.4251087418437004,2.6511510531216858,-1.9689910653732716
1772024954907611000,6.89661083984375,-2.0732517964452506,-0.1589665731191635,-1.6136327361039817
1772024954917608000,6.90660791015625,-4.120924330475926,-3.1910745071470736,-0.724635001514852
1772024954927605000,6.91660498046875,-5.871957266187668,-6.493778666698932,1.0939040749758482
1772024954937602000,6.92660205078125,-8.143618588346243,-9.906716640383005,2.3649384485319254
1772024954947598800,6.936598876953125,-11.373802286088466,-11.393140608286856,2.865876338341832
1772024954957596000,6.946595947265625,-12.905436684072017,-12.657580698144436,4.159679885327816
1772024954967593000,6.956593017578125,-13.763075257670879,-9.403999758201836,1.165433918312937
1772024954977589800,6.96658984375,-13.185600363886355,-5.53390020033121,-1.1822985438741742
1772024954987587000,6.976587158203125,-11.137332786571978,-7.584453258234262,0.9239879455581307
1772024954997584000,6.986583984375,-10.823104340070486,-8.858718576535582,1.7653050605617462
1772024955007581000,6.996580810546875,-9.60263549388647,-8.638562498438358,3.0754242209240794
1772024955017578800,7.006578857421875,-8.055026112657785,-9.4923028955549,4.648816570445895
1772024955027576000,7.016576171875,-7.913290075802802,-8.578491183835267,4.2975925645023585
1772024955037572900,7.02657275390625,-7.02137396954894,-6.8595023226380345,4.288361794820427
1772024955047570000,7.03656982421875,-5.805685343378782,-5.414977468308806,3.491184996446967
1772024955057567000,7.04656689453125,-5.022127905035019,-3.1923411660820245,1.6017653343081473
1772024955067564000,7.05656396484375,-3.722773738184571,-1.0241875646710394,0.41865591244250533
1772024955077560800,7.066560791015625,-2.354371754071116,0.7351514270931482,-0.1890943656835705
1772024955087558100,7.07655810546875,-1.2243319513529538,1.900163174471259,-0.5204841556705534
1772024955097555000,7.086554931640625,0.15841536897718905,2.7932448173731563,-0.3800913501180708
1772024955107551700,7.0965517578125,1.815671119838953,3.5380323800787328,-0.04607004258371889
1772024955117549000,7.106549072265625,3.269034529662132,3.7535140366241335,0.5506769762951881
1772024955127545900,7.1165458984375,4.603596203494072,3.30675811111778,1.2798590466551483
1772024955137544000,7.1265439453125,5.647037919211387,2.8225945382371544,1.7698063175037502
1772024955147540700,7.136540771484375,6.387563440558314,2.6969641252696515,1.9309293380044399
1772024955157538000,7.1465380859375,6.939299497452378,2.8295246297612784,1.9382710790693758
1772024955167534800,7.156534912109375,7.307806062108278,2.894800819531083,1.9440119608089326
1772024955177532000,7.166531982421875,7.389551448380947,2.879481669846177,1.9670193269088863
1772024955187529000,7.176529052734375,7.31833973108232,2.9329867578014728,1.803707125800848
1772024955197526000,7.186526123046875,7.358606275019049,3.0358222783759237,1.590178649149835
1772024955207522800,7.196522705078125,7.446149533915519,3.07398688159734,1.3827045041017234
1772024955217519900,7.206519775390625,7.622346643298864,3.023678251595795,1.2434426022753118
1772024955227517000,7.216516845703125,7.806154227685928,3.11575360096395,1.13864433026053
1772024955237515000,7.226514892578125,7.889457364794612,3.4424385011956096,1.1004262432862073
1772024955247511800,7.23651171875,7.91930071439445,3.7027415885031223,1.1987736586611717
1772024955257509000,7.246509033203125,8.019559662479162,3.821555599454045,1.3221639645516872
1772024955267506000,7.256505859375,8.184843748182058,4.008523985959589,1.2314029126524924
1772024955277503000,7.2665029296875,8.19675922690332,4.1890509412407875,0.9375616398151964
1772024955287500000,7.2765,7.9249694076806305,4.314482324504852,0.7928207220558077
1772024955297497000,7.2864970703125,7.260120181825757,4.554852630852163,0.7137368100773542
1772024955307494000,7.296493896484375,6.815625771510601,4.677427747902274,1.0155109948057681
1772024955317491000,7.306490966796875,6.345542746430635,4.725600827179849,1.097749936749041
1772024955327488000,7.316488037109375,6.347592080175876,4.1000367330089205,1.258667497805506
1772024955337484800,7.32648486328125,5.647572172218561,1.6205059828743338,1.023809305943176
1772024955347481900,7.33648193359375,2.7718133222877976,2.4972882328823207,0.46158466132581233
1772024955357480000,7.34647998046875,-0.3532680789917707,3.5222774693250654,-0.7324033704940229
1772024955367477000,7.35647705078125,-2.090185395589471,2.5325667592734096,-0.9050332158498465
1772024955377473800,7.366473876953125,-4.572470412868261,-0.009333061012625694,0.023678835620731115
1772024955387470800,7.376470947265625,-8.05606363901198,-3.65110317120254,0.5433914223968982
1772024955397468000,7.386468017578125,-12.584230215251445,-7.117464692038297,-0.6010403321586549
1772024955407465000,7.39646484375,-15.776154617226123,-9.06859291459322,-2.178170845295489
1772024955417461800,7.406461669921875,-15.611574295878409,-11.10383500611782,-1.888165278163552
1772024955427459000,7.416458984375,-16.30361898717284,-10.52842464364767,-1.238521366355568
1772024955437456000,7.426455810546875,-15.487390282326936,-7.218793315181136,-2.3548057615742084
1772024955447453000,7.436452880859375,-12.62358958121538,-6.261641643428802,-2.718994170770049
1772024955457451000,7.446450927734375,-11.08682541912794,-7.656239560550451,-1.2936904420003295
1772024955467448000,7.456447998046875,-9.86394249753952,-8.616878489896655,0.8822563705701381
1772024955477445000,7.466445068359375,-8.274705805414914,-7.681738743466139,1.8643379739828407
1772024955487442000,7.47644189453125,-6.659717416918277,-5.652352976754307,1.3497631884865462
1772024955497439000,7.48643896484375,-4.531717546719312,-4.633799618577957,0.6375298417747021
1772024955507436000,7.49643603515625,-2.5179513739436863,-4.3836850400686265,0.04565780852101743
1772024955517432800,7.506432861328125,-2.977878915712237,-3.9362960773557423,-1.2980395771205424
1772024955527430100,7.51643017578125,-3.91612071981132,-4.861595397773384,-0.7166980710357427
1772024955537427000,7.526427001953125,-3.9134418559908863,-3.136448013946414,0.12251933174226433
1772024955547424000,7.536424072265625,-4.531217195981741,0.17262860324680804,-0.5442677303073927
1772024955557421000,7.546421142578125,-3.611308336430788,1.9554653749763964,-0.7320875825431198
1772024955567419100,7.556419189453125,-1.716571863183379,3.2246576277971264,-0.4639912110108882
1772024955577416000,7.566416015625,-0.041082536494731904,4.011006742686033,0.08944836186543106
1772024955587413000,7.5764130859375,2.049740572476387,4.006470852822065,0.9201618113987148
1772024955597410000,7.58641015625,4.476290843051672,3.8419162504374977,1.5890078518047928
1772024955607407000,7.596406982421875,6.490156384548545,4.36202441240251,1.661621544855833
1772024955617404000,7.60640380859375,7.718870496508479,4.5503152796834705,0.12763459239676594
1772024955627401200,7.616401123046875,9.384920963722466,3.3881536610394716,-4.10825423399508
1772024955637398000,7.62639794921875,11.109818172180653,1.3560340854495763,-6.213914262092113
1772024955647394800,7.636394775390625,9.889653277379274,3.3629765496850013,-1.2794943049959837
1772024955657392000,7.64639208984375,6.470359212666749,3.7613673804730174,2.64649942792356
1772024955667389000,7.656388916015625,7.359639125198125,2.4888550433188676,2.03516961081028
1772024955677387000,7.666386962890625,9.16952640093863,2.9290713379234075,0.597310534513183
1772024955687383800,7.6763837890625,8.735996452230214,3.955598743718862,0.8109896351486444
1772024955697381000,7.686381103515625,8.066670373222232,4.461806390625238,1.0674193150889129
1772024955707378000,7.6963779296875,7.716286325234174,4.660447971528768,0.5150597560016438
1772024955717375000,7.706375,7.3735712044388055,4.955329912525415,0.19016933797132224
1772024955727372000,7.7163720703125,7.033081942999362,5.2535617484718555,0.0359071522839833
1772024955737369000,7.726369140625,6.572023935896158,5.703289383265376,0.013450031344778835
1772024955747366000,7.736365966796875,5.855256891277432,6.09310644697547,-0.03177921303324401
1772024955757363200,7.74636328125,5.403606763988733,6.12406272625327,-0.10745957277906126
1772024955767360000,7.756360107421875,5.097050751811266,6.086569738683104,0.2506322091752663
1772024955777357000,7.766357177734375,4.998455937546491,6.335028366678952,0.9738889446068555
1772024955787355000,7.77635498046875,5.260654337081313,6.745443397259712,1.6667901796653866
1772024955797352200,7.786352294921875,6.289817352077365,6.175352768507599,2.217362599607557
1772024955807349000,7.796348876953125,8.003740746578574,3.7467034798264502,1.3965686326727271
1772024955817346000,7.806345947265625,5.746419499939679,1.2826210587143898,-2.5201629125133156
1772024955827343000,7.816343017578125,0.5406961919635535,0.9631494508624077,-5.121252296131849
1772024955837340200,7.826340087890625,-3.936699397459626,0.6128998429089785,-4.117968111018836
1772024955847337000,7.8363369140625,-4.617935109969974,-3.3974878910958766,-2.4078043613120914
1772024955857334000,7.846333984375,-3.870767081868648,-8.565720549589395,-0.8576628312572836
1772024955867331000,7.8563310546875,-10.078187305766344,-9.536562308520079,1.0166156681120395
1772024955877328000,7.866327880859375,-16.833401570934058,-10.715991872829198,2.0139586266078053
1772024955887326000,7.876325927734375,-20.875109741353988,-9.92518636305332,3.5743861344859003
1772024955897323000,7.886322998046875,-19.989161603593825,-9.40464448584616,3.1916865015655755
1772024955907320000,7.896320068359375,-13.231887483286856,-10.84801315587759,2.973570989385247
1772024955917316900,7.90631689453125,-10.885020405757427,-10.842757135045527,2.6574817174479364
1772024955927314000,7.91631396484375,-11.029261703431606,-10.593947209393978,1.7272721208959816
1772024955937311000,7.92631103515625,-11.324701278311014,-9.906887320774793,2.8685815056473016
1772024955947308000,7.93630810546875,-10.342351452416182,-7.384878195872902,3.6589150139972566
1772024955957304800,7.946304931640625,-7.913571815353632,-5.485954792329669,2.924894636760652
1772024955967302100,7.95630224609375,-5.561031952884793,-3.6769483910769223,2.7390906178593633
1772024955977299000,7.966298828125,-3.126146984684467,-2.2357453746467826,2.5105033960253
1772024955987297000,7.976297119140625,-1.341039929935336,-1.140353983722627,2.223598132996261
1772024955997293800,7.9862939453125,0.5216998150706291,-0.41809506368935107,1.6245292470410466
1772024956007291100,7.996291015625,2.1302906114846465,0.8380269874170422,0.4760077389538288
1772024956017288000,8.006287841796874,3.4035061284720896,2.8518954515233634,-0.6233743290416895
1772024956027285000,8.016284912109375,4.295601682946086,4.270029434794187,-1.4428569211170077
1772024956037282000,8.026281982421875,4.556985258966684,4.449192115984856,-1.652904569914937
1772024956047279000,8.036279052734375,4.232040772661566,3.7977234729677436,-1.5821214532919228
1772024956057276000,8.04627587890625,3.995111254417896,2.8996769011348484,-1.2235403625838457
1772024956067273000,8.05627294921875,4.185245703738928,2.3140087640225886,-0.41165392472594975
1772024956077270000,8.06627001953125,4.945888130441308,2.1499778932511804,0.3450343575231731
1772024956087268000,8.07626806640625,6.0680035699009895,2.3547107767671345,0.7605241340849548
1772024956097265000,8.086264892578125,7.362989604669809,2.4787375539302823,1.0147234246246517
1772024956107262000,8.096261962890624,8.110264015755057,3.106926151385903,0.5320178685326129
1772024956117259000,8.106259033203125,8.845243008890748,3.8222915125131607,-0.19109861817806958
1772024956127255800,8.116255859375,7.583731958222389,4.059097112116217,-0.026548399707674978
1772024956137253000,8.126253173828125,5.429128158736229,3.4441894365161656,-0.8088145561318844
1772024956147250000,8.13625,4.733241989582777,3.317702406719327,-1.9474344826035201
1772024956157247000,8.1462470703125,4.066475531929731,4.26655503668189,-1.9728236292734742
1772024956167244000,8.156244140625,4.260895695745945,4.678164245483279,-1.80627668402791
1772024956177241000,8.166240966796876,5.81587297539413,4.367855602774024,-1.9685488745637236
1772024956187238000,8.17623779296875,7.511155382311344,4.293764530646801,-1.598007735340297
1772024956197236000,8.186236083984374,8.757652988243102,4.432258809101581,-1.3475418591752648
1772024956207233000,8.19623291015625,8.169611107736825,5.377215016147494,-1.125094089944288
1772024956217230000,8.20622998046875,7.201826398289203,5.638854612755775,-0.23262670648321507
1772024956227227000,8.216226806640625,6.693952863997221,4.900331663402914,-0.07783566548302769
1772024956237224200,8.22622412109375,6.619580636841058,4.56628032605648,0.49225598618239164
1772024956247221000,8.236220947265625,6.657569883495569,4.645554938301443,0.6265307472459971
1772024956257218000,8.246218017578125,6.3771595354437824,3.944893809831142,0.15660229167323558
1772024956267215000,8.256215087890626,5.305637388145923,2.7108675629377363,-0.09127020699772984
1772024956277212000,8.2662119140625,3.38215062123239,1.6919617380619048,-0.3650170785723254
1772024956287209000,8.276208984375,-0.054845688909292215,0.3630418695092201,-0.7626993592321872
1772024956297207000,8.28620703125,-3.4212592273056504,-2.431861820986867,-0.7073121107921004
1772024956307204000,8.2962041015625,-5.475221216869354,-7.648094832539558,-0.18437875360483302
1772024956317201000,8.306200927734375,-7.34224959897995,-12.71747548713684,0.8148523019261658
1772024956327198000,8.316197998046874,-11.4249900370121,-11.590512607645987,1.8455837352827191
1772024956337195000,8.326195068359375,-17.581956669479606,-9.467969833809137,2.242386566226929
1772024956347192000,8.336192138671874,-20.249100826025007,-9.812433259576558,0.8650380362004041
1772024956357188900,8.34618896484375,-17.993066112065314,-4.701264842824638,-0.42130175077617166
1772024956367186200,8.356186279296875,-15.631892276763915,-3.0576372198209163,-1.690174854645133
1772024956377183000,8.366182861328125,-13.61526954551339,-5.372612490788102,-1.9373095405608414
1772024956387180000,8.376179931640625,-10.916790339505672,-6.642799015343189,-0.9567566810853779
1772024956397177900,8.386177734375,-9.764566177508234,-8.702818405249714,-0.7027268288284539
1772024956407175200,8.396175048828125,-9.84592402576804,-8.303554298758506,-1.0198597645998
1772024956417172000,8.406171875,-8.478864103913306,-4.7475998930200936,-0.8491874099873006
1772024956427169000,8.4161689453125,-6.7710285048931835,-2.1115549313545228,-0.5432195729613304
1772024956437166000,8.426166015625,-5.095826762974262,-0.5426555093377828,-0.27608123280629515
1772024956447163100,8.4361630859375,-3.425107134905457,0.9363660733550786,-0.05438099400699138
1772024956457160400,8.446160400390625,-1.5027145929694175,1.9498726695358752,-0.06963102397844195
1772024956467157500,8.456157470703126,0.4832353521198034,2.4990491050750014,-0.03475114151611924
1772024956477154600,8.466154541015625,1.9018553653419017,2.5756547903716562,-0.18666706547141074
1772024956487152600,8.476152587890626,3.12173968963623,2.657570272514224,-0.15105886873453855
1772024956497149400,8.4861494140625,3.911370310413837,3.0399691689223047,0.06957739409506321
1772024956507146500,8.496146484375,4.372997057315707,2.868916436690092,0.43664559651091694
1772024956517143600,8.5061435546875,5.066327696767449,2.2903961255058647,0.6565607054591178
1772024956527140600,8.516140625,5.862537111413478,2.1191630682706832,0.5306755870781839
1772024956537137400,8.526137451171875,6.3804474710732695,2.516428694421053,0.3714595692425966
1772024956547134700,8.536134765625,6.513388207054138,2.7024410953760145,0.08015650964602827
1772024956557131500,8.546131591796875,7.106999412125349,2.464241995587945,-0.12105068396180868
1772024956567128600,8.556128662109375,7.945966603001952,2.079103152821958,-0.44049116602316496
1772024956577125600,8.566125732421876,7.877510321891307,1.96909174926877,-0.5810977604568004
1772024956587123700,8.576123779296875,7.20498457005918,2.1725050746187566,-0.6824005915712564
1772024956597120500,8.58612060546875,6.521447010347247,2.5102277939543125,-0.7216607349444181
1772024956607117600,8.59611767578125,6.2595204134911295,2.8091189705923196,-0.9240255010895431
1772024956617114600,8.606114501953124,6.424113594320416,3.0161729905322194,-1.1775922658793627
1772024956627111400,8.616111328125,6.647824734550714,3.266406519246101,-1.0322861154526473
1772024956637108500,8.6261083984375,6.803687496435642,3.573215337140858,-0.8532910459138453
1772024956647105500,8.63610546875,6.878732508286833,3.6721959358528253,-0.709353626557067
1772024956657102600,8.6461025390625,7.240223641222715,3.993843426439166,-0.7780714812133461
1772024956667099400,8.656099365234375,7.754360912084579,4.815065701788663,-0.6000952333282679
1772024956677096700,8.6660966796875,8.392802023485302,5.467269381082057,-0.2634594324465841
1772024956687094500,8.676094482421876,8.680043678861855,5.656517695218325,-0.011686711466684936
1772024956697091600,8.686091552734375,8.169276176694035,5.611059427857398,-0.03542516832016408
1772024956707088400,8.69608837890625,7.117232052326202,5.293170705282688,-0.09875139306597411
1772024956717085700,8.706085693359375,6.439483597409724,4.81702969533801,-0.19311492643654346
1772024956727082500,8.71608251953125,5.85904693121016,3.96517087418437,-0.5960877512525766
1772024956737079600,8.72607958984375,4.870553195732832,2.705029358303547,-1.1992407647162675
1772024956747076600,8.73607666015625,3.4722260289549824,1.0384735719159246,-1.7851544010221958
1772024956757073700,8.74607373046875,1.3443874867975711,-1.2186062671825288,-1.3153975391566752
1772024956767070500,8.756070556640625,-1.613823436370492,-5.639439134645461,0.01470890883207321
1772024956777068500,8.766068603515626,-4.726100885656476,-11.528014358156918,2.158821271050721
1772024956787065600,8.776065673828125,-8.197227428936959,-12.381409302836655,3.872669992880523
1772024956797062700,8.786062744140626,-15.461417636680602,-10.010874933993815,4.7559141323789955
1772024956807059500,8.7960595703125,-23.466372435224056,-10.580581531864404,4.163036794540286
1772024956817056800,8.806056884765624,-23.42539043649435,-5.008391056105494,1.9902133016221224
1772024956827053600,8.816053466796875,-20.99677446556091,-0.8907917783990502,0.9414480527944862
1772024956837050400,8.82605029296875,-17.52783228058219,-3.4432182533964513,-0.02520085755623877
1772024956847047700,8.836047607421875,-13.385471778845787,-6.259466052955388,0.32409349549897015
1772024956857044500,8.84604443359375,-10.80709194742441,-7.735417726683616,0.4279639120791107
1772024956867041500,8.85604150390625,-10.1387309140563,-8.970990618497133,0.15417773140743374
1772024956877039400,8.866039306640625,-9.27044118258357,-8.065596606510876,0.06389525680541992
1772024956887036700,8.87603662109375,-6.629274347859621,-6.677404464778304,0.29691103567145766
1772024956897033500,8.886033447265625,-4.478482800137996,-4.9671863545358175,0.5859153898715973
1772024956907030500,8.896030517578126,-3.360757120069861,-2.7066087364494797,0.5983420329853892
1772024956917027600,8.906027587890625,-2.616926127436757,0.024264672684669492,0.627802593812719
1772024956927024600,8.916024658203124,-1.8490788839221,2.265335626268387,0.8056875832177698
1772024956937021400,8.926021484375,-0.879011031973362,3.5235581567853687,0.8239174327176064
1772024956947018500,8.9360185546875,1.0180828180551529,4.019819871477782,0.48096068518608803
1772024956957015600,8.946015625,3.2400819914221763,3.9583515495583415,-0.17312749267965555
1772024956967012600,8.9560126953125,4.868395140916109,3.803782042354345,-0.6171729901835322
1772024956977010400,8.966010498046876,6.009954701036214,3.4348584213301536,-0.9326694107942283
1772024956987007700,8.9760078125,7.167395720899105,2.8574714980900286,-1.1561064102582632
1772024956997004500,8.986004638671876,8.613838391548395,2.6639623116388917,-1.284674922504276
1772024957007001600,8.996001708984375,9.687858785402774,2.8070743130221962,-1.2392905971623955
1772024957016998700,9.00599853515625,9.854592485392093,2.840667078283429,-1.099307103063166
1772024957026995700,9.01599560546875,9.350558090871571,2.6620222834870217,-0.8799334075152874
1772024957036992500,9.025992431640624,8.770770828491449,2.541706343540549,-0.42242900124043226
1772024957046989600,9.035989501953125,8.260249410039187,2.631862707544863,-0.041945290803909296
1772024957056986600,9.045986572265624,7.639965886619686,2.7874440221399066,0.021550883681327102
1772024957066984700,9.055984619140625,6.873771671009063,3.035416327923536,-0.07647256043627858
1772024957076981500,9.0659814453125,6.2965083741486065,3.326786753667891,-0.12406637852117418
1772024957086978600,9.075978515625,6.278547185522317,3.4584310200974344,-0.3223084387131035
1772024957096975600,9.0859755859375,6.673313980594277,3.5272619797393676,-0.5975904839657247
1772024957106972400,9.095972412109376,6.957206910064816,3.7752319474354383,-0.7895381201885641
1772024957116969500,9.105969482421875,7.246000471058488,4.045257679595053,-0.9426284947507083
1772024957126966500,9.115966552734376,7.454424610307813,4.192054506970941,-1.0320523066967726
1772024957136963600,9.125963623046875,7.446397371196746,4.234388504831493,-0.9922488502271473
1772024957146960400,9.13596044921875,7.4951388980120415,4.313590344101191,-0.8303220390629023
1772024957156958500,9.14595849609375,7.162761631357669,4.5148529211580755,-0.563523671451956
1772024957166955500,9.15595556640625,6.45306905516982,4.82731581929177,-0.2556277889728546
1772024957176952600,9.16595263671875,5.992912965342402,4.647598719088733,-0.24683709120862185
1772024957186949400,9.175949462890625,5.29824084815383,3.78955214921087,-0.5298076451372354
1772024957196946700,9.18594677734375,3.7446143985927103,2.496071550568938,-0.9547671147033572
1772024957206943500,9.195943603515625,2.0105372738569973,0.3527177516326308,-1.7405146104373037
1772024957216940500,9.2059404296875,-0.23116437884569166,-2.6201480120927094,-2.3451991443172098
1772024957226937600,9.2159375,-2.7942314903229475,-6.577523117834329,-2.081277574251592
1772024957236934700,9.2259345703125,-4.7911149173587555,-10.723465569710731,-1.0496365517694501
1772024957246932500,9.235932373046875,-7.712914218452572,-11.296717877364157,0.9223094909518956
1772024957256929500,9.245929443359374,-13.601969334435463,-7.959730339938401,2.3184685199104247
1772024957266926600,9.255926513671875,-21.24813758282661,-8.080060016149282,2.507738899748027
1772024957276923600,9.265923583984375,-22.721541910159587,-6.324263811558485,1.2120958623751996
1772024957286920400,9.27592041015625,-20.234321774566173,-1.1957196048527956,1.6028829401612281
1772024957296917500,9.28591748046875,-17.39756105607152,-2.886460861209035,1.4337139758490025
1772024957306914600,9.29591455078125,-14.210475326299667,-6.994615726482868,1.2620742375090717
1772024957316911400,9.305911376953125,-11.064396145176888,-8.125978886759281,1.2421505166381597
1772024957326908700,9.31590869140625,-9.0907825345695,-9.059899320527911,1.1475062666300684
1772024957336906500,9.325906494140625,-7.95171362222135,-9.464242922240494,0.4312367962699383
1772024957346903600,9.335903564453124,-6.685679541170597,-6.823264888086914,-0.30006796533241864
1772024957356900400,9.345900390625,-5.759347370573878,-3.8366520462989806,-0.247353881624341
1772024957366897700,9.355897705078124,-4.790029460209608,-1.8783342045009135,0.07224412908628583
1772024957376894500,9.36589453125,-3.205029382741451,-0.3661076868206262,0.2270217260830104
1772024957386891500,9.3758916015625,-1.892408322560787,0.9334025473743677,0.24730967715643346
1772024957396888600,9.385888671875,-0.9080068248331546,1.6706334110900758,-0.03924962197914719
1772024957406885600,9.3958857421875,0.20720131945610046,2.3530922356545925,-0.18393749437704682
1772024957416882400,9.40588232421875,1.5967197413563727,3.044217474016547,-0.2721168592199683
1772024957426880500,9.415880615234375,2.7357950834453106,3.6952386655271052,-0.4056390483506024
1772024957436877600,9.425877685546874,3.8831612840175627,4.034745930191875,-0.6301835706651211
1772024957446874600,9.43587451171875,5.372172345805168,3.7957434050664305,-0.7397356861434876
1772024957456872200,9.4458720703125,7.0183455616384745,3.270954099547863,-0.9120026164710521
1772024957466869000,9.455868896484375,8.488993868261575,2.9979949442848564,-1.1705420551069081
1772024957476866300,9.4658662109375,9.294825682255626,3.248678262592852,-1.089836679406464
1772024957486863000,9.475863037109375,9.432633147490025,3.305862331321835,-0.8082184168696404
1772024957496860000,9.48585986328125,9.048558426824211,3.132434102129936,-0.5927158636666834
1772024957506857200,9.495857177734376,8.29275116519332,3.3576851652786135,-0.46165787269249553
1772024957516854000,9.50585400390625,7.59234664183259,3.888480140952766,-0.44143487661406394
1772024957526852000,9.51585205078125,6.862963861268758,4.500544409820437,-0.5161402812473476
1772024957536849000,9.525848876953125,6.140148768657445,5.007635853824019,-0.5715183234676718
1772024957546846200,9.53584619140625,6.069992113369703,5.14383646838367,-0.7311984516836703
1772024957556843000,9.545843017578125,6.594466069328784,5.133020475336909,-0.8232749700956046
1772024957566840000,9.555840087890624,7.206950317174196,5.264955833667516,-0.8555936237677931
1772024957576837000,9.565837158203125,7.727716066265105,5.366949058198928,-0.894764481422305
1772024957586834200,9.575834228515625,7.861911186221241,5.489425098788738,-0.8573783152274786
1772024957596831000,9.5858310546875,7.927975019237398,5.504561877644062,-0.8817557275716215
1772024957606829000,9.5958291015625,8.121085269498824,5.331554504212737,-0.8923539131492376
1772024957616826000,9.605826171875,8.203595794925093,5.328771595495939,-0.7891282972786575
1772024957626823200,9.6158232421875,7.997855780193209,5.493153763923049,-0.5973319060947746
1772024957636820000,9.625820068359374,7.432800807520747,5.552148389205336,-0.4469205414835363
1772024957646817300,9.6358173828125,6.7883993264108895,4.751453938099742,-0.6604516484830528
1772024957656814000,9.64581396484375,6.104668289953469,3.13190452529788,-1.2258660290524364
1772024957666811100,9.65581103515625,4.824778117507696,1.264185238313675,-1.9849426677428186
1772024957676808200,9.66580810546875,2.299270629096031,-0.9327057972818612,-2.52613234231174
1772024957686805200,9.67580517578125,-1.122972348549962,-4.04937534404695,-2.4404192214518785
1772024957696803000,9.685802978515625,-4.469378287184238,-7.527469972774386,-0.9453920411799103
1772024957706800000,9.695800048828126,-8.377817804843186,-9.553954757347702,1.434174725228548
1772024957716797200,9.705797119140625,-12.935476433026789,-8.629330559712647,3.3909733946353193
1772024957726794200,9.715794189453124,-19.152736498415468,-8.571242527881264,3.9835038187325
1772024957736791000,9.725791015625,-22.993073370707034,-10.214624067169428,2.9914354396387934
1772024957746788000,9.7357880859375,-19.37043700005412,-6.476302631241083,1.1104142610762269
1772024957756785200,9.74578515625,-15.250796864169835,-4.52137150927186,-0.27088001090139147
1772024957766782000,9.755781982421874,-11.932661326730251,-6.832404472354054,-0.7831857554871589
1772024957776779300,9.765779296875,-10.281523766487837,-8.79495600619912,-0.14678016850203274
1772024957786777000,9.775777099609375,-10.200858576667308,-9.420143668273091,0.4866328856036067
1772024957796774100,9.785774169921876,-10.601655884075164,-9.809217220139503,0.5045774884212761
1772024957806771000,9.79577099609375,-9.84697031995058,-8.391412030431628,0.2007951056756079
1772024957816768300,9.805768310546876,-7.941925803178548,-6.551725244233012,-0.16243600279539822
1772024957826765000,9.81576513671875,-5.961223695614934,-4.9449827060341836,-0.31192440734282134
1772024957836762000,9.82576220703125,-4.051580160614848,-2.912507448874414,-0.20585268132612108
1772024957846759200,9.83575927734375,-2.7290812650203704,-1.1247174386516212,0.014993132600933313
1772024957856756200,9.845756103515624,-2.1481968550533055,0.28263620740771295,0.33928134695440526
1772024957866753000,9.8557529296875,-1.4650830737113951,1.59261259829849,0.8124310661286115
1772024957876751000,9.865751220703125,-0.1666173801332712,2.6612507145926356,0.984700772935152
1772024957886748200,9.875748046875,1.745693912771344,3.1153952890455723,0.7632419416762888
1772024957896745200,9.8857451171875,3.9657957280844447,3.4973511178612706,0.384813117942959
1772024957906742000,9.895741943359376,5.829325746685266,3.864139188161492,-0.1544711613960564
1772024957916739300,9.9057392578125,7.227716041827201,3.827564484480023,-0.48453050649687646
1772024957926736100,9.915736083984376,8.467802027150988,3.50581967099905,-0.9415851231776178
1772024957936733200,9.925733154296875,9.12213395064473,3.3012504536122083,-1.3439419349871575
1772024957946732000,9.93573193359375,9.08824863217771,3.3424966562360523,-1.3673229567050933
1772024957956729000,9.94572900390625,8.647417420545219,3.326571357351541,-1.2751602213144302
1772024957966726100,9.95572607421875,8.196102224299311,3.392936219140887,-1.118912259504199
1772024957976723200,9.96572314453125,7.7497589712470765,3.786125974154472,-1.035898022339493
1772024957986720000,9.975719970703125,7.324902742859721,4.376501850566267,-0.981592723917216
1772024957996717300,9.98571728515625,7.1952306532859795,4.809274258905649,-0.9704114046894013
1772024958006714000,9.995714111328125,7.149851880902052,5.1101218303084375,-0.9521981409981847
1772024958016711200,10.005711181640624,7.255381462866067,5.3264831922978155,-1.0113917959839105
1772024958026709000,10.015708984375,7.329031220966577,5.470762483894824,-1.1696774011015891
1772024958036706300,10.025706298828124,7.256839260458946,5.656705911266803,-1.3312030110538005
1772024958046703000,10.035703125,7.519391880258917,5.977579787132144,-1.283746847873926
1772024958056700200,10.0457001953125,7.827249622684716,6.3501131230860945,-1.162508532385528
1772024958066697200,10.055697265625,7.686675615346431,6.733415105813742,-1.1002100432522595
1772024958076694300,10.0656943359375,7.288727267628908,6.898902020612359,-1.081295791684836
1772024958086691000,10.075691162109376,7.138610940441489,6.759426914426684,-0.9373553766533732
1772024958096688000,10.085688232421875,7.1001961618512865,6.672187606912851,-0.7883129623077809
1772024958106686200,10.095686279296874,6.83319474594891,6.611806495708227,-0.6591058598972857
1772024958116683300,10.105683349609375,6.56181876822412,5.725933761271834,-0.7395620831422507
1772024958126680000,10.11568017578125,5.718256066250801,3.675623279953003,-1.0402214384965598
1772024958136677000,10.125677001953125,3.8915076720803974,1.1925105796784161,-1.3770853490456938
1772024958146674200,10.135674072265624,1.2342881126999854,-1.4818337175041436,-1.0612010250959545
1772024958156671000,10.1456708984375,-1.8546230740457772,-5.748399860101938,-0.023004370425269007
1772024958166668300,10.155668212890625,-4.725912085086107,-10.65405008817911,1.0018481609605252
1772024958176665000,10.1656650390625,-8.864645043975115,-11.164943262553214,1.9022227373495697
1772024958186662100,10.175662109375,-15.976154627001284,-8.909006163749098,2.8446184462577104
1772024958196660000,10.185659912109376,-23.275811284923552,-11.226399894034861,2.837350793342292
1772024958206657300,10.1956572265625,-22.935939863121508,-8.932958701744676,1.548051133646816
1772024958216654000,10.205654052734374,-19.117865091520546,-3.544059677544236,2.029501794306934
1772024958226651100,10.215651123046875,-15.169188256019353,-5.531864310589432,2.0149280561618506
1772024958236648200,10.225648193359374,-11.336593960678577,-8.227844100996851,1.0140354423604905
1772024958246645200,10.235645263671875,-10.099432338368892,-8.571224407702683,1.2094750123523175
1772024958256642000,10.24564208984375,-9.546054359486698,-10.761508592379093,1.459514625929296
1772024958266639400,10.255639404296875,-8.627318050846457,-10.848996321696042,0.8882504233531653
1772024958276636200,10.26563623046875,-7.582441333889961,-7.933038147845864,0.41016076355874537
1772024958286634200,10.27563427734375,-7.359797530630231,-6.233940566554665,0.012548223666846752
1772024958296631000,10.285631103515625,-6.063529054835438,-4.3572500376075505,-0.01955839468985796
1772024958306628400,10.29562841796875,-3.790862939548492,-2.4228455708384513,-0.06059416943341493
1772024958316625200,10.305625244140625,-2.2875404438138007,-1.0469050079137086,-0.0656679655663669
1772024958326622200,10.315622314453124,-0.9537748887956142,0.27192075212597844,0.04543503261581063
1772024958336619300,10.325619384765625,-0.06940612918138504,1.6002771415770054,0.04687631746530532
1772024958346616000,10.335615966796874,0.4505541487455368,2.828292165356874,0.3099655283600092
1772024958356613000,10.345613037109375,1.2834703690201044,3.9711102011054753,0.3415603978022933
1772024958366611200,10.355611083984375,2.638096341237426,4.737304416716099,0.04438479291051626
1772024958376608300,10.365608154296876,4.6875446527689695,4.938720723029971,-0.19905498401001095
1772024958386605000,10.37560498046875,6.814705734056234,4.670992161896825,-0.48278190926387904
1772024958396602000,10.38560205078125,8.402999592372774,4.290630324274301,-0.8077493380531668
1772024958406599200,10.39559912109375,9.291229119068383,4.045202442276477,-1.027946624943614
1772024958416596200,10.40559619140625,9.446761626085639,3.7865117586016654,-1.0645257125392555
1772024958426593000,10.415593017578125,9.040939183992148,3.233067728745937,-1.0538828841023147
1772024958436590000,10.425590087890624,8.273235148340463,2.8762480947524307,-1.1179616807810961
1772024958446587100,10.435587158203125,7.284333416584134,3.384373557978868,-1.3270017599716781
1772024958456585700,10.445585693359375,6.312976693868637,4.198896043428778,-1.2109642279967665
1772024958466582500,10.45558251953125,5.623456552615761,5.039761761403083,-1.0576010278426111
1772024958476579600,10.46557958984375,5.160644979843497,5.408761662533879,-1.2280166312150655
1772024958486576600,10.47557666015625,5.24900306225419,5.58078762371242,-1.2024901219010353
1772024958496573400,10.485573486328125,5.979584112691879,5.8317158566921945,-1.1771991749085484
1772024958506570500,10.495570556640626,6.6696116189450025,5.993685703280568,-1.1541292649663983
1772024958516567600,10.505567626953125,6.868000101870298,6.048765200945734,-1.0404432645536958
1772024958526564600,10.515564697265624,6.6750313059061765,6.1680643650650975,-0.9453852461129426
1772024958536562400,10.5255625,6.5237091100603335,6.199885736739635,-0.8816869731843471
1772024958546559500,10.5355595703125,6.186592539924383,6.052646426293253,-0.6995202878721059
1772024958556556500,10.545556640625,5.682359407961369,5.611717599505186,-0.705411391737312
1772024958566553600,10.5555537109375,5.239619732359051,5.167372826793789,-0.7979017516471445
1772024958576550400,10.56555029296875,5.136650940793753,4.506313056349754,-0.9209768541086465
1772024958586547700,10.575547607421875,4.720220010924339,3.6247856576412913,-0.9227945710550993
1772024958596544500,10.58554443359375,3.940657195174694,2.32111128950417,-1.0846712594673036
1772024958606541600,10.59554150390625,3.072439359894395,0.11892682367563247,-1.2254934694129973
1772024958616538600,10.60553857421875,1.7245441572368143,-3.3761744694322346,-1.2053871585167943
1772024958626536700,10.61553662109375,0.01928337714076042,-7.702149078810215,-0.8866022177547216
1772024958636533500,10.625533447265624,-2.5154151334643364,-10.019338810956478,0.13756269669309257
1772024958646530600,10.635530517578125,-6.257572786554694,-8.24288034208715,1.335128075543046
1772024958656527600,10.645527587890625,-11.16506601215005,-7.704002597722411,2.14448660235852
1772024958666524700,10.655524658203126,-14.239986667466162,-9.34994375836551,1.496226253863424
1772024958676521500,10.665521484375,-12.434912929487227,-7.099478953492641,0.5719739582806825
1772024958686518800,10.675518798828126,-9.565258826172352,-4.869986209499836,0.5759393547803163
1772024958696515600,10.685515625,-8.903264405226707,-5.9222080285221335,0.011005378139019011
1772024958706513700,10.695513671875,-8.340055352681874,-7.029896298700571,-0.1527254867725074
1772024958716510500,10.705510498046875,-8.095105609589815,-7.389253342217207,0.17540961226746438
1772024958726507800,10.7155078125,-8.795259957581758,-8.529496559041737,0.7061500812754035
1772024958736504600,10.725504638671875,-9.373364381441473,-8.678661869114636,1.3390971253044903
1772024958746501400,10.73550146484375,-9.468210072305798,-7.491325477203726,1.7734115023888646
1772024958756498700,10.745498779296875,-9.642240359044074,-6.6196513639897105,2.014067347679287
1772024958766495500,10.75549560546875,-9.059498923033475,-5.578258982017636,2.373647240166366
1772024958776492500,10.765492431640626,-9.103416390693187,-4.419155581900477,1.907390933767706
1772024958786489600,10.775489501953125,-6.870593040972948,-3.266248113813996,1.4882427077636122
1772024958796487700,10.78548779296875,-4.597046051198244,-2.075911371043324,1.0636273023948073
1772024958806484500,10.795484375,-2.4664339526742696,-0.9176251325279474,0.6600530776195228
1772024958816481500,10.8054814453125,-0.2561070969223976,0.3977496102750301,0.24043796475604176
