time,seconds_elapsed,z,y,x
1772024884394916000,0.071916015625,-0.06183364810049533,-0.21652166711762547,-0.3358594096817076
1772024884404911900,0.081911865234375,-0.04384790955483913,-0.24103140060454606,-0.28649529398865997
1772024884414909000,0.091908935546875,-0.01841594665646553,-0.2447683951757848,-0.2527107324823737
1772024884424906000,0.101906005859375,0.011051555368304253,-0.226906867531687,-0.24401670002564788
1772024884434902800,0.11190283203125,0.048912791728973386,-0.19084931959211826,-0.26604082724191247
1772024884444899000,0.121899169921875,0.04643091178536415,-0.17799582936838268,-0.27387100941091774
1772024884454895900,0.131895751953125,0.04522095147371292,-0.18506036092713474,-0.2666184809993952
1772024884464893200,0.14189306640625,0.053012628263235086,-0.21560206805467605,-0.26432934714891015
1772024884474890000,0.151889892578125,0.07367839967310429,-0.2333862926788628,-0.27517200900688765
1772024884484886800,0.16188671875,0.020782091265916822,-0.24602643241286276,-0.3154346074208617
1772024884494883000,0.171883056640625,-0.07679916204214096,-0.28164515054374933,-0.3569634994436055
1772024884504879900,0.1818798828125,-0.1078062947243452,-0.33317879229560493,-0.4060147497951984
1772024884514877200,0.191877197265625,-0.13465689224898814,-0.36183512406796214,-0.40877763863727445
1772024884524874000,0.2018740234375,-0.14228665647506714,-0.3524038633778691,-0.3824385708313435
1772024884534870000,0.2118701171875,-0.053479076731204986,-0.31842268332093954,-0.3436732983030379
1772024884544867000,0.2218671875,0.01665478220283985,-0.27601664313748475,-0.32653431277982886
1772024884554863900,0.23186376953125,0.03747428286969662,-0.23220029776468873,-0.3053542351722717
1772024884564861200,0.241861083984375,0.010336100575327873,-0.22164149434939026,-0.30779687908403575
1772024884574857000,0.25185693359375,-0.017127660411596298,-0.23143705830723046,-0.30520189415477217
1772024884584853800,0.261853759765625,0.021333879929780957,-0.28148820641636846,-0.3040134880878031
1772024884594851000,0.27185107421875,0.032010172244906425,-0.3547087793193757,-0.3364696505345404
1772024884604847900,0.281847900390625,0.10708382566869258,-0.41092195718958974,-0.3745277246415615
1772024884614844200,0.29184423828125,0.17169862892031668,-0.4573930548548698,-0.43523010368980464
1772024884624841000,0.301841064453125,0.22525018636584282,-0.5288903110966086,-0.5332025482725352
1772024884634838000,0.311838134765625,0.20605448750853536,-0.5918085395634174,-0.6082268826618791
1772024884644835000,0.3218349609375,0.17469138099551199,-0.664554772952944,-0.6533042609464377
1772024884654831900,0.331831787109375,0.1328594874382019,-0.7449186417393386,-0.6665490885753185
1772024884664828200,0.341828125,0.07101707150936126,-0.8250333580702542,-0.6965711557429284
1772024884674825000,0.351824951171875,-0.01694528958201408,-0.8998866467416285,-0.7485856398142874
1772024884684822000,0.361822021484375,-0.07326222008764743,-0.9785390354350209,-0.8149266092713922
1772024884694819000,0.371819091796875,-0.20483926649987697,-1.0694902030788362,-0.9007208325434476
1772024884704814800,0.38181494140625,-0.3416507064342499,-1.1472069183573126,-0.8814365786198526
1772024884714812200,0.391812255859375,-0.3490630285173654,-1.203062953352928,-0.8705362682905048
1772024884724809000,0.40180908203125,-0.3437152377486229,-0.9693277011059224,-0.8972368628852069
1772024884734806000,0.411805908203125,-0.28473522551357744,-0.6936478887073695,-0.8704491745289414
1772024884744802000,0.421802001953125,-0.2634621358603239,-0.6107240332398564,-0.9631611413002014
1772024884754798800,0.431798828125,-0.4717191018491983,-0.531135898066312,-1.0096321659002452
1772024884764796000,0.4417958984375,-0.5817541785389184,-0.5358670182414352,-1.1093609526310115
1772024884774793000,0.45179296875,-0.4273714260786772,-0.5826525156181306,-0.9908986046619713
1772024884784790000,0.4617900390625,-0.32613983356952664,-0.6417598074946552,-0.924938670411706
1772024884794786000,0.4717861328125,-0.21827274856865406,-0.6398242363221943,-0.8306227025099098
1772024884804782800,0.481782958984375,-0.10963000302016734,-0.550186927755922,-0.7111017123334109
1772024884814780000,0.49177978515625,-0.028263971453905103,-0.4720429269760847,-0.6337326414488256
1772024884824777000,0.50177685546875,-0.026156185519695282,-0.4299397421967238,-0.5646225726045668
1772024884834773000,0.51177294921875,-0.034739889469742775,-0.41071364820115264,-0.48291722608134147
1772024884844770000,0.52177001953125,0.04524491687119007,-0.37843613025695083,-0.38816418193653224
1772024884854767000,0.53176708984375,0.1437824479907751,-0.3536417346097529,-0.32050957259759305
1772024884864764000,0.541763916015625,0.1541261473506689,-0.29830395133458076,-0.2579933490604162
1772024884874760000,0.551760009765625,0.07999883486628533,-0.2107939371205866,-0.1926372259221971
1772024884884757000,0.561757080078125,-0.020869185027480124,-0.11424655690491199,-0.15595745443105696
1772024884894754000,0.571754150390625,-0.15432137766182422,-0.001858195087313652,-0.13826646104827522
1772024884904751000,0.581751220703125,-0.2820435022115707,0.02277918336726725,-0.1877462390102446
1772024884914747000,0.591746826171875,-0.3205412829101085,-0.03623158933222294,-0.2577031339421868
1772024884924744000,0.601743896484375,-0.30376725824177264,-0.08322203469648956,-0.29711116135343907
1772024884934741000,0.611740966796875,-0.31548166143298145,-0.05540704911909997,-0.3026668957844376
1772024884944737800,0.62173779296875,-0.32186288690268994,-0.03242605956941843,-0.34669834521263837
1772024884954735000,0.631735107421875,-0.31783728464841843,-0.038521234639361496,-0.39198169439807534
1772024884964731000,0.64173095703125,-0.2616588858306408,-0.0659366264399141,-0.36428368626385926
1772024884974728000,0.65172802734375,-0.1348760879576206,-0.09493263849541544,-0.30660934979990123
1772024884984725000,0.66172509765625,-0.03458031499385834,-0.130914563915506,-0.30087212132215496
1772024884994721800,0.6717216796875,0.05830196684300899,-0.15954254637621343,-0.269938200006634
1772024885004718000,0.681718017578125,0.08597206405699252,-0.19949841692857442,-0.22184885348975658
1772024885014715000,0.69171484375,0.1237923838853836,-0.22194033116549253,-0.20375512452498076
1772024885024712200,0.701712158203125,0.19256956751346588,-0.2258099391404539,-0.21446736493632196
1772024885034709000,0.711708984375,0.2947802341878414,-0.16655607840009032,-0.2683255041129887
1772024885044705000,0.721705078125,0.42665714032948016,-0.06961118676681072,-0.3604335867069661
1772024885054702000,0.7317021484375,0.45306467026174063,-0.08373498918730765,-0.4865095514848828
1772024885064699000,0.741698974609375,0.2624590962976217,-0.20646650237552822,-0.5639608938254416
1772024885074696000,0.751696044921875,0.11462065091431141,-0.25916765353679655,-0.5212088166832923
1772024885084692000,0.76169189453125,-0.031657121023535725,-0.2170945716347545,-0.585204465123266
1772024885094688800,0.771688720703125,-0.13368190973699093,-0.12321703168284147,-0.660386547357589
1772024885104686000,0.78168603515625,-0.07463935365974902,-0.02530428139809519,-0.7926097827188671
1772024885114683000,0.791682861328125,-0.07089549095630646,0.0579543224491179,-0.9431040033079683
1772024885124680000,0.801679931640625,-0.10260463442802428,0.1527786782644689,-1.1160554087683558
1772024885134676000,0.811676025390625,0.14360475333631037,0.14712240606844423,-1.2912849882937967
1772024885144672800,0.8216728515625,0.472560813370347,0.04232749505452812,-1.352624423136562
1772024885154670000,0.831670166015625,0.4543517874628305,-0.08837415676265954,-1.3632711970962583
1772024885164667000,0.8416669921875,0.23409517160058022,-0.19773659488782286,-1.2935380279175936
1772024885174663200,0.8516630859375,-0.05062368730008602,-0.24733130446635185,-1.1428547144971788
1772024885184660000,0.861659912109375,-0.2903548189610243,-0.20637926248349248,-1.1403409781105815
1772024885194657000,0.871656982421875,-0.30995851409733294,-0.30319815311692655,-1.248422144253552
1772024885204654000,0.881654052734375,-0.35253041236698623,-0.44254049976840615,-1.412012577781081
1772024885214649900,0.89164990234375,-0.4526297859758138,-0.4612744993980974,-1.4967328882113098
1772024885224647200,0.901647216796875,-0.6210258662194014,-0.42925475560724735,-1.469696558856219
1772024885234644000,0.91164404296875,-0.5077437704324722,-0.703711455951631,-1.1310733835496007
1772024885244641000,0.92164111328125,-0.28941081610918046,-0.6059458590526133,-0.7033702412985264
1772024885254638000,0.93163818359375,-0.09507599248886107,-0.35609219650179147,-1.6476010566793382
1772024885264633900,0.9416337890625,-0.2040402250766754,-0.20495390585549175,-2.6577614111721513
1772024885274631000,0.951630859375,-0.7195581366419792,0.00824789612442255,-1.3533613591089844
1772024885284628000,0.9616279296875,-1.2395464716196058,0.5180578053064644,-0.6658787150330842
1772024885294625000,0.971625,-1.535685134679079,1.032105205927789,-0.570937162578851
1772024885304621000,0.98162109375,-1.3869196375787258,1.2732913587026298,-0.7788483838699758
1772024885314617900,0.991617919921875,-1.1708213104397058,1.0058727403014898,-0.28306115482151506
1772024885324615000,1.001614990234375,-0.9260667976588011,0.4011519660644233,0.35524624719694253
1772024885334612000,1.011612060546875,-0.4724912552654743,0.3980161522567272,0.09809490191861986
1772024885344608000,1.02160791015625,-0.3659060267686844,0.5365368803270161,-0.15012246466726065
1772024885354605000,1.03160498046875,-0.48970425587296484,0.4334389094240963,0.056382835348695516
1772024885364602000,1.04160205078125,-0.49033437047004697,0.2631124456398189,0.5202458168700337
1772024885374599000,1.051598876953125,-0.31142274143099785,0.28207009795755145,0.8002147047646343
1772024885384596500,1.061596435546875,0.04960369660258293,0.3689797351256013,0.8249563473112881
1772024885394592500,1.071592529296875,0.46467269046902654,0.3325055692091584,0.8021830822281539
1772024885404589600,1.081589599609375,0.5111445187866688,0.47320554101467127,0.7242604691140353
1772024885414586600,1.091586669921875,-0.09844517666101456,0.7041609532848,0.23590835850238798
1772024885424583700,1.101583740234375,-0.1527618732601404,0.7420902864456176,0.3048174248818308
1772024885434579700,1.111579833984375,0.27616905722022056,0.6144768829673528,-0.0930265126131475
1772024885444576500,1.121576416015625,0.29387305621504783,0.9898404739111661,0.4073046434752643
1772024885454573600,1.131573486328125,0.06156769064068794,1.4507950206398963,1.2516767621353269
1772024885464570600,1.141570556640625,0.2530044547319412,0.3421747303083539,1.5045187197819352
1772024885474566700,1.151566650390625,0.40001229451000686,-1.0834598378509281,0.7244614715788513
1772024885484563700,1.161563720703125,0.7737859859138727,-1.1944736964449285,1.6984934779182075
1772024885494560800,1.171560791015625,0.6994774716436862,-0.2597013220220804,2.5474127384886143
1772024885504557600,1.1815576171875,-0.07077624849081039,0.5555699359685182,2.184092344298959
1772024885514554600,1.1915546875,-0.5325035331577063,0.6650608227789402,1.495346256158501
1772024885524550700,1.201550537109375,-0.1466799229979515,0.34119419483840463,0.8536682086631655
1772024885534547500,1.21154736328125,0.5324018263489008,0.07709668368399143,0.6613847646147012
1772024885544544800,1.221544677734375,0.7674123592287302,-0.03679389939010143,0.6695781540729105
1772024885554541600,1.23154150390625,0.6986848599612713,-0.0848188023686409,0.764976948775351
1772024885564537600,1.24153759765625,0.8372229775577783,0.09010872547030449,0.7849662822283804
1772024885574534700,1.25153466796875,1.1005442436426878,0.43187370593398805,1.0107727142374963
1772024885584531500,1.261531494140625,1.2029758595913649,1.2704203333109616,1.6019200864784418
1772024885594528800,1.27152880859375,-0.3266173879534006,1.5116814510181544,1.0575134226243943
1772024885604525600,1.281525634765625,-0.036491701573133466,1.1159279829964042,0.44610728887189177
1772024885614521600,1.291521484375,0.19431611891984937,0.8063046922028064,1.578724065938592
1772024885624518700,1.3015185546875,-0.41077100441157816,0.6679933690994978,1.6936268947951494
1772024885634515500,1.311515380859375,-0.8630255273342132,0.36873715854138134,1.1686443317268043
1772024885644512800,1.3215126953125,-0.5491898795425891,0.1713207355186343,0.2496164014625363
1772024885654508500,1.331508544921875,-0.1699123300254345,0.05704202990978956,-0.5058240909488871
1772024885664505600,1.341505615234375,-0.44710897672772404,0.4819929508432746,-0.4770122398212552
1772024885674502700,1.351502685546875,-1.0218062224924565,1.0841817223846912,0.0755221643762663
1772024885684499500,1.36149951171875,-1.5169167213231325,1.7787658690288661,0.5834541143245995
1772024885694495700,1.371495849609375,-0.7972375886499882,1.5961697062581777,1.1166598044022917
1772024885704492500,1.381492431640625,0.6505646799147129,0.13117518761307,1.1650659617833792
1772024885714489600,1.391489501953125,0.5490396574169397,-0.4587418391153216,1.0025861198462545
1772024885724486700,1.401486572265625,0.12693652713000775,-0.12425327939540147,0.8340667785491794
1772024885734483700,1.411483642578125,0.09603870004117489,0.6540256340235472,0.755650390568748
1772024885744479700,1.421479736328125,0.23406243837475776,1.065921843072772,0.9738298348307609
1772024885754476500,1.4314765625,0.6638643064707517,0.868678730790317,1.0316600194435566
1772024885764473600,1.4414736328125,0.7756067716002464,0.21176292828321455,0.8235911233726888
1772024885774470700,1.451470703125,0.4408592686831951,-0.06608458354324102,0.35166290881745516
1772024885784466400,1.461466552734375,-0.27020868751108645,0.3781713418409228,0.34438663420416415
1772024885794463700,1.471463623046875,-0.6956599591821432,0.46960722426176066,0.8908545414369553
1772024885804460500,1.48146044921875,-1.0249603026092051,0.044941257749497886,1.0992575648330152
1772024885814457600,1.49145751953125,-1.322932610836625,-0.5298340216875076,0.7369111302420497
1772024885824454700,1.50145458984375,-1.2441688707232474,-0.4865174425303936,0.02786591204702854
1772024885834450700,1.51145068359375,-0.7712275336027145,0.40512919913232326,-0.8666911371696739
1772024885844447500,1.521447509765625,0.38371523970365523,1.385337921345234,-1.7102229325480758
1772024885854444500,1.531444580078125,1.4401368485033512,2.063946500222385,-2.403593465618789
1772024885864441600,1.541441650390625,2.015799139907956,2.4517083849683403,-2.521183779993653
1772024885874437600,1.551437744140625,2.165635481110215,3.02073138448894,-1.5647370416402815
1772024885884434700,1.5614345703125,2.6288310847640037,3.0781013311788437,-1.1908619356885553
1772024885894431500,1.571431396484375,3.4425217955648897,2.567046536502242,-1.7233210451826453
1772024885904428800,1.5814287109375,4.120030596506595,1.9086963172778486,-1.4753187826521694
1772024885914425600,1.591425537109375,3.903183496826887,1.2210098211929201,-0.5405497692301869
1772024885924421600,1.601421630859375,1.55912621602118,0.6876648687750101,-0.05643385314987972
1772024885934418700,1.611418701171875,-0.5757920552641153,-1.0925587978467344,-1.2248350055042654
1772024885944415500,1.62141552734375,-3.837691910740733,-2.999474661448598,-4.385601395083963
1772024885954412800,1.631412841796875,-9.500047226071358,-2.3426272480025885,-5.330342790335417
1772024885964408600,1.64140869140625,-10.782675299048423,-1.1900687394842504,-3.3087878633797168
1772024885974405600,1.651405517578125,-14.614398656773567,-3.0772640035718677,-2.6899402179822323
1772024885984402700,1.661402587890625,-16.303089410340785,-3.596104045297205,-3.795971368603408
1772024885994399500,1.6713994140625,-16.44800641531944,-3.2243671204179525,-2.9863515605032442
1772024886004395800,1.681395751953125,-16.30576885868311,-1.575148545539379,-1.7344123480394482
1772024886014392600,1.691392578125,-14.644171863746642,0.8958975771054625,-0.9973868707027286
1772024886024389600,1.7013896484375,-12.530456539487838,2.0365189795926213,-1.2262142579682171
1772024886034386700,1.71138671875,-10.184244126474857,1.168491406187415,-0.08505005384124815
1772024886044383500,1.721383544921875,-7.749637390694022,-1.0559282723248005,1.5542888589926063
1772024886054379800,1.7313798828125,-6.015415304529666,-3.3674060565650463,2.31035506382063
1772024886064376600,1.74137646484375,-4.815231706005335,-4.039227459520101,2.1575078503645955
1772024886074373600,1.75137353515625,-3.5246149723619222,-2.8902713594079015,1.6354649209447205
1772024886084370700,1.76137060546875,-1.7892694351255893,-1.2053110245406626,1.0451343449793755
1772024886094366500,1.771366455078125,0.2403431260794401,0.369666548345983,0.8232203903641552
1772024886104363800,1.78136376953125,2.2677736670702693,1.6455661898508667,0.9942801368590444
1772024886114360600,1.791360595703125,4.372957894349098,2.5334455879345534,1.1131198667731135
1772024886124357600,1.801357666015625,6.098288233527541,3.344023135150969,1.145567772848159
1772024886134354700,1.811354736328125,7.314555536368489,4.101360675089061,1.0809085459329186
1772024886144350500,1.8213505859375,8.5418030829072,4.526417979006469,1.1254898843288421
1772024886154347800,1.83134765625,9.617067923864722,4.13154918486476,1.4755441158406435
1772024886164344600,1.841344482421875,10.45365961778164,3.307401669718325,2.3382785512737927
1772024886174341600,1.851341552734375,10.876125151640176,2.686801919956505,3.1053526184588667
1772024886184337700,1.861337646484375,11.004398480331897,2.363816458764672,3.167699476778507
1772024886194334500,1.87133447265625,11.093512349545955,2.1100831052362916,2.7082249394744635
1772024886204331500,1.88133154296875,11.030257728731632,1.9889815678700804,2.0963798663154245
1772024886214328600,1.89132861328125,10.7953266908288,2.2550112161308524,1.5459851410277188
1772024886224325600,1.90132568359375,10.364356363475322,2.2253844318911433,1.61871296197772
1772024886234321700,1.91132177734375,10.111119269031285,2.622472363387048,1.0947747203305362
1772024886244318700,1.921318603515625,9.91494904667735,3.044013768137991,1.2059305446784943
1772024886254315500,1.9313154296875,9.667475922587514,2.360602757415175,1.6199351972490548
1772024886264312600,1.9413125,9.942188935780525,2.3237074434772134,1.3424658710852264
1772024886274308600,1.95130859375,9.82507646805048,2.6695158541128037,1.2557163929149509
1772024886284305700,1.9613056640625,9.754778358465433,2.643489432452619,1.061010909351334
1772024886294302700,1.971302734375,9.320353506743908,3.2779727461382744,-0.5598640529658645
1772024886304299500,1.981299560546875,5.7694695361375805,3.6193224237993356,1.1631102976709604
1772024886314296800,1.991296875,7.592207525622844,3.7230604461714623,-0.13953355837464332
1772024886324292600,2.001292724609375,6.679401776075363,4.817265842181444,0.6953817267626523
1772024886334289700,2.01128955078125,4.580309435930848,4.85061018563956,0.34767573887743053
1772024886344286700,2.02128662109375,3.439863974532485,4.877545538838207,-1.1708073549795894
1772024886354283500,2.031283447265625,2.9408938776642084,4.148249852035939,-1.8670530781604349
1772024886364279600,2.041279541015625,1.9233301150470972,2.5099112753510475,-1.8172142576277255
1772024886374276600,2.051276611328125,-1.6243804862201212,1.0418535697430371,-2.06302237111479
1772024886384277000,2.061277099609375,-6.4563996608972545,-2.1232348477542398,-2.256605499584973
1772024886394274300,2.0712744140625,-10.407655406975746,-5.45314616318345,-1.6315627989396453
1772024886404270000,2.08127001953125,-13.208057694888113,-9.029431117027997,-0.44428602826148267
1772024886414267100,2.09126708984375,-15.36037367569804,-9.955470442157983,-0.6634348290123045
1772024886424264200,2.10126416015625,-17.686532311719656,-9.940615402853489,-1.873840692473948
1772024886434261000,2.111260986328125,-17.715811013174054,-9.56126946427524,-1.9255021983891725
1772024886444258300,2.12125830078125,-15.802729320418834,-6.5849658350557085,-2.32157350018844
1772024886454254000,2.131254150390625,-14.277136540687083,-7.093508062389493,-1.7035256268665193
1772024886464251100,2.141251220703125,-13.050774544811247,-8.313240410992503,0.38668110377192494
1772024886474248200,2.151248291015625,-11.807807451093197,-9.142758221000433,1.9218140113957225
1772024886484245000,2.161244873046875,-10.100734653139114,-10.233105480277537,2.923936313122511
1772024886494241300,2.1712412109375,-8.085982976457476,-10.16663365098238,2.877337059032917
1772024886504238000,2.181238037109375,-5.7759144744932644,-8.234923830124735,1.9819021310031413
1772024886514235100,2.191235107421875,-3.186071584293246,-6.19829116102457,1.676791349197924
1772024886524232200,2.201232177734375,-0.9656219784557819,-4.253490387925505,1.7861328906655312
1772024886534229000,2.21122900390625,0.7872761666059493,-2.4190222131580112,1.4424259823538361
1772024886544225300,2.221225341796875,1.9981775584995745,-0.31775369801819325,0.6834200708121061
1772024886554222000,2.23122216796875,3.004320932435989,1.950747698804736,-0.07237389294579624
1772024886564219100,2.24121923828125,3.8919624301105737,3.680740184575319,-0.7505046251781284
1772024886574216200,2.25121630859375,4.769928336945176,4.29619146553278,-0.8906403872296214
1772024886584212000,2.2612119140625,5.664511616581678,4.133053744208812,-0.7250542498402297
1772024886594209300,2.271209228515625,6.374695775678753,3.8043952058166264,-0.44696043510250744
1772024886604206000,2.2812060546875,6.963790964630245,3.4366903129324315,-0.08929390195608139
1772024886614203100,2.291203125,7.533632587057352,3.210913180083036,0.13840203359406442
1772024886624200200,2.3012001953125,7.743924858266115,3.095156218615174,0.20206070516463367
1772024886634196000,2.311196044921875,7.505933848270773,2.7233587957203387,0.49885783213283863
1772024886644193300,2.321193359375,7.128688681364059,2.254107545289397,0.6002668635681271
1772024886654190000,2.331190185546875,6.936741045141219,2.0816928770542145,0.2593893699960783
1772024886664187100,2.341187255859375,6.510202562755346,2.2936805540040135,0.11627017168700694
1772024886674183200,2.35118310546875,5.970871813926101,2.7185885125786062,0.05848616430349648
1772024886684180200,2.36118017578125,5.777725323307513,3.1535207293003795,-0.017932400923222302
1772024886694177000,2.371177001953125,5.782185809847713,3.7175305768340823,-0.02169979063272476
1772024886704174000,2.381174072265625,5.627813578781486,4.335036452233791,0.006592018676176667
1772024886714171100,2.391171142578125,5.649144536101818,4.812480945992469,-0.0159996062297374
1772024886724167200,2.401167236328125,5.792755134657025,5.2375709831357,-0.007143442013859748
1772024886734164200,2.411164306640625,5.9388312465429305,5.501728700044751,-0.0774251849859953
1772024886744161000,2.4211611328125,5.899194232681393,5.699342691466212,-0.20789112835116683
1772024886754158300,2.431158447265625,5.723683351996541,5.950907468783855,-0.26012480813115835
1772024886764154000,2.441154052734375,5.512649322509765,6.025471419119834,-0.3945963338758796
1772024886774151200,2.451151123046875,5.254851788282394,5.992046703901886,-0.8138652636501937
1772024886784148200,2.461148193359375,4.73625812253356,5.89810059222579,-1.4006358821116387
1772024886794145000,2.47114501953125,3.766944888344407,5.684111220064759,-2.2542124669685957
1772024886804142300,2.481142333984375,1.8735206667393445,5.214371893855929,-3.095297965173423
1772024886814138000,2.49113818359375,-0.6537298659473657,3.893298647150397,-3.1598920178979633
1772024886824135200,2.50113525390625,-2.785496395203471,1.792199643358588,-3.203177325133979
1772024886834132200,2.51113232421875,-4.737539979037642,-1.7683266003400087,-2.539916245253384
1772024886844129000,2.52112890625,-7.236424248939752,-6.14526976493299,-0.8959824058447032
1772024886854125300,2.531125244140625,-9.886107567596435,-8.691098741361499,0.28181491762008515
1772024886864122000,2.5411220703125,-12.4147492623806,-9.421955686131119,0.6959313965346664
1772024886874119200,2.551119140625,-13.179923487293719,-11.546521490228175,1.8179621533855794
1772024886884116200,2.5611162109375,-12.858658566284179,-7.936524236395955,0.4905219289314002
1772024886894113000,2.571113037109375,-11.610645879614353,-5.7676510885387655,-0.4120234886907041
1772024886904109300,2.581109375,-10.169565612781048,-8.111794878584146,0.952454746107757
1772024886914106000,2.591106201171875,-8.918432163742184,-9.889411285316944,2.3771866663388908
1772024886924103200,2.601103271484375,-8.2068089117527,-11.351547199660539,3.57500222055763
1772024886934100200,2.611100341796875,-6.8252867493033405,-12.35112989990711,4.836888826540112
1772024886944096000,2.621095947265625,-5.374006575495004,-11.011118143975734,4.2926925175011155
1772024886954093300,2.63109326171875,-4.091215420910716,-8.751562854674457,3.4676676349982616
1772024886964090000,2.641090087890625,-2.7172487884074448,-6.868232741582394,3.156003778287768
1772024886974087200,2.651087158203125,-1.413583188098669,-4.821844986665249,2.241007094567269
1772024886984084200,2.661084228515625,-0.574248332953453,-2.4211516264021395,1.0465228036630898
1772024886994080000,2.671080078125,0.2554839965879917,-0.19153321020305156,0.1375436449327506
1772024887004077300,2.681077392578125,1.1381062047958372,1.747855474719405,-0.6860295957233756
1772024887014074000,2.69107421875,1.7916881867051124,3.1348572376236317,-1.1524516140777616
1772024887024071200,2.7010712890625,2.649848738351464,3.9447126080453394,-1.5251844911918042
1772024887034067200,2.711067138671875,3.70826590488255,4.584198552323878,-1.6288821815535426
1772024887044064000,2.72106396484375,4.562407868537306,4.503991627664864,-1.1981622487645596
1772024887054061000,2.73106103515625,5.387195727413893,3.9626539229273794,-0.7014039096616208
1772024887064058000,2.74105810546875,6.144181969696283,3.7169741119951007,-0.24844279110589995
1772024887074055200,2.75105517578125,6.633923634970188,3.6849563409656283,0.13816822483818977
1772024887084051200,2.76105126953125,6.762190533921122,3.4257629684656856,0.5772772157879545
1772024887094048300,2.77104833984375,6.521856760191917,3.1083968084603546,0.8551074476860463
1772024887104045000,2.781045166015625,6.450412403181195,2.9833950487852094,0.702224286133796
1772024887114042000,2.7910419921875,6.285147022178768,3.2745208521187306,0.34434549847617746
1772024887124038100,2.8010380859375,6.122825293412804,3.6910225091367956,0.08125135567802935
1772024887134035200,2.81103515625,6.031419513869285,4.134728399422764,-0.08855776970125734
1772024887144032300,2.8210322265625,5.992326689887046,4.5836394571363925,-0.12857212897520512
1772024887154029000,2.831029052734375,6.111247083821892,5.011038940265775,-0.040836087452992796
1772024887164026400,2.8410263671875,6.20800883744061,5.3750312423676245,-0.05597546012420207
1772024887174022100,2.851022216796875,6.4111547440260646,5.563146753081679,-0.01727411967758089
1772024887184019200,2.861019287109375,6.641709466540813,5.648286457967758,0.11974884411562234
1772024887194016300,2.871016357421875,6.801393832540512,5.7444239422082894,0.14604524182360618
1772024887204013000,2.881012939453125,6.9082923647701735,5.84058305375874,0.0896147314082831
1772024887214010000,2.891010009765625,6.653849986189603,5.982147241178154,0.027806729205697774
1772024887224006100,2.901006103515625,6.327495048564672,5.995348083534837,-0.28174702174933625
1772024887234003000,2.9110029296875,5.788298155248165,5.524779320764542,-0.892278144499287
1772024887244000300,2.921000244140625,4.275063921830058,4.866548636266589,-1.2911647229149936
1772024887253997000,2.9309970703125,1.9341607211410998,3.5620547684401274,-1.7257631776377558
1772024887263993300,2.940993408203125,-0.539665679872036,1.509651114234328,-2.1603972881957887
1772024887273990100,2.950990234375,-3.3036931705892085,-1.8254905030637978,-1.8319623294264078
1772024887283987000,2.960987060546875,-6.447155447211861,-5.54331977058351,-1.0707255900926886
1772024887293984300,2.970984375,-9.51313408665955,-8.484889355552196,-0.6273275967121124
1772024887303981000,2.98098095703125,-12.213132465058564,-10.155172345769405,-0.22141331161670386
1772024887313977300,2.990977294921875,-14.119037398052214,-10.745506721127033,0.5619590159511193
1772024887323974100,3.00097412109375,-15.077763187253474,-7.9588617404103275,0.48900893055256456
1772024887333971200,3.01097119140625,-14.832287374460696,-6.1587301350086925,0.7289186701834202
1772024887343968300,3.02096826171875,-14.1100380990386,-7.112201072421669,2.020949654538929
1772024887353964000,3.030964111328125,-13.618749788844585,-8.058368993344903,3.3497944120287895
1772024887363961300,3.04096142578125,-12.8198626794219,-9.236998931708932,4.267949705910683
1772024887373958100,3.050958251953125,-11.206309876686333,-9.608460254517198,4.479526756232977
1772024887383951000,3.060951171875,-9.648897478845715,-8.97912891676724,4.043807773047686
1772024887393948200,3.0709482421875,-8.14177500630617,-8.30244429168999,3.4005276971831915
1772024887403944000,3.08094384765625,-6.212489197725057,-7.974156340175867,2.558543496572971
1772024887413941200,3.090941162109375,-4.222960225105285,-7.123852931770682,1.2099947984427213
1772024887423938000,3.10093798828125,-2.438783144682646,-5.468883830541372,-0.28668234099335965
1772024887433935000,3.11093505859375,-0.8064046454459428,-3.424154948747158,-1.789336509012431
1772024887443932200,3.12093212890625,0.7167500934839248,-1.2339473364382982,-2.9099294150799513
1772024887453928000,3.130927978515625,2.046985720810294,0.729060709002614,-3.241754893070459
1772024887463925200,3.14092529296875,3.2643168534904716,2.5277105514138936,-3.073514880171418
1772024887473922000,3.150922119140625,4.6094548663944,3.9295255603075026,-2.7627865507453677
1772024887483919000,3.160919189453125,5.950791733449697,4.337442344331741,-1.9836253015339373
1772024887493915100,3.1709150390625,7.07478874887228,4.145147502106428,-1.1115984293594956
1772024887503912200,3.180912109375,7.972334385445714,4.076837935990095,-0.3820126370368525
1772024887513909000,3.190908935546875,8.47042769947946,4.219046851053834,0.004457801392767578
1772024887523906000,3.200906005859375,8.643377205243706,4.3533571218222376,0.30609296124298124
1772024887533903000,3.210903076171875,8.497388771641253,4.277357585725188,0.7139327710408717
1772024887543899100,3.220899169921875,7.937415632277727,4.351532829004526,0.849404486804083
1772024887553896200,3.230896240234375,7.4105948209315535,4.5827048066347835,0.7503263460017741
1772024887563893000,3.24089306640625,6.995043596506118,4.849536711189151,0.5428236324463039
1772024887573890300,3.250890380859375,6.672571637794375,5.264798012757301,0.11011098233698867
1772024887583886000,3.260885986328125,6.359040525907278,5.877479244479536,-0.2660834790735505
1772024887593883100,3.270883056640625,6.03279197126627,6.47968409037292,-0.38988289548791943
1772024887603880200,3.280880126953125,5.867528928351402,7.0288079189419745,-0.4943839015891775
1772024887613877000,3.290876953125,5.704931889775395,7.498790406256914,-0.5204817445177584
1772024887623874300,3.300874267578125,5.615149912041425,7.787620792129635,-0.48173524975515897
1772024887633870000,3.3108701171875,5.593720170521736,7.882690939399599,-0.5449695584338158
1772024887643867100,3.3208671875,5.503591571307182,7.995159965237975,-0.5568010851986706
1772024887653864200,3.3308642578125,5.533489281442761,8.055878930094838,-0.5936691092709079
1772024887663861000,3.340861083984375,5.515861270293593,8.01435800218284,-0.7501974589250981
1772024887673858000,3.350858154296875,5.38141889757812,7.932004713144898,-0.9775337308499962
1772024887683854000,3.36085400390625,5.0528445303380485,7.744693504551052,-1.3351175541490317
1772024887693851000,3.370850830078125,3.9620243928521868,7.440683085203171,-1.645688647186756
1772024887703848200,3.38084814453125,2.2880647599488495,6.693751788467169,-1.9004422836735844
1772024887713845000,3.390844970703125,0.5911421846091747,4.953408004552125,-1.9352363875485956
1772024887723841300,3.40084130859375,-1.099676813158393,2.202975323945284,-1.544484234945476
1772024887733838000,3.410838134765625,-2.339396303257346,-2.4594945087999105,-0.038302032080863135
1772024887743835100,3.420835205078125,-3.400996775999665,-8.877190637293458,2.4242096987985073
1772024887753832200,3.430832275390625,-5.805653779196739,-12.302483650159836,2.527053548809886
1772024887763829000,3.4408291015625,-8.805508379873633,-12.462967642104624,1.7107972253046928
1772024887773825300,3.4508251953125,-10.637660094392299,-14.065499869132042,2.886587410198152
1772024887783822000,3.460822021484375,-12.031934186387062,-9.96996892310977,1.014780780835077
1772024887793819100,3.470819091796875,-11.476094785827398,-7.944296623963117,1.0142772882923483
1772024887803816200,3.480816162109375,-11.154511884909867,-9.33849472811222,2.564147600190341
1772024887813813200,3.490813232421875,-10.899888304543495,-10.213514644622801,3.6974157173052427
1772024887823809000,3.50080908203125,-10.326645349240302,-10.934412505435944,5.046539292714
1772024887833806000,3.51080615234375,-9.593746669510006,-10.519579658412933,5.2064387627691024
1772024887843803100,3.52080322265625,-8.705700098165869,-8.700595468503236,3.6695346076890822
1772024887853800000,3.530800048828125,-7.075400743290782,-7.111608367225528,2.548823189808428
1772024887863796000,3.5407958984375,-5.305618683445453,-6.060409461510181,1.595212259402871
1772024887873793000,3.55079296875,-3.9890824956476685,-4.548495663040876,0.024976108889654278
1772024887883790000,3.5607900390625,-2.4557629210561513,-2.562572605958581,-1.2199356891553848
1772024887893787100,3.570787109375,-0.8937421526372432,-0.43720483782887454,-2.6268855036541816
1772024887903784000,3.580783935546875,0.33284605320990085,0.9528332240313291,-3.5356606825113293
1772024887913780200,3.5907802734375,1.3723071748584508,1.9742571692079305,-3.6192043503776192
1772024887923777000,3.600777099609375,2.346391861233115,2.932835366632044,-3.2874230037897822
1772024887933774000,3.610774169921875,3.571349835529923,3.4214921592786904,-2.8260402947768566
1772024887943771100,3.620771240234375,4.816034254559875,3.3413200136721133,-2.143415612126142
1772024887953768000,3.630767822265625,5.747253028154373,3.0806670900136233,-1.3886656044632195
1772024887963764200,3.64076416015625,6.248565888756513,3.0239386560976502,-0.655681146145612
1772024887973761000,3.650760986328125,6.679841336536407,3.028946839648485,-0.075748808172415
1772024887983758300,3.66075830078125,6.845816911634802,3.101010205340385,0.357924015038833
1772024887993755100,3.670755126953125,6.688141547369956,3.208906516435742,0.7355781280726194
1772024888003751000,3.6807509765625,6.411837465593218,3.3192794467777014,0.9684155546970665
1772024888013748200,3.690748291015625,6.154347974401712,3.6181793912440536,1.0496505072295665
1772024888023745000,3.7007451171875,6.012323768255114,4.21282520006001,0.9160166744180023
1772024888033742000,3.7107421875,6.036621758687496,4.837517772093415,0.6546288606137037
1772024888043739100,3.7207392578125,6.107483347374201,5.336366872930526,0.4106645848950371
1772024888053735000,3.73073486328125,6.157516083043813,5.733430254507065,0.12497629644032567
1772024888063732200,3.740732177734375,6.160070443701744,6.1062459145337336,-0.09729005180913955
1772024888073729000,3.75072900390625,6.13963672748208,6.485078058370948,-0.14593502291478216
1772024888083726000,3.76072607421875,6.158163733297586,6.77090458625257,-0.28146307197511194
1772024888093723100,3.77072314453125,6.13029256055355,6.847726544648409,-0.3570741567438468
1772024888103719000,3.780718994140625,6.083775724050402,6.803340874955058,-0.3421958096290007
1772024888113716200,3.79071630859375,6.051448740941286,6.608189474254846,-0.31654351851083334
1772024888123713000,3.800713134765625,5.828212232485413,6.292337225943803,-0.44979606038723136
1772024888133710000,3.8107099609375,5.145201326996088,6.179596981948614,-1.034276777813211
1772024888143706000,3.8207060546875,4.133668661236762,5.665878228759765,-1.5676374392569064
1772024888153703200,3.830703125,2.136506417259574,4.406189717343449,-1.6895438632652162
1772024888163700200,3.8407001953125,-0.19111410800814627,2.11042212793231,-1.7359342969097196
1772024888173697000,3.850697021484375,-2.292360411316156,-1.5065893885761499,-1.3408162041820586
1772024888183694000,3.860694091796875,-4.803553543171287,-5.911182776638865,-0.08823332351986318
1772024888193690000,3.870690185546875,-7.707345478409528,-10.628976437199116,1.3280973001234233
1772024888203687200,3.880687255859375,-11.035962662374972,-12.104807699418068,1.0963660081099718
1772024888213684000,3.89068408203125,-13.120462413543462,-12.379230205231904,1.273604077913612
1772024888223681300,3.900681396484375,-14.048480929791927,-12.328102075541018,1.7328449525922536
1772024888233678000,3.910677978515625,-14.311764786475896,-7.37307611439824,0.12820413591302932
1772024888243674000,3.920674072265625,-13.012988711774348,-6.79663991601169,1.0031540559273213
1772024888253671200,3.930671142578125,-12.40948856537342,-9.06995251250863,2.8331162245124575
1772024888263668000,3.94066796875,-11.586322754740713,-10.16461588141918,3.76361954331398
1772024888273665300,3.950665283203125,-10.122941808772087,-10.42724741167426,4.471418268579244
1772024888283662000,3.960662109375,-8.780146559602022,-9.565124386137724,4.271643299731612
1772024888293658000,3.970658203125,-7.138698034203052,-8.11354084546864,3.6615672820717093
1772024888303655200,3.9806552734375,-5.528848762160539,-6.92079470346868,3.189409788805246
1772024888313652000,3.99065185546875,-3.9381057571262117,-5.669066211146116,2.314356116155535
1772024888323649300,4.000649169921875,-2.2575796053141355,-4.296045919582247,1.2459966706722974
1772024888333645000,4.01064501953125,-0.7780559183180332,-2.565108846437931,0.38736492131762207
1772024888343642000,4.02064208984375,0.38802784220576286,-0.7329226451277733,-0.5028508107591421
1772024888353639200,4.03063916015625,1.5861270356714725,0.896631444337964,-1.599302159065008
1772024888363636000,4.040635986328125,2.5797405983805657,2.6181951244592665,-2.4090005853593346
1772024888373633000,4.050633056640625,3.2735119673371313,4.042094539389014,-2.6001871740818023
1772024888383629000,4.060629150390625,4.099406326150894,4.652875490447879,-2.6369331426769493
1772024888393626000,4.070626220703125,4.914468325304985,4.734120525982975,-2.384018412055075
1772024888403623200,4.080623046875,5.562876119446754,4.678694991359114,-1.7852923481881617
1772024888413620200,4.0906201171875,6.137253047215938,4.575535645657777,-1.2225653070066123
1772024888423617000,4.100616943359375,6.521317831009626,4.518929961338639,-0.6224062146618962
1772024888433613000,4.110613037109375,6.588513298404217,4.357077603650093,0.029092165906354783
1772024888443610000,4.120610107421875,6.515780070626735,4.102622950109839,0.558066903883405
1772024888453607200,4.130607177734375,6.337089975383877,3.9707051274359224,0.7962775114461779
1772024888463604200,4.140604248046875,6.140315941917896,4.027101552918553,0.7177005260765552
1772024888473601000,4.15060107421875,6.044075581824779,4.129108221453428,0.5068724674906582
1772024888483597000,4.16059716796875,5.877184060925245,4.4759103193014855,0.11337176509806886
1772024888493594000,4.170593994140625,5.853322708344459,4.857460489925741,-0.36260461060311644
1772024888503591200,4.180591064453125,5.976503097811341,5.273708464443684,-0.6748426504723727
1772024888513588200,4.190588134765625,6.104923141497373,5.708747648671269,-0.7589327001750469
1772024888523584000,4.200583984375,6.280393105649948,6.056473291105031,-0.8315084723684937
1772024888533581300,4.210581298828125,6.3935471911430355,6.359099562618136,-0.8807376365702598
1772024888543578000,4.220578125,6.2544356575727456,6.546490266188979,-0.9189933521412312
1772024888553575000,4.230574951171875,6.252852187773585,6.6948892680644985,-0.9950792513474821
1772024888563572200,4.240572265625,6.241403157520294,6.717820061796903,-1.0835483929172158
1772024888573568000,4.250568115234375,6.1735705612659455,6.703777507919073,-1.2197281108193099
1772024888583565300,4.2605654296875,6.022343057966232,6.514474248725175,-1.327732266203314
1772024888593562000,4.27056201171875,5.240842552152276,6.1325727804452175,-1.346008365997672
1772024888603559200,4.28055908203125,4.457536458221077,5.349132831001281,-1.3315776895850897
1772024888613556200,4.29055615234375,2.757798825460672,3.9035254421323535,-1.1671901143305004
1772024888623552000,4.300552001953125,0.4484147986292839,1.0006307479947805,-0.09004486645385622
1772024888633549300,4.31054931640625,-1.879924104040861,-3.5110242539048193,1.6968281750544905
1772024888643546000,4.320546142578125,-5.056103824394941,-8.899087996324896,3.1228064420849084
1772024888653543200,4.330543212890625,-9.317282428735494,-11.694354090392588,2.7537814065128563
1772024888663540200,4.340540283203125,-12.582927900481224,-11.805417925608158,1.8067004623979328
1772024888673536000,4.350535888671875,-14.684520240747927,-12.969943350774049,1.9028128121972083
1772024888683533300,4.360533203125,-15.691716923129558,-9.194966547143459,0.21996179763413964
1772024888693530000,4.370530029296875,-13.959869749403,-7.306295073023438,-0.15558723287917672
1772024888703527200,4.380527099609375,-13.262413554453849,-8.376354162031411,2.007724992915243
1772024888713523200,4.390523193359375,-12.959098131632803,-9.653004329642654,3.856544787509739
1772024888723520000,4.40052001953125,-11.606975082147121,-10.496796164196729,4.872817049011588
1772024888733517000,4.41051708984375,-9.931711965429782,-9.968999785816669,5.206195017141104
1772024888743514000,4.42051416015625,-8.781091146975756,-8.394006138578057,4.480875832754373
1772024888753511200,4.43051123046875,-7.152631867009401,-6.949920844709872,4.051885281041264
1772024888763507200,4.440507080078125,-5.456156450915336,-5.5174511698335404,3.127003601513803
1772024888773504300,4.450504150390625,-3.8621991600096224,-3.8457927996098995,1.73741152985543
1772024888783501000,4.4605009765625,-2.2922914377331733,-2.029548263797164,0.6661877079170196
1772024888793498000,4.470498046875,-0.8732090676963329,-0.24046412211060522,-0.390544355071336
1772024888803495200,4.4804951171875,0.4899228670597076,1.1771803240776062,-1.1802670380465685
1772024888813491200,4.4904912109375,1.8158809631973505,2.3294886572271585,-1.640720503385365
1772024888823488300,4.50048828125,2.7862843307107688,3.530096034121513,-2.049844617372751
1772024888833485000,4.510485107421875,3.669064944350719,4.438594441863894,-2.1928303620278835
1772024888843482400,4.520482421875,4.668008177649974,4.437196850025654,-1.8318840034931898
1772024888853479200,4.530479248046875,5.611119049090147,3.8897581980645652,-1.3307916537739335
1772024888863475200,4.54047509765625,6.343092430669069,3.652380936053395,-0.9302057240944355
1772024888873472300,4.55047216796875,6.826013310012221,3.8808302107214927,-0.5210935928057879
1772024888883469000,4.560468994140625,7.0711939392507075,4.013392761039734,-0.10916896137967705
1772024888893466000,4.570466064453125,6.988896179792285,4.00595822712481,0.045935164157673715
1772024888903463200,4.580463134765625,6.6345391365200275,4.061287900158763,0.11193469976596533
1772024888913459000,4.590458984375,6.376382121330499,4.140321104863286,0.10115312044546007
1772024888923456300,4.600456298828125,6.091753863322735,4.3979462051331994,-0.12191884509846568
1772024888933453000,4.610453125,5.913755841997266,4.857630585795641,-0.47626923943422733
1772024888943450000,4.6204501953125,5.751549848565459,5.445038844573498,-0.8014918120283633
1772024888953446100,4.630446044921875,5.736994084468484,5.986113222199678,-1.0532459013730286
1772024888963443000,4.64044287109375,5.874236901557445,6.533595128780603,-1.1489193482983857
1772024888973440300,4.650440185546875,5.9786792728066445,6.981992976275086,-1.1368608809098601
1772024888983437000,4.66043701171875,6.092673900777101,7.333816117155552,-1.2075943862374872
1772024888993434000,4.67043408203125,6.186580849486589,7.599810986363887,-1.1693088600501418
1772024889003430100,4.68043017578125,6.212358264821767,7.665995815411209,-1.0698717497423291
1772024889013427200,4.69042724609375,6.187202196255326,7.718395280212164,-1.0106569789033382
1772024889023424300,4.70042431640625,6.144258542063832,7.649504699337482,-1.011083899078518
1772024889033421000,4.710421142578125,5.845305406105518,7.221728784111142,-1.222216858895123
1772024889043418000,4.720418212890625,5.310154573309421,6.578147387212515,-1.3775263708114622
1772024889053414100,4.7304140625,4.464448429566621,5.656546336790919,-1.532032311259955
1772024889063411200,4.7404111328125,3.030610388946533,4.310318190562725,-1.6365400028303265
1772024889073408000,4.750407958984375,1.1703647988438606,2.1675778473496434,-1.5044326489336788
1772024889083405300,4.7604052734375,-0.7350760237693786,-1.986350927105546,-0.3459783603750169
1772024889093402000,4.770402099609375,-2.757327116295695,-7.8677634193807835,1.4322373274251818
1772024889103398100,4.780398193359375,-6.235140005472302,-12.414919942772388,2.246125898885727
1772024889113395200,4.790395263671875,-9.98043069589138,-12.540258971577883,1.0683384026952087
1772024889123392000,4.80039208984375,-12.823739228594302,-12.82012688331604,0.7060401911601424
1772024889133389300,4.810389404296875,-15.072909317481518,-13.869467593944071,1.313109720480442
1772024889143386000,4.82038623046875,-15.03412979723215,-10.556624317693709,0.33119492500200864
1772024889153382100,4.830382080078125,-13.352151693046093,-9.197173701798915,0.47880584523975844
1772024889163379200,4.840379150390625,-13.024630049729346,-9.856191737282275,2.3910342821665105
1772024889173376000,4.8503759765625,-12.594204496777056,-10.496282953977584,3.848914146500826
1772024889183373300,4.860373291015625,-11.160823552274703,-10.798425825887918,4.770611643034219
1772024889193370000,4.8703701171875,-9.340182242807746,-10.529364554846286,5.333236758211255
1772024889203366100,4.8803662109375,-7.825852615368365,-9.380466906923056,5.123744697469473
1772024889213363200,4.89036328125,-5.771144775873422,-8.160614146810769,4.914054483807087
1772024889223360000,4.900360107421875,-3.910869375154376,-6.841197435140609,4.256971800300478
1772024889233357300,4.910357421875,-2.4518986468434334,-4.835572483244538,3.024204613557458
1772024889243354000,4.92035400390625,-1.1335802518039941,-2.4347604650378227,1.8114705994091926
1772024889253350100,4.93035009765625,-0.12619184624254703,-0.102469025349617,0.4955342772006988
1772024889263347200,4.94034716796875,0.665516165331006,1.94367206133008,-0.8534349844291805
1772024889273344000,4.950343994140625,1.508717048254609,3.663700202447176,-1.6545245723322033
1772024889283341000,4.960341064453125,2.3681068494349717,4.870979896712303,-1.9124888414286076
1772024889293337000,4.970337158203125,3.2253964634656906,5.64311636185348,-2.1316949253246187
1772024889303334100,4.980334228515625,4.396169843110442,5.779662428849935,-1.9643876632310449
1772024889313331200,4.990331298828125,5.5057782676965,5.380681815475225,-1.5903781172446905
1772024889323328300,5.000328369140625,6.125194360631704,5.2774014737427235,-1.2990375021167098
1772024889333325000,5.010324951171875,6.425349858117103,5.507347124448418,-0.7856386285319924
1772024889343321000,5.020321044921875,6.758233905249834,5.486598350930214,-0.2959264816135168
1772024889353318100,5.030318115234375,6.7936267056703565,5.2762949738055465,0.09393851289153099
1772024889363315200,5.040315185546875,6.554982200202345,5.20952270025909,0.2649745862498879
1772024889373312300,5.050312255859375,6.41429654918313,5.423267157748342,0.19667466474473475
1772024889383309800,5.060309814453125,6.2371490072071545,5.6979591281533235,-0.15449863392487168
1772024889393305900,5.070305908203125,5.989647826066613,5.989251520225405,-0.6478101935748011
1772024889403303000,5.080302978515625,5.909164422553777,6.428156732231378,-1.0917588065754622
1772024889413299700,5.0902998046875,5.922063651615381,6.8983291891604654,-1.4722531114712356
1772024889423297000,5.100297119140625,5.940830895927548,7.093223400229215,-1.5868451208129524
1772024889433293800,5.1102939453125,6.138886201375723,7.159061023274064,-1.5500615966863929
1772024889443289900,5.120289794921875,6.456701274192333,7.431305600526929,-1.4286667754620312
1772024889453287000,5.130286865234375,6.712638859766721,7.4616171521604056,-1.412253400799632
1772024889463283700,5.14028369140625,6.368463018769026,7.230787119835615,-1.8571724662676452
1772024889473281000,5.150281005859375,5.995650865873694,7.2216148023426525,-2.30592161141783
1772024889483277800,5.16027783203125,6.016107378447056,7.543484703508019,-2.9485344555452464
1772024889493273900,5.17027392578125,6.353036901578307,7.444063375291228,-3.7541397673070427
1772024889503271000,5.18027099609375,6.028987902808189,6.2889277097612615,-3.6924358830660577
1772024889513267700,5.190267822265625,4.828460020890832,5.078628959935903,-3.426193761098385
1772024889523264800,5.2002646484375,3.6947640337526795,4.083503823620081,-3.620003099539876
1772024889533261800,5.21026171875,2.6833096939265726,1.8643430885493755,-2.9338062574908137
1772024889543257900,5.2202578125,0.5889432132601737,-1.7794675875574348,-1.1797756012678147
1772024889553255000,5.2302548828125,-1.9917396344065665,-7.020127768880128,1.0138570170536636
1772024889563252000,5.240251953125,-5.440307139876484,-12.037453242069482,2.968490909641981
1772024889573248800,5.250248779296875,-8.290664422047138,-12.865394596540927,2.133897842196375
1772024889583245800,5.260245849609375,-11.28123389250636,-11.893466795939206,1.8078968325756488
1772024889593241900,5.270241943359375,-13.778984774464368,-13.347863640463352,3.6352275566786525
1772024889603239000,5.280239013671875,-14.15360251547694,-10.182791005057096,2.2502229589410123
1772024889613236000,5.290236083984375,-12.008889995408058,-8.086153656849264,0.831539086702466
1772024889623232800,5.300232666015625,-10.641527291214466,-9.070703038614989,1.9667837645873427
1772024889633230000,5.31022998046875,-10.443135885679721,-9.304927974075078,3.6328707644194362
1772024889643225900,5.320225830078125,-10.152651887381076,-10.275134942233562,4.899754448036849
1772024889653223000,5.330222900390625,-8.886970857551693,-11.136645388829708,5.096998144841194
1772024889663219000,5.340218994140625,-7.982500390151142,-9.670270521742104,6.001815818244219
1772024889673215700,5.3502158203125,-6.506369268202781,-7.92731918567717,5.603252553498745
1772024889683212800,5.360212890625,-5.056579040691256,-6.10604776161313,4.375143421694636
1772024889693209900,5.3702099609375,-3.474886772596836,-3.3548265609771013,4.012233069610596
1772024889703206000,5.380205810546875,-2.339364739075303,-0.49296647253930564,3.308129399470985
1772024889713203000,5.390202880859375,1.2603460985422135,1.0058119500249623,1.5168343037366867
1772024889723199700,5.40019970703125,4.619795643144846,0.21900047832131384,-3.2039035935819147
1772024889733197000,5.410197021484375,4.5577100661098955,1.3892834441006183,-6.253776316881179
1772024889743193900,5.42019384765625,3.5663059961438175,3.6179350610941645,-5.036992296689749
1772024889753190000,5.43018994140625,0.6161772571444512,4.7909763856709,-2.2793055533014237
1772024889763187000,5.44018701171875,-1.6068161879569292,5.428026919496059,-1.395529645013809
1772024889773183700,5.450183837890625,0.17636019099056718,6.095260994660854,-0.375329177217558
1772024889783181000,5.46018115234375,3.684515611460805,5.693503902310133,1.6621113741993903
1772024889793177900,5.470177734375,5.6946787913084025,4.823994273653626,1.745204229558259
1772024889803174000,5.480173828125,5.7420577975988385,4.769058276112378,0.9871290229953825
1772024889813171000,5.4901708984375,5.25582910888195,4.907506669598818,-1.0549954484540969
1772024889823167700,5.500167724609375,4.4910997051268815,4.684233336263895,-4.483235547623038
1772024889833165000,5.5101650390625,5.517278735876083,3.852693665039539,-4.185528320072591
1772024889843161900,5.520161865234375,6.470779483905434,4.190198065449297,-1.6359917212978003
1772024889853157600,5.53015771484375,5.794693409243226,4.858861588895321,0.03965915262810886
1772024889863155000,5.540155029296875,4.899440852043032,5.326488452994823,-0.1739319409303367
1772024889873151700,5.55015185546875,5.293993712103367,5.273958639812469,-0.5955515254840255
1772024889883148800,5.560148681640625,6.065290219289064,5.157481547376513,-0.3994957232899964
1772024889893145900,5.570145751953125,6.399624465230107,5.307215597248077,-0.611367518775165
1772024889903142000,5.580141845703125,6.568821340462565,5.249881598654389,-1.1018982886001467
1772024889913139000,5.590138916015625,6.763315154036879,5.129066769275069,-1.6413728298142551
1772024889923135700,5.6001357421875,6.934391851666569,5.017456990614533,-2.169912720037997
1772024889933132800,5.6101328125,6.7343129314363,4.771427051070332,-2.503246264503896
1772024889943129900,5.6201298828125,6.187756907528638,4.535355610960722,-2.6372403089299796
1772024889953126000,5.6301259765625,5.070146378272772,4.650777641385793,-2.502394031588733
1772024889963123000,5.640123046875,3.464282376474142,4.5191608474850655,-2.5297785898596046
1772024889973120000,5.6501201171875,2.563224347865581,3.8009535409301516,-3.059844666737318
1772024889983116800,5.66011669921875,2.1194798791348934,2.242910443970561,-3.294615253381431
1772024889993113900,5.67011376953125,0.6905266879469156,0.10193594138622283,-2.791665439227223
1772024890003110000,5.68010986328125,-1.6613187625169754,-2.9432284580916166,-0.9386150213256478
1772024890013107000,5.69010693359375,-3.1410978855788705,-7.025559730800986,1.35925845432356
1772024890023104000,5.70010400390625,-4.729899108895659,-11.690737068939208,2.3347576836712656
1772024890033100800,5.710100830078125,-7.546901818475127,-12.760222741973399,2.6803984826549887
1772024890043096800,5.720096923828125,-9.216256003409624,-12.229666251230238,2.7187843274116514
1772024890053094000,5.730093994140625,-10.36210361611247,-13.362524618500471,4.154757041972875
1772024890063090700,5.740090576171875,-9.410257649552822,-11.007564250886439,3.942148310515284
1772024890073088000,5.750087890625,-8.19131206741333,-9.56097311167717,2.6812048306018115
1772024890083084800,5.760084716796875,-7.966860922470689,-9.961003526365756,2.643638777795434
1772024890093080800,5.770080810546875,-7.130298454648256,-9.608160394787788,3.862152982780337
1772024890103078000,5.780077880859375,-5.711395532831549,-10.093739095163345,5.760970587861538
1772024890113074700,5.79007470703125,-4.783130932867527,-10.135555791151523,6.896651026815175
1772024890123072000,5.800072021484375,-3.7029601996898647,-8.469603523615001,6.431973660171032
1772024890133068800,5.81006884765625,-1.934352444320917,-7.003596320796013,5.224279539886116
1772024890143065000,5.820065185546875,-0.2752425900250673,-5.260533341050148,3.6238843248873946
1772024890153062000,5.830061767578125,-0.10016951623558998,-3.022918665400147,2.087982332587242
1772024890163058700,5.84005859375,-0.3733323773771524,-1.2725877404779196,0.7100837674625218
1772024890173056000,5.850055908203125,-0.24578560939431188,0.8002356014221906,-0.7578197704970836
1772024890183052800,5.860052734375,-0.2663274621635675,2.8797002810329198,-1.7171113768875599
1772024890193048800,5.870048828125,-0.004684942945837974,4.514424466612935,-2.68031226567626
1772024890203046000,5.8800458984375,0.29612814166545864,5.513979694330692,-3.3630864398002625
1772024890213043000,5.89004296875,0.9517477668821811,5.741559784948826,-3.4343326438903805
1772024890223039700,5.900039794921875,2.141077962958813,5.510992202952504,-2.7213471636369824
1772024890233036800,5.910036865234375,3.7867140031754967,5.094451967489719,-1.522096754309535
1772024890243032800,5.92003271484375,5.1070694570004935,4.8673599526494735,-0.7327310680784285
1772024890253030000,5.93002978515625,5.645027748432756,4.837354105964303,-0.37232831490114326
1772024890263027000,5.94002685546875,5.713506241375208,4.836006783008576,-0.2630600578654557
1772024890273025800,5.95002587890625,5.341896450006962,4.681722230225801,-0.26477288966532797
1772024890283021800,5.960021728515625,4.9183337685614825,4.615692299479246,-0.03628587680272758
1772024890293019000,5.970018798828125,4.66572211253941,4.837127311471105,-0.04603734589051455
1772024890303016000,5.980015869140625,4.391424694409967,5.317359974643588,-0.4043152158683166
1772024890313012700,5.9900126953125,3.978544150498509,5.862451771217584,-0.836431315723434
1772024890323010000,6.000010009765625,4.128731204834581,6.274667713740468,-1.3011626775771379
1772024890333005800,6.010005859375,4.705686458659172,6.808098883137107,-1.731153200113028
1772024890343003000,6.0200029296875,4.997708334049582,7.247098787689208,-1.779308889864385
1772024890353000000,6.03,4.855107789319753,7.363626733529567,-1.467820974242687
1772024890362996700,6.039996826171875,4.621694170242548,7.385132462894916,-1.1063918006271123
1772024890372994000,6.049994140625,4.687742221167683,7.449719209095835,-0.8280225299488753
1772024890382989800,6.05998974609375,4.878148473167419,7.504189050430059,-0.5271104054098948
1772024890392987100,6.069987060546875,4.973527832517028,7.469875861939787,-0.41352874215450136
1772024890402984000,6.07998388671875,5.049737796494364,7.4205913142889735,-0.8316944233946502
1772024890412981000,6.08998095703125,4.957248897889256,7.214857144775986,-1.757376459519565
1772024890422978000,6.09997802734375,4.909103583401441,6.679176150625944,-2.5430191797047854
1772024890432974000,6.10997412109375,4.175504061925411,5.805022495555877,-2.69786195089221
1772024890442971000,6.119970947265625,2.1339041258066893,4.289368341514468,-2.351079142266512
1772024890452968000,6.129968017578125,0.025507950744032858,1.3602496573179959,-1.3104348021827636
1772024890462965000,6.139965087890625,-1.2194330733954906,-3.888486862954497,0.49605274811685085
1772024890472961800,6.1499619140625,-2.3726672892183065,-10.333400084197521,2.6269559385418892
1772024890482958000,6.1599580078125,-4.941774849903584,-14.458053079807758,3.4024127802774307
1772024890492955000,6.169954833984375,-8.8068931122303,-14.130566507804392,1.987941703428328
1772024890502952200,6.1799521484375,-11.424852089846134,-15.409950484293699,1.891869393378496
1772024890512949000,6.189948974609375,-11.917702242529392,-14.42947814270854,2.3075866220206023
1772024890522945800,6.19994580078125,-12.401141592788695,-11.042144565880298,0.5836588431164622
1772024890532942000,6.209942138671875,-11.84493160535097,-10.563513492685555,-0.29972806585356593
1772024890542939000,6.21993896484375,-10.376703803873061,-10.605546461772919,1.3744139378793536
1772024890552936200,6.229936279296875,-9.975934553515911,-10.791992577970028,3.9358854507282373
1772024890562933000,6.23993310546875,-9.521968550500274,-11.744990052652359,6.019540275505185
1772024890572930000,6.249929931640625,-8.341137887221574,-11.372259148299694,6.490673686420917
1772024890582926000,6.259926025390625,-6.826451116907596,-9.88184523397684,5.616065273320674
1772024890592923000,6.2699228515625,-4.9941357362598175,-7.985213156241178,4.452601632167399
1772024890602920000,6.279919921875,-3.5111937652528282,-5.687131444668769,2.8614643671184776
1772024890612917000,6.2899169921875,-2.2957418704479933,-3.247058844697475,1.4818867628656327
1772024890622914000,6.2999140625,-1.2169260590106248,-0.9685948567867279,0.7593352896265685
1772024890632910000,6.30991015625,-0.4868348379164934,1.286900927990675,-0.37637189120352266
1772024890642907000,6.319906982421875,-0.09278934285640716,3.313658684286475,-1.55698642751351
1772024890652904000,6.329904052734375,0.6514812102377414,4.902575058415532,-2.2999982127182186
1772024890662901000,6.33990087890625,1.6794985623300074,6.14480156289935,-2.483305884759128
1772024890672898000,6.34989794921875,2.6598557531028986,6.859636178150772,-2.2409872208230195
1772024890682894000,6.35989404296875,3.676665482482314,6.947910089409351,-1.6737885141201316
1772024890692891000,6.369890869140625,4.799788053157926,6.627097588342428,-0.8986519903801381
1772024890702888000,6.379887939453125,5.775286697983741,6.350573141813278,-0.11881503386422991
1772024890712885000,6.389885009765625,6.613734833422303,5.9671408107042305,0.6490256337791681
1772024890722882000,6.399882080078125,7.255114336362481,5.472063629621267,1.4037979994043708
1772024890732878000,6.409878173828125,7.519856575161218,5.233491604867577,1.486602685471624
1772024890742875100,6.419875244140625,7.0050254768162965,5.6138774078875775,0.9325399391956627
1772024890752872000,6.429871826171875,6.520091504085063,6.197998315557837,0.21059183867722747
1772024890762869000,6.439868896484375,5.981980067917704,6.585749678909778,-0.6151116737395524
1772024890772866000,6.449865966796875,5.327901826924085,6.962921196058392,-1.0455823810078204
1772024890782861800,6.45986181640625,5.318671641764045,7.203136896365881,-1.2451160884454846
1772024890792859100,6.469859130859375,5.408393998265266,7.4231865914791815,-1.1921105475101619
1772024890802856000,6.47985595703125,5.304605122488737,7.66547266831994,-0.9368474271312356
1772024890812853000,6.48985302734375,5.1024061413645745,7.78856304141581,-0.8896984302043914
1772024890822850000,6.49985009765625,4.903884971970319,7.8659297742128365,-1.1017305308178067
1772024890832845800,6.509845703125,4.9836248636394735,8.049990456578135,-1.1633223329864442
1772024890842843100,6.519843017578125,5.045252760034799,8.293529748350382,-1.0638039010707288
1772024890852840000,6.52983984375,4.828396308004856,8.230648637023569,-1.340336019449681
1772024890862837000,6.5398369140625,4.657555757218599,8.386647007986904,-1.9073324815787374
1772024890872834000,6.549833984375,4.594061482429504,8.709426425212621,-2.9207775568306444
1772024890882829800,6.559829833984375,4.280159199142456,8.993364947390555,-4.338547382964194
1772024890892827100,6.5698271484375,3.5302702216446398,8.506718910044432,-5.092331906595826
1772024890902824000,6.579823974609375,1.9871885469734667,6.087265904253721,-4.463205151507258
1772024890912821000,6.589821044921875,-1.4138503146022556,0.9732155023247003,-1.8529300063923
1772024890922818000,6.599818115234375,-4.496102627980709,-6.242030934029817,1.2399798946008085
1772024890932813800,6.609813720703125,-4.768422608557343,-12.231426831161976,2.490269586291909
1772024890942811100,6.61981103515625,-6.85859689823091,-13.739867400562762,1.2885247298002243
1772024890952808000,6.629807861328125,-10.226658203834294,-14.051410553503036,-1.1975329378850756
1772024890962805000,6.639804931640625,-11.062143397814035,-15.728312669599056,-1.5692024966165423
1772024890972802000,6.649802001953125,-12.109879011332987,-13.07594990260005,-1.3583297951713205
1772024890982798000,6.659798095703125,-10.907080261874198,-10.342974552750587,-1.5025406977072358
1772024890992795000,6.669794921875,-9.588932547226548,-11.125763929331303,-0.5802747536361217
1772024891002792000,6.6797919921875,-10.41436104209423,-12.748837424606084,1.5442515952333806
1772024891012789000,6.6897890625,-9.668278471142052,-13.831076196229457,3.5794168221294878
1772024891022785800,6.699785888671875,-7.939483670723438,-14.410575873839854,5.098616101431847
1772024891032782000,6.709781982421875,-6.9207795058995485,-13.71385383838415,5.132755686920881
1772024891042779000,6.71977880859375,-5.895620465847849,-11.60162670685649,3.999229211130738
1772024891052776200,6.729776123046875,-4.879179569780827,-9.172351979753374,2.9558102917671203
1772024891062773000,6.73977294921875,-3.7304520177274942,-6.683318072736263,2.3021077522180975
1772024891072769800,6.749769775390625,-2.2148796967506406,-4.25053562977314,1.5648467856250703
1772024891082766000,6.75976611328125,-0.7795061171263455,-1.9684025979608297,0.9054524641752243
1772024891092763000,6.769762939453125,0.5060322903394698,0.16517653367519378,0.5960993686251342
1772024891102760200,6.77976025390625,1.7530898682415483,2.1209891146540643,0.20165420672297477
1772024891112757000,6.789757080078125,2.7868630073815583,3.715058049240708,-0.3832717337198555
1772024891122754000,6.799754150390625,3.5466327429026365,4.926778940823674,-1.061789346377924
1772024891132750000,6.80975,4.027109151703119,5.749397054445743,-1.352608494915068
1772024891142747000,6.819746826171875,4.356440474790334,6.073041564068198,-1.231263065790385
1772024891152744000,6.829743896484375,4.598652317351102,6.166477388134599,-0.9000844343360513
1772024891162741000,6.839740966796875,5.188707291245461,5.751382675305009,-1.055552790075913
1772024891172738000,6.849738037109375,6.310774215388298,5.349495819094777,-1.5169504774622617
1772024891182734000,6.859734130859375,6.886295052495599,5.785768344509601,-1.0483774916190653
1772024891192731000,6.86973095703125,6.193618493038415,6.055324705591797,0.33365831944085655
1772024891202728000,6.87972802734375,5.5278778713017696,5.292051345863938,1.1330611233007162
1772024891212725000,6.88972509765625,5.842456446415186,4.805484803494811,1.0416349585562943
1772024891222722000,6.89972216796875,5.798832993265986,5.190869437715411,1.0195341859072446
1772024891232718000,6.909718017578125,4.95990905700922,5.669100113415718,0.6574982785701752
1772024891242715000,6.91971484375,5.100160408264398,5.805490113067626,0.1933974697049707
1772024891252712000,6.9297119140625,5.581341165941954,6.036916942241787,-0.07063289449736476
1772024891262709000,6.939708984375,5.403169541615247,6.345338163769245,-0.43333252644017334
1772024891272706000,6.9497060546875,4.959174312993884,6.720079823422432,-0.838714165963605
1772024891282702800,6.959702880859375,4.8073663794577115,7.176507248115539,-1.1664337430052458
1772024891292699100,6.96969921875,4.911669634497166,7.590936190512776,-1.3021867599278687
1772024891302696000,6.979696044921875,5.127160058870912,7.980929195311665,-1.2851862330272794
1772024891312693000,6.98969287109375,5.213467053970694,8.22587017057538,-1.7840915940962732
1772024891322690000,6.99968994140625,4.88806897867918,8.37039028519094,-2.6078461644023654
1772024891332686800,7.009686767578125,4.49080335252881,8.403899756082891,-2.8164626113533973
1772024891342683100,7.01968310546875,4.109546611893177,8.017911310750245,-2.343640808959305
1772024891352680000,7.029679931640625,3.41001419519186,7.051976613083482,-2.0642662336960433
1772024891362677000,7.039677001953125,1.4791460858553647,5.699488237416744,-2.090209799378365
1772024891372674000,7.049674072265625,-0.8212900798887014,3.731946055677533,-1.3628357282884418
1772024891382670600,7.059670654296875,-2.3233190286815164,0.26331425182223317,-0.24417174445688722
1772024891392667000,7.0696669921875,-2.2229425916969774,-5.290904513916373,1.0951564131245017
1772024891402663700,7.07966357421875,-3.126473732420802,-11.282718578106165,1.5738722419932483
1772024891412660700,7.08966064453125,-6.932405061763524,-13.585462436270713,0.7346503457032144
1772024891422657800,7.09965771484375,-11.034350551003216,-13.90975518066883,1.0831123395875095
1772024891432654600,7.109654541015625,-13.202532793986796,-15.742661512947082,3.2674154040277004
1772024891442651000,7.11965087890625,-12.459066543012856,-14.970636691486835,4.27402376512736
1772024891452647700,7.129647705078125,-9.714634564125538,-12.610149084883927,3.9731835002481937
1772024891462644700,7.139644775390625,-8.235806458178162,-10.758239945971965,3.945668301334977
1772024891472641800,7.149641845703125,-8.596154266297816,-10.625859766483305,4.240681467495858
1772024891482638800,7.159638916015625,-8.65543647634983,-12.02238543679714,4.637154189702868
1772024891492635000,7.169634765625,-8.52233148971796,-11.099755043327807,4.8869998881429435
1772024891502631700,7.179631591796875,-7.6252166457772255,-8.444909811863303,4.508853973004221
1772024891512628700,7.189628662109375,-5.669802124205232,-6.7834139392137525,3.9451936695605516
1772024891522625800,7.199625732421875,-3.8460938283830877,-5.23719805817008,3.364565280181169
1772024891532622800,7.209622802734375,-2.8156378509670494,-3.1356448808699846,2.6460323949337003
1772024891542618600,7.21961865234375,-2.406941314741969,-1.2053127781063318,1.6039473545223473
1772024891552615700,7.22961572265625,-2.3320167144000528,0.5427139615267514,0.4518422888599336
1772024891562612700,7.23961279296875,-1.732249324786663,2.257222462439537,-0.40335985137224195
1772024891572609500,7.249609619140625,-0.6408510951519012,3.781173904705047,-0.9795698397874831
1772024891582606800,7.25960693359375,0.44804596531689167,4.973600313231349,-1.3281501993544398
1772024891592602600,7.2696025390625,1.4708569809377192,5.8263546219199895,-1.5317540788404642
1772024891602599700,7.279599609375,2.8061797022700308,5.931628183296323,-1.5251668094046413
1772024891612596700,7.2895966796875,4.2947173013269895,5.27586008951962,-1.219860505027324
1772024891622593500,7.299593505859375,5.460504124730825,4.600641445341706,-0.9124201112307607
1772024891632590800,7.3095908203125,6.244391233420371,4.270675331482291,-0.5290899253219365
1772024891642586600,7.319586669921875,6.364759488075971,4.097375112584233,-0.05419993835166096
1772024891652584000,7.329583984375,6.236758546584844,3.7303660930097102,0.10158815086185932
1772024891662580700,7.339580810546875,5.522404992848634,3.438041435280442,0.04133768029958009
1772024891672577500,7.34957763671875,4.757696631881594,3.4713732115179297,-0.06779942463710904
1772024891682574800,7.359574951171875,5.014725519824028,3.84761884599328,0.22752441490814088
1772024891692570600,7.369570556640625,5.467565149158239,4.289501027983427,0.4281768972426653
1772024891702568000,7.37956787109375,5.6654228862077,4.6848219498068095,0.1484979322053492
1772024891712564700,7.389564697265625,5.746939724421501,5.030027718374133,-0.21649273328408597
1772024891722561800,7.399561767578125,5.794876364594698,5.254426256346703,-0.6894270561419427
1772024891732558800,7.409558837890625,5.300735587579012,5.230134111133218,-1.4685453429944813
1772024891742554600,7.4195546875,4.498552943742275,4.709333290728926,-1.3189828502975403
1772024891752551700,7.4295517578125,4.922929864180087,4.242149494221806,-1.3013989705510436
1772024891762548700,7.439548828125,5.56685729803741,4.467358179533481,-1.7691442003332079
1772024891772545800,7.4495458984375,5.644895646485686,4.557990052095056,-2.346054592102766
1772024891782542600,7.45954248046875,4.675145189923048,4.523557036617398,-3.0735180950418113
1772024891792540000,7.469539794921875,2.828165908628702,4.713865673461556,-3.452049502366781
1772024891802535700,7.47953564453125,1.6497101577877997,4.839604515239596,-3.36369638839215
1772024891812532700,7.48953271484375,1.7789187215030193,4.22080684646368,-3.1568402291119098
1772024891822529800,7.49952978515625,2.2906869251459834,3.1265397833943367,-2.252615845426917
1772024891832526600,7.509526611328125,2.3355980800181624,1.4129390449762345,-1.5173849233567713
1772024891842524000,7.51952392578125,0.6542968521803617,-1.2902677740752697,-0.6000795243024826
1772024891852519700,7.529519775390625,-2.418656886976957,-5.665629222434759,0.6538928014241159
1772024891862516700,7.539516845703125,-5.242892470419407,-10.411548322761059,2.707619667057693
1772024891872513800,7.549513671875,-8.02642545659542,-12.204686123752593,3.7651346240520476
1772024891882510600,7.559510498046875,-10.878124216502904,-11.340119796717167,2.1997541699416936
1772024891892508000,7.5695078125,-10.870684421890973,-13.742092090874909,3.202575852109492
1772024891902503700,7.579503662109375,-12.020828270483015,-12.269909414291382,4.605312944284081
1772024891912500700,7.589500732421875,-11.6358469563663,-8.41910433947742,2.417109365274012
1772024891922497800,7.599497802734375,-8.505144792595505,-8.44038385887146,1.7963721067376435
1772024891932494600,7.60949462890625,-6.218056184202433,-8.683595233863592,2.0352024901665744
1772024891942491600,7.61949169921875,-4.682833990859985,-8.192153194412588,2.7535733167201277
1772024891952487700,7.62948779296875,-3.334658217695355,-8.138230465567112,3.52425519913882
1772024891962484700,7.639484619140625,-2.238610116428137,-7.2512372026681895,3.9054444274961946
1772024891972481800,7.649481689453125,-1.0405167681813239,-5.677340118494629,4.352851218126714
1772024891982478600,7.659478515625,0.4027572093039751,-4.451621681219339,4.0973429638803
1772024891992475600,7.6694755859375,1.3231331018447876,-3.705280751591921,0.6023400165803731
1772024892002471700,7.6794716796875,0.45269349886178967,-5.620861859947443,-5.712507877987623
1772024892012468700,7.68946875,-2.654039760300517,-5.456549834147095,-5.815446274414658
1772024892022465800,7.6994658203125,-3.7005239124536513,0.2833592609852552,-4.676648580223322
1772024892032462800,7.709462890625,-1.8811334798306225,3.6662855427652596,-1.2273270415157078
1772024892042459600,7.719459716796875,-1.6422855607450006,3.7029666294306516,0.5726441126272082
1772024892052455700,7.72945556640625,-1.135645367640257,4.530375484460592,-0.31172990768402814
1772024892062452700,7.73945263671875,0.8950520661920308,4.8338913982898,-1.206130085838586
1772024892072449800,7.74944970703125,2.916968227675557,4.463231454992294,-1.9931853031702338
1772024892082446800,7.75944677734375,4.537960825023055,4.158638267320394,-2.896803099264204
1772024892092443600,7.769443603515625,5.929381281152367,4.004397553679347,-3.099852267476916
1772024892102439700,7.779439697265625,6.64773880983293,3.986824487587809,-2.887687772655487
1772024892112436700,7.789436767578125,6.7518444964736695,4.048482779121398,-2.2226699122354385
1772024892122433500,7.79943359375,6.341074076583981,4.301370913997292,-1.725092292638868
1772024892132430800,7.809430908203125,5.256330628663301,4.928339029747248,-1.3864226478420196
1772024892142427600,7.819427734375,4.4483127028018234,5.429615065470338,-0.9322973626114428
1772024892152424700,7.8294248046875,3.9083781428605318,5.498153764167427,-0.5878447504989802
1772024892162420700,7.839420654296875,3.545685232919454,5.725341056075692,-0.21066811878383157
1772024892172417500,7.84941748046875,3.735404087176919,5.960414132797718,0.12009484454169869
1772024892182414800,7.859414794921875,4.211833266413212,5.920625143244862,0.09343421663120388
1772024892192411600,7.86941162109375,4.386397221636772,6.251891233786941,-0.23314488513842224
1772024892202408700,7.87940869140625,4.158236700782179,7.128513909319043,-0.1315693745624274
1772024892212404700,7.88940478515625,4.269751202374697,8.299794653964042,0.10877988899685442
1772024892222401500,7.899401611328125,4.315539140081405,9.582260814377666,0.2571732648491859
1772024892232398800,7.90939892578125,4.636214863026142,10.46715973534584,0.032154403021186585
1772024892242395600,7.919395751953125,5.263899602612852,10.556348423361777,-0.5705183161122724
1772024892252392700,7.929392822265625,6.653714961633086,10.050493827676773,-1.1924003973022104
1772024892262388700,7.939388671875,8.2862968744874,9.289596549430488,-1.2611436786606907
1772024892272385800,7.9493857421875,8.620072317501903,8.053772897726297,-0.7577517467621714
1772024892282382800,7.9593828125,7.0898775969326495,5.802804819506407,-1.309387192825973
1772024892292379600,7.969379638671875,3.8611470206081866,2.7114024004667994,-2.5537664914295077
1772024892302376700,7.979376708984375,-1.7616431770533323,-0.5345668954282998,-2.4362866516917943
1772024892312373800,7.989373779296875,-4.338494483733177,-5.423523762857914,-0.9064656598057598
1772024892322369800,7.999369873046875,-2.771115403151512,-11.35514551641345,0.040649113513529296
1772024892332366600,8.00936669921875,-4.509642493033409,-11.948354570424556,0.7033353161156177
1772024892342364000,8.019364013671876,-9.38370398914814,-8.22652132796049,2.129612858353555
1772024892352360700,8.029360595703125,-12.803962514978647,-9.373878176182508,3.415728481185436
1772024892362357800,8.039357666015626,-15.237206730234622,-11.170576884526014,3.3431180030047893
1772024892372353800,8.049353759765625,-14.65499487105608,-10.215891310626267,2.4772858938172457
1772024892382350600,8.0593505859375,-11.789170555162428,-11.649287452697752,1.85753180109933
1772024892392350700,8.069350830078125,-9.022436143574119,-12.904856838357448,1.7806565050810574
1772024892402347800,8.07934765625,-6.259271991688013,-12.597011370891332,1.56618519462198
1772024892412344600,8.089344482421875,-3.5154788952261207,-13.405117559558152,0.9255512493520974
1772024892422340600,8.099340576171874,-2.1398323468118905,-14.147267467236517,0.25688392651379105
1772024892432337700,8.109337646484375,-1.7782932830810545,-13.03186175454855,-0.04269903178066015
1772024892442334700,8.119334716796875,-2.023237180954218,-10.379747993874549,0.43895928028076886
1772024892452331800,8.129331787109376,-2.1543308277636766,-7.933613901907205,1.4265416000016033
1772024892462328600,8.13932861328125,-2.6537907539755103,-5.425909196689725,2.236702675371617
1772024892472324900,8.149324951171875,-2.983258270663023,-3.585350888353586,2.3729651031211016
1772024892482321700,8.15932177734375,-2.7686300160765644,-1.8742361215323209,1.8751544054210185
1772024892492318700,8.169318603515626,-1.8721447022110222,0.02893032640814781,1.1492587363205848
1772024892502315800,8.179315673828125,-0.684785513946414,1.983758572524786,0.5023492179125547
1772024892512312600,8.1893125,0.1774316196143627,3.5932144613355397,-0.06635419426485896
1772024892522308900,8.199308837890625,1.3861165045022963,5.0277860769271845,-0.19345672561153768
1772024892532305700,8.2093056640625,2.653974293848872,5.323314499133825,-1.2702423463955521
1772024892542302700,8.219302734375,4.2002550568223,5.149495809319615,-1.8428806138038634
1772024892552299800,8.2292998046875,5.471427669805288,5.402480390307307,-1.9360865746371447
1772024892562296600,8.239296630859375,6.393627855163812,5.78953792617619,-1.9773183103442191
1772024892572293600,8.249293701171876,6.53498044565916,6.0957923250585795,-1.5779495744347571
1772024892582289700,8.25928955078125,5.949477728241682,6.075935531944036,-1.0163609626986085
1772024892592286700,8.26928662109375,4.917779057288169,6.115792326036095,-0.7919045570589601
1772024892602283800,8.27928369140625,4.374976832956075,6.401047191509604,-0.6381694548524915
1772024892612280800,8.28928076171875,4.206116642332077,6.757356537893414,-0.535133589400351
1772024892622277600,8.299277587890625,3.740972827219963,7.119857724654674,-0.6384052363697439
1772024892632273700,8.309273681640626,3.457710012346506,7.43253426553905,-0.6875074131909757
1772024892642270700,8.319270751953125,3.504637183216214,7.746635870790481,-0.7135110384974628
1772024892652267800,8.329267822265624,3.748496208462119,8.209313588050007,-0.790849202787131
1772024892662264800,8.339264892578125,4.260122957807779,8.54083160752654,-0.7351632636614144
1772024892672261600,8.34926171875,4.552537047386169,8.73723505411446,-0.6040922670751809
1772024892682257700,8.359257568359375,4.753931726390123,8.88063697835505,-0.29278284982554614
1772024892692254700,8.369254638671874,4.914391168415546,8.80372149645686,0.0775886319193989
1772024892702251800,8.379251708984375,4.850055182105303,8.803132298392057,0.25797683631703255
1772024892712248800,8.389248779296874,4.2905175115495915,8.823786963886022,0.6455707440849393
1772024892722245600,8.39924560546875,4.02848686979711,8.213084338760375,0.9666866120126097
1772024892732243000,8.409242919921875,3.883460559225082,6.974607542198896,0.6205404207900166
1772024892742238700,8.41923876953125,4.033290470686555,5.504096013697981,-0.25618454607278107
1772024892752235800,8.42923583984375,4.151465599212051,4.160644930967688,-1.1469534550528973
1772024892762232800,8.43923291015625,3.6391403462082144,2.3627543824911115,-1.9294513744063675
1772024892772229600,8.449229736328125,2.5001836620628834,-0.7810632834404706,-1.9474723303958772
1772024892782226700,8.459226806640626,0.11926000115275383,-6.598119331139325,-1.5695000182583927
1772024892792222700,8.46922265625,-2.8406945508122443,-12.010355976307391,-0.397902755010128
1772024892802219500,8.479219482421875,-7.753693972608446,-11.13175410965681,2.160291635864228
1772024892812216800,8.489216796875,-12.370237920480966,-9.516607900249957,4.104245582875609
1772024892822213600,8.499213623046876,-14.306635022372006,-12.641451401120424,3.2843156854242084
1772024892832210700,8.509210693359375,-14.362328268021344,-12.889852161449193,1.0147848724883048
1772024892842206700,8.519206787109376,-12.833389684993028,-11.123554436588286,0.15736885559894143
1772024892852203800,8.529203857421875,-10.488695859849452,-11.640613147854804,0.38665341204740106
1772024892862200800,8.539200927734376,-8.106231983759999,-11.846257300996779,0.6136110599182546
1772024892872197600,8.54919775390625,-5.498361853960156,-12.421134579503535,0.6303676950603723
1772024892882194700,8.559194580078126,-3.660864686760306,-13.851945965778826,0.42620472038686275
1772024892892191700,8.569191650390625,-2.927535798919201,-13.551634985470772,0.4550473685115575
1772024892902187800,8.579187744140626,-3.1182571082174775,-11.130372299909592,0.7606684379264712
1772024892912184800,8.589184814453125,-2.9976246496677397,-8.397851708090306,1.0469305076811461
1772024892922182000,8.599181884765626,-2.37622293587327,-5.6975750972718,1.1938202740374952
1772024892932178700,8.6091787109375,-1.914302174460888,-2.6682594243109223,1.1206737892840057
1772024892942175700,8.61917578125,-1.4450129301071166,0.06286532923579216,0.9730237791448831
1772024892952171800,8.629171875,-0.9784674315035342,2.061896289694309,0.6895953984461725
1772024892962168600,8.63916845703125,-0.39399230356812476,3.5357162120908496,0.26572701205238697
1772024892972166000,8.649165771484375,0.5181213720619678,4.37664798103869,-0.10563501509986817
1772024892982162700,8.65916259765625,1.6798545361608266,4.956685418787599,-0.33095848589763044
1772024892992159700,8.66915966796875,2.9474656572699547,5.475841394594311,-0.512077927179262
1772024893002155800,8.67915576171875,4.291365652811527,5.647223797172308,-0.7131419129241258
1772024893012152600,8.689152587890625,5.632144885984062,5.75380434949398,-1.0079561955120413
1772024893022150000,8.69914990234375,6.506282758963108,6.041684302774072,-1.3588719392240047
1772024893032146700,8.709146728515625,6.774230515804886,6.235021347528695,-1.4923770310893654
1772024893042143700,8.719143798828124,6.586136632400751,6.061110303255916,-1.4160552773006259
1772024893052140800,8.729140869140625,5.983725450280309,5.829699840694666,-1.3724752249017358
1772024893062136600,8.739136474609374,5.278419710874557,5.890463229215145,-1.203340820446238
1772024893072134000,8.7491337890625,4.520882848972082,6.18708236926794,-1.0056913923852144
1772024893082130700,8.759130615234374,3.7290824829399583,6.576835720092058,-0.7456948868088423
1772024893092127700,8.769127685546875,3.474834750148654,6.956629402437806,-0.5273728922709823
1772024893102124800,8.779124755859375,3.56988210106492,7.318380647614598,-0.45422458088658746
1772024893112120600,8.78912060546875,3.7051825519144534,7.584458518931269,-0.47803303423635657
1772024893122117600,8.79911767578125,4.061343429738283,7.844911536103487,-0.6612219022031873
1772024893132114700,8.80911474609375,4.541391383993625,8.06891143014729,-0.8610814805943519
1772024893142111700,8.81911181640625,4.888248426899314,8.291557571494579,-0.8786908601082861
1772024893152108500,8.829108642578126,4.958906017446518,8.52861743811965,-0.9025579117774963
1772024893162104800,8.839104736328125,4.661297281834483,8.5538296207875,-0.9418439202442764
1772024893172101600,8.8491015625,4.201067542248964,8.17327605998516,-1.0635032376237212
1772024893182098700,8.8590986328125,3.880740194350481,7.393874572277069,-1.1656535524129867
1772024893192095700,8.869095703125,3.5606337957262992,6.1752516462206835,-1.1262999586027116
1772024893202092500,8.879092529296875,2.8004326830506323,4.564091876101494,-0.8623015969738363
1772024893212089900,8.88908984375,0.8949971211344003,2.861077998149395,-0.7309279641792178
1772024893222085600,8.899085693359375,-1.3839327307224274,0.7335802322536706,-0.7114602434474975
1772024893232083000,8.9090830078125,-2.43886848487854,-2.638770879498124,-0.2783237510360777
1772024893242079700,8.919079833984375,-3.122743898242712,-7.79885822545886,0.4544363970063626
1772024893252076500,8.92907666015625,-4.800578326752782,-11.963180383634567,1.6738398059159516
1772024893262073900,8.939073974609375,-9.217743027096986,-10.406441939532757,3.6474233136460184
1772024893272069600,8.949069580078126,-13.97502990913391,-9.052209935069083,4.259215779834985
1772024893282067000,8.95906689453125,-14.738314959299563,-12.117669519078731,2.6761671286955475
1772024893292063700,8.969063720703126,-13.574793742740153,-11.24374850372076,0.8357231674540787
1772024893302060800,8.979060791015625,-11.086575243759155,-9.419468545490503,0.41599553412683304
1772024893312057900,8.989057861328124,-8.580100957119464,-10.85533955324292,0.45844102953784166
1772024893322054700,8.9990546875,-7.315010294398665,-11.09212352553606,0.9692967214457691
1772024893332050700,9.00905078125,-5.847288688877224,-11.375625994384288,1.3298929513685405
1772024893342047700,9.0190478515625,-4.1244449058175086,-12.919051367926597,0.7786527151674032
1772024893352044800,9.029044921875,-3.0854496481150386,-13.280049748909473,0.13694164218530058
1772024893362041600,9.03904150390625,-2.909741199031472,-11.340940465450286,0.3801494369808584
1772024893372039000,9.049038818359374,-2.9893425590127705,-8.70019799361825,0.9960757150389253
1772024893382034700,9.05903466796875,-3.0692823571681975,-6.14295739633739,1.5000219928845762
1772024893392028200,9.069028076171875,-2.9016800576508044,-3.3426474628835914,1.7397057782724499
1772024893402025000,9.07902490234375,-2.670308173534274,-0.8566396256893872,1.6316368870891629
1772024893412022000,9.08902197265625,-2.1872820802509785,1.0803104339092968,1.290875092318654
1772024893422019000,9.09901904296875,-1.1475555856645108,2.7727520644426344,0.7278192575741559
1772024893432014800,9.109014892578125,-0.015559972703456878,4.211509441286325,-0.03976845822148025
1772024893442012200,9.11901220703125,1.2653256405204534,5.2842894796907895,-0.6649018328249454
1772024893452009000,9.129009033203126,2.9231214896082878,5.7968812746763225,-1.0929871793266386
1772024893462006000,9.139006103515625,4.758745848673581,5.868847609734535,-1.3887071055173874
1772024893472003000,9.149003173828126,6.372270594358444,5.821137179532647,-1.5808677999690175
1772024893482000100,9.159000244140625,7.514760713326931,6.07965835185945,-1.6887635265424847
1772024893491996200,9.16899609375,8.092080708810686,6.382395098009705,-1.58013115625754
1772024893501993000,9.178992919921875,8.138060954219103,6.262609611678123,-1.2298333252482117
1772024893511990000,9.188989990234376,7.6387442358702415,6.146508366817236,-1.0605801167186348
1772024893521987000,9.198987060546875,6.721130793780088,6.487028607916832,-0.8477753512322902
1772024893531984100,9.208984130859376,5.327374003657698,6.815842629131675,-0.7204203064292669
1772024893541981000,9.21898095703125,3.873212721455097,7.033060315689444,-0.6840670634787529
1772024893551977000,9.22897705078125,3.3384020803987977,7.261444123905897,-0.6549511513706296
1772024893561974000,9.23897412109375,3.463517821842432,7.506831089371443,-0.6352527636881917
1772024893571970800,9.248970703125,3.7959184693723915,7.779269143369794,-0.6776642106991261
1772024893581968100,9.258968017578125,4.090060405656695,8.11835204514265,-0.6580899608530104
1772024893591965000,9.26896484375,4.353902480745315,8.36563286153078,-0.6596592559963464
1772024893601961200,9.278961181640625,4.73032697891891,8.564364458805322,-0.609201061456278
1772024893611958000,9.2889580078125,5.0488089912116525,8.635290344899893,-0.49125294661968943
1772024893621954800,9.298954833984375,5.136408948731422,8.601757493132352,-0.4416418704282492
1772024893631952100,9.3089521484375,5.011638659724593,8.406580957990885,-0.42788302886262536
1772024893641949000,9.318948974609375,4.959538470131158,7.933912008070945,-0.5035911077324301
1772024893651946000,9.328946044921874,4.815471944501995,7.150534017947316,-0.565383035583049
1772024893661940200,9.338940185546875,4.089543103784322,6.056601301398873,-0.8574952926706522
1772024893671937000,9.34893701171875,3.3377930085897445,4.59888203445375,-1.2200278974834828
1772024893681934000,9.35893408203125,2.5380752935618163,2.832743299546838,-1.3323425364777446
1772024893691931100,9.36893115234375,0.9362760569840669,0.8972592208474874,-1.225600802244991
1772024893701928200,9.37892822265625,-0.5323942275643349,-2.557092713242769,-0.7042872830782085
1772024893711925000,9.388925048828124,-1.3837749098122119,-8.2085262370646,0.23444120855927467
1772024893721921000,9.398921142578125,-3.136564918324351,-12.731159144574404,1.7210305961579084
1772024893731918000,9.40891796875,-8.001232563149928,-11.2760117739439,3.736306004452705
1772024893741915000,9.418914794921875,-12.800496300172805,-10.05544122095108,4.09476025391072
1772024893751912200,9.428912109375,-14.142915117245911,-13.996560188418625,2.4886294178694484
1772024893761909000,9.438908935546875,-14.191963518053292,-11.930094106590747,0.8717123993977903
1772024893771905000,9.448905029296874,-12.84647713010311,-8.881243712076545,0.5770885978806763
1772024893781902000,9.458902099609375,-10.659383265900612,-9.55834042508602,0.873307559634745
1772024893791899000,9.46889892578125,-8.330138938823342,-9.678609311020374,1.1124333458136766
1772024893801896200,9.478896240234375,-5.936416586616635,-11.175569870507717,1.1983517069220542
1772024893811893000,9.48889306640625,-4.440750158593058,-12.331183674943446,0.9303957667738199
1772024893821890000,9.49889013671875,-4.050816190505028,-12.818251737093926,0.6722044109232723
1772024893831886000,9.508885986328124,-4.451238234859705,-12.672995709419249,0.4163651711568236
1772024893841883000,9.5188828125,-5.777319665116071,-10.315132606101036,0.31445684842988847
1772024893851880200,9.528880126953124,-6.788944685333967,-7.096184588122368,0.5627997410915792
1772024893861877000,9.538876953125,-6.81726827802062,-4.009139195248484,1.0649915764853357
1772024893871874000,9.5488740234375,-6.15597411429882,-1.3033482049226761,1.4499885265626011
1772024893881870000,9.5588701171875,-4.70511128911972,0.6904436858385801,1.3514302449159323
1772024893891867000,9.568866943359374,-2.6969816609263417,2.324247249442339,0.9337167278900742
1772024893901864000,9.578864013671875,-0.43524025975763797,3.9482688392221927,0.3264615398045629
1772024893911861000,9.588861083984375,1.4713736982882022,5.581401956218481,-0.3275033039424568
1772024893921858000,9.598858154296876,3.096990448305011,6.712763947451114,-0.9768222946450114
1772024893931854800,9.608854736328125,4.854502224642038,6.749300657209754,-1.5374746484443544
1772024893941851100,9.61885107421875,6.524216475060582,6.373997856542467,-2.0393023267008363
1772024893951848000,9.628847900390625,7.568654216077923,6.447011654826999,-2.3166192387819287
1772024893961845000,9.638844970703126,8.061416690477728,6.770047677162289,-2.31149795024544
1772024893971842000,9.648842041015625,8.265323060041666,6.730635119706392,-2.081394332499057
1772024893981838800,9.6588388671875,7.962536045008897,6.605177432957292,-1.7623301364041863
1772024893991836200,9.668836181640625,7.226440030542015,6.7074541506052014,-1.316118985299021
1772024894001832000,9.67883203125,6.334900940907001,6.90885993552506,-0.9031764820672571
1772024894011829200,9.688829345703125,5.430262131202221,7.242953358447552,-0.6176115277312696
1772024894021826000,9.698825927734376,5.033751707333326,7.64128456800282,-0.502389549922943
1772024894031822800,9.70882275390625,5.045878198456764,7.943844788542389,-0.5381181581690907
1772024894041820200,9.718820068359374,5.083312733837962,8.16742031969428,-0.6280857216030359
1772024894051816000,9.72881591796875,5.095085589218139,8.350361642640829,-0.6175624278925359
1772024894061813000,9.73881298828125,5.209160296687483,8.581623052120209,-0.6555338466294109
1772024894071810000,9.74881005859375,5.357143118977547,8.742636620897054,-0.6941849181935191
1772024894081807000,9.75880712890625,5.4324716239452355,8.726897784495353,-0.6646428896278143
1772024894091804000,9.768803955078125,5.3390404760539525,8.5172397195369,-0.5967617780566216
1772024894101801000,9.778801025390624,5.229060344421863,8.18580937834382,-0.5090165668472647
1772024894111797000,9.788796875,5.139128144562244,7.489709858700633,-0.5069672331020235
1772024894121794000,9.7987939453125,4.973756380575895,6.234913210979104,-0.7625192534249275
1772024894131791000,9.808791015625,4.624381801891326,4.466687732926011,-1.2337515216052533
1772024894141788000,9.818787841796874,3.8555437937736508,2.284292840194702,-1.6610018055222928
1772024894151785200,9.82878515625,2.3415309771984814,-0.39003567489683627,-1.9774723318621514
1772024894161781000,9.838781005859374,0.6648901423871517,-3.5226685144692658,-2.0703766794003546
1772024894171778000,9.848778076171875,-0.9849719910919665,-7.56959237371087,-1.4692854938372968
1772024894181775000,9.858775146484374,-2.7446073354542255,-12.343925083094835,0.2467261051148176
1772024894191772000,9.86877197265625,-6.243438462740182,-14.426014265990256,2.8975448575422167
1772024894201769200,9.878769287109375,-12.624649903923272,-11.446673461031914,5.169226345705986
1772024894211766000,9.88876611328125,-16.761728665864467,-11.868669039291143,5.0894414458513255
1772024894221762000,9.898761962890624,-17.707765653884408,-14.67019244018793,2.917949347667396
1772024894231759000,9.908759033203125,-16.92998679894209,-11.51764260174632,1.9543768490873277
1772024894241756000,9.918755859375,-14.118770856070517,-9.726199914234876,2.3236232723250985
1772024894251753200,9.928753173828126,-11.4012654625535,-9.429535765996574,2.3955355391085145
1772024894261750000,9.93875,-8.69430425940454,-9.581776830253004,2.05995567702055
1772024894271746000,9.94874609375,-5.67506399025619,-11.023234113705158,1.3145495440252124
1772024894281744100,9.958744140625,-3.4255630619794126,-11.827101349627972,0.6321148309886455
1772024894291741200,9.9687412109375,-2.336857724690437,-11.478305447614192,0.2841860671982169
1772024894301738000,9.978738037109375,-1.7645359758853911,-11.109853243494033,0.2873258265286684
1772024894311735000,9.988735107421874,-1.9382213947087525,-9.881141469621658,0.6629356473185122
1772024894321732000,9.998732177734375,-2.047284411495924,-7.278211718833446,1.3209220016665757
1772024894331729000,10.00872900390625,-1.7422002254366873,-4.257456953468918,1.9099175296358764
1772024894341725200,10.01872509765625,-1.4720762935996055,-1.4904501546800135,1.7569927208989857
1772024894351722000,10.028721923828124,-0.9088754243612289,0.9483043484300374,1.1513565853826702
1772024894361719000,10.038718994140625,-0.2553705993413925,2.9174931283324956,0.42531770841926336
1772024894371716000,10.048716064453124,0.32419688280820846,4.611472051435709,-0.25834932289123536
1772024894381713000,10.058712890625,1.3732365646630524,5.946841534519195,-0.8430582595825195
1772024894391713800,10.0687138671875,2.9048242008954284,6.8192825404524795,-1.3757846417106687
1772024894401709800,10.078709716796874,4.7453404236555095,7.031062419870495,-1.7433013185463844
1772024894411707000,10.088706787109375,6.747023944449424,6.957627181303501,-1.923748048198223
1772024894421704000,10.098703857421874,8.001673292654752,7.185893500620126,-1.8503360443763435
1772024894431701000,10.108700927734375,8.552373576760292,7.2631883372247215,-1.5084354548342525
1772024894441697800,10.11869775390625,8.788477750095725,6.882458835333585,-1.1885740439470858
1772024894451693800,10.12869384765625,8.349299566367268,6.6004468973040575,-0.9458895423732697
1772024894461691000,10.13869091796875,7.318538468524813,6.705319476664066,-0.7592566714324057
1772024894471687700,10.148687744140625,5.660179724857211,7.058729594475031,-0.6646586717188357
1772024894481685000,10.15868505859375,4.064827180200815,7.381204475796222,-0.6030743222042918
1772024894491681800,10.168681884765626,3.4659622923851012,7.72409027698338,-0.5411876287423074
1772024894501678800,10.178678955078125,3.3608255091309545,7.9666195149302474,-0.5252184907160699
1772024894511675000,10.1886748046875,3.5348306614279745,8.103927798470854,-0.5634270792096853
1772024894521671700,10.198671630859375,3.8644273574531076,8.403535014423728,-0.5937964985102415
1772024894531669000,10.2086689453125,4.251316551017761,8.709097339388727,-0.5810802248001098
1772024894541665800,10.218665771484375,4.811648586821556,8.985726999858022,-0.6751903679315
1772024894551662800,10.228662841796876,5.268309820270538,9.264999868312477,-0.8570235835056752
1772024894561659000,10.238658935546875,5.470277915248275,9.509016714468597,-0.9060423198271542
1772024894571655700,10.24865576171875,5.711556276351213,9.721829444065689,-0.8303928392767905
1772024894581653000,10.258653076171875,5.789188966608047,9.6013869551301,-0.7446821295697241
1772024894591649800,10.26864990234375,5.746920435199141,9.079366822063923,-0.6112335901971906
1772024894601646800,10.278646728515625,5.513426152101159,7.847806673023104,-0.5945429329633712
1772024894611644000,10.288643798828126,4.676525830626487,6.19142712047398,-0.8672331350918858
1772024894621640000,10.298639892578125,3.5337750148952005,4.2234155676573515,-1.2568129559800028
1772024894631636700,10.30863671875,2.4169886615037917,0.8287596851170063,-1.6061793513581155
1772024894641633800,10.3186337890625,1.4878081157386303,-4.929354344269633,-1.8268503932401536
1772024894651630800,10.328630859375,0.45152679316997524,-11.59241113474369,-1.1667355024307966
1772024894661627600,10.338627685546875,-3.063317311283946,-14.53052444177866,0.665081573306024
1772024894671625000,10.348625,-11.566758807092905,-11.1044709659338,3.431731521481275
1772024894681620700,10.358620849609375,-19.48239281567335,-11.355564034086465,5.215861840152741
1772024894691618000,10.3686181640625,-22.25323232449293,-15.254195274436473,5.1793923504114145
1772024894701614800,10.37861474609375,-21.21509572944641,-12.173645673322676,4.363304515340924
1772024894711611600,10.388611572265624,-16.983402747309206,-10.34688383514881,3.672250296388566
1772024894721609000,10.39860888671875,-13.54473762717247,-12.108303140318393,2.9713731870800255
1772024894731604700,10.408604736328124,-11.199805317097901,-13.212526949256658,2.3847926112979647
1772024894741602000,10.41860205078125,-8.701785555070638,-14.260849422752857,1.8255111074604093
1772024894751598800,10.428598876953124,-6.5278171299010515,-15.202956085586546,1.4270245612129568
1772024894761596000,10.438595947265625,-5.775646178945899,-15.166094966179132,1.015860319700092
1772024894771593000,10.448593017578125,-5.849768230733275,-13.742516453766822,0.9945840151764452
1772024894781589800,10.45858984375,-6.189595813393592,-11.13561663030386,1.4191526587940753
1772024894791586000,10.4685859375,-5.7839890598773955,-8.076368175894022,1.938233669668436
1772024894801582800,10.478582763671875,-4.532407867071032,-5.077027369958162,2.328359068675339
1772024894811580000,10.488579833984375,-2.4879560486525296,-2.2615292197227475,2.1665080261610448
1772024894821577000,10.498576904296876,0.1874222677528858,0.36447219457328317,1.3894104314811526
1772024894831574000,10.508573974609375,2.87602539191246,2.8602327794969082,0.410397348793596
1772024894841569800,10.51856982421875,4.944628485769033,5.422116818669438,-0.5141936772242188
1772024894851566800,10.52856689453125,6.439640833798051,7.550655618050694,-1.3382470843464136
1772024894861564000,10.53856396484375,7.971913529685139,8.626895441520213,-1.9595196188032626
1772024894871560700,10.548560791015625,9.719368022388219,8.585209678435325,-2.216603744064271
1772024894881558000,10.55855810546875,10.832160922229289,8.400431787711382,-2.2035405566126105
1772024894891554800,10.568554931640625,10.84034656677246,8.576727096772194,-2.034542418822646
1772024894901550800,10.57855078125,10.580108069133757,8.719253407222032,-1.644483947572112
1772024894911548000,10.5885478515625,9.978487745130062,8.593885152322054,-1.3999069833151996
1772024894921544700,10.598544677734376,8.90020209504664,8.436592649894953,-1.2292774449311197
1772024894931542000,10.6085419921875,7.5888056082248685,8.423656595954299,-1.051010981927812
1772024894941538800,10.618538818359376,6.062566347283124,8.613192494860291,-0.8317717264145612
1772024894951535900,10.628535888671875,4.483951586937904,8.815431807994843,-0.4757667698048055
1772024894961532000,10.638531982421876,3.2659681278288364,8.921270602038502,-0.23714126129820942
1772024894971528700,10.64852880859375,2.734035672557354,8.996333149546384,-0.17367752777785062
1772024894981526000,10.658526123046874,2.7231974676787853,9.062074911001325,-0.2918814440064132
1772024894991522800,10.668522705078125,2.9902737023830412,9.161260092374683,-0.41639454338178034
1772024895001519900,10.678519775390624,3.396020741152763,9.375220238441228,-0.4243102849423885
1772024895011516000,10.688515869140625,3.7771079704403876,9.503466679126024,-0.3354158306326717
1772024895021512700,10.6985126953125,4.021187360438704,9.6027301864326,-0.32755934497863054
1772024895031509800,10.708509765625,3.915548472881317,9.603311201190948,-0.20030564165823161
1772024895041506800,10.7185068359375,3.5685447149813174,9.22584976118505,-0.0749511230226606
1772024895051503900,10.72850390625,3.6042619250506163,8.504923258799314,-0.062241790509968996
1772024895061500700,10.738500732421874,3.737102707788348,7.517759310621023,-0.02453508712388575
1772024895071497000,10.7484970703125,3.619803193053603,6.140217742240429,-0.2378951484054327
1772024895081493800,10.75849365234375,3.3904251131027934,4.215241029030085,-0.5434632455240935
1772024895091490800,10.76849072265625,3.693045539397001,1.5977110904812812,-0.9208206406336277
1772024895101487900,10.77848779296875,4.207205022090673,-2.0682728389889,-0.8878956916313618
1772024895111484700,10.788484619140625,-0.02774783862531185,-7.164207153990865,-2.214001306480914
1772024895121482000,10.79848193359375,-0.23427637338638305,-10.809098026549815,-0.9893239026911557
1772024895131477800,10.808477783203125,-2.059599118667841,-9.214055863016844,0.6623131315059959
1772024895141475000,10.81847509765625,-7.600662050235271,-7.1049296201139684,0.780322767271474
1772024895151471900,10.828471923828126,-11.969767945331334,-8.58249574330151,-0.27692520934976633
1772024895161468700,10.83846875,-12.469192800229788,-7.439307120674848,-0.29725071595460173
1772024895171466000,10.848466064453126,-12.073984691131114,-2.9243092380881306,0.7264453388724476
1772024895181461800,10.858461669921875,-11.195502066946029,-0.49963878991007804,0.9264281783170998
1772024895191458800,10.868458740234376,-9.01687558683753,-1.5060399379998444,0.6550666675090789
1772024895201455900,10.878455810546875,-6.8872975075364105,-3.9950685843199487,0.3203714793011546
1772024895211453000,10.888452880859376,-5.655091461807489,-5.816901733919978,0.1069341149996966
1772024895221449700,10.89844970703125,-5.146605348575115,-6.569495878723264,0.011264029075205325
1772024895231446800,10.90844677734375,-5.036788883072138,-6.892009923011064,-0.009519669625908136
1772024895241442800,10.91844287109375,-5.067180514204502,-7.420235924980044,-0.24359745170027017
1772024895251439900,10.92843994140625,-4.986806416285038,-7.704810406973958,-0.47927813892662524
1772024895261437000,10.93843701171875,-4.685258587658405,-6.998750049808621,-0.49659233488626775
1772024895271433700,10.948433837890626,-3.9038463446497915,-5.8263458540916435,-0.31663645749129354
1772024895281431000,10.95843115234375,-3.135101275512576,-4.548783247810602,-0.09918854237422346
1772024895291426800,10.9684267578125,-2.3141829515457153,-3.2718075015068053,0.17590477537326513
1772024895301423900,10.978423828125,-1.40641928781867,-2.1863474297493695,0.38884953385218973
1772024895311421000,10.9884208984375,-0.8879968869835138,-1.3272393681198358,0.45324543365612624
1772024895321417700,10.998417724609375,-0.37534722433090206,-0.5560176797360181,0.44067046811282634
1772024895331415000,11.0084150390625,0.15074819535017012,0.07907938193380833,0.45591626030057664
1772024895341411800,11.018411865234375,0.4606009109854698,0.5682400324493646,0.37594460570216176
1772024895351407900,11.028407958984374,0.7111077036827802,1.0205658670425415,0.1933029232893139
1772024895361405000,11.038405029296875,0.9330056570112705,1.488327171176672,-0.04107230736166238
1772024895371401700,11.048401611328124,1.108117309245467,2.0222849947959185,-0.118992509322986
1772024895381399000,11.05839892578125,1.3681921407550572,2.4725246707648036,-0.05812471057996153
1772024895391392800,11.068392822265626,1.7071932094633577,2.5440140359610317,0.00891110927350819
1772024895401389800,11.078389892578125,2.1771417945086955,2.4009897128611803,0.04949234518259763
1772024895411385900,11.0883857421875,3.1074516365647313,2.381274958565831,0.1035275944918394
1772024895421382700,11.098382568359375,3.8693104533195495,2.2958085059434175,0.1567906903848052
1772024895431379700,11.108379638671876,3.9321868884712456,2.0363766485124826,0.01110189731605351
1772024895441376800,11.118376708984375,3.6545424980014563,1.7376128976464271,0.09842449919916689
1772024895451373800,11.128373779296876,2.9318355419397353,1.2501970449715851,0.2850548859219998
1772024895461370600,11.13837060546875,2.388732873356342,0.7915583739697932,0.44025545757114887
1772024895471366700,11.14836669921875,0.9515776710122823,0.41522272312343117,0.4218762627284974
1772024895481363700,11.15836376953125,0.03386778281033039,0.34510990697741506,0.38824842615388333
1772024895491360800,11.16836083984375,0.5115419936716556,0.5157400298833846,0.30962467903308566
1772024895501357800,11.17835791015625,0.5272533575445413,0.6552765108674764,0.4201458587393164
1772024895511354600,11.188354736328124,0.363185661894083,0.8777057945936918,0.5496100046508013
1772024895521352000,11.19835205078125,0.273003286665678,0.675533116954565,0.5260653898689895
