time,seconds_elapsed,z,y,x
1772025045039936500,0.0839365234375,-0.04361526295542717,0.056700821965932846,0.11897777765989304
1772025045049933300,0.093933349609375,-0.11073890328407288,-0.08537668734788895,0.0846397802233696
1772025045059930400,0.103930419921875,-0.1637817919254303,-0.21921281516551971,0.02744256891310215
1772025045069927400,0.113927490234375,-0.21553978323936462,-0.3349495232105255,-0.034454889595508575
1772025045079924200,0.12392431640625,-0.29765084385871887,-0.4261174201965332,-0.11462268233299255
1772025045089921500,0.133921630859375,-0.37512245774269104,-0.4958416521549225,-0.2690117061138153
1772025045099918300,0.14391845703125,-0.4312860071659088,-0.5399752855300903,-0.5149909257888794
1772025045109915400,0.153915283203125,-0.46873563528060913,-0.5231166481971741,-0.7740190029144287
1772025045119912400,0.163912353515625,-0.45956599712371826,-0.43884119391441345,-0.9963168501853943
1772025045129909500,0.173909423828125,-0.3628021776676178,-0.27918416261672974,-1.094725489616394
1772025045139906300,0.18390625,-0.21574003994464874,-0.14254063367843628,-0.9791886210441589
1772025045149903600,0.193903564453125,-0.04504738375544548,0.002349452581256628,-0.9042707085609436
1772025045159900400,0.203900390625,0.12217811495065689,0.4780433475971222,-0.9491830468177795
1772025045169897200,0.213897216796875,0.46613043546676636,1.2231513261795044,-1.1332188844680786
1772025045179894500,0.22389453125,0.6499471068382263,1.5475188493728638,-1.517491102218628
1772025045189891300,0.233891357421875,0.47010117769241333,1.2924768924713135,-1.857465386390686
1772025045199888400,0.243888427734375,0.4300279915332794,0.9699558019638062,-1.7843105792999268
1772025045209885400,0.253885498046875,0.4293352961540222,0.6855767965316772,-1.3553228378295898
1772025045219882500,0.263882568359375,0.297188401222229,0.4077548682689667,-0.9411404728889465
1772025045229879300,0.27387939453125,0.22543005645275116,0.3156377375125885,-0.8348603844642639
1772025045239876600,0.283876708984375,0.2762467861175537,0.32871153950691223,-1.0369089841842651
1772025045249873400,0.293873291015625,0.397487998008728,0.33648690581321716,-1.4218239784240723
1772025045259870500,0.303870361328125,0.47967830300331116,0.21660397946834564,-1.746829628944397
1772025045269867500,0.313867431640625,0.4819486737251282,0.037008389830589294,-1.79120671749115
1772025045279864600,0.323864501953125,0.46057093143463135,-0.050289276987314224,-1.5693329572677612
1772025045289861400,0.333861328125,0.3760012090206146,0.008611056953668594,-1.1186288595199585
1772025045299858400,0.3438583984375,0.24864044785499573,0.22753900289535522,-0.7121330499649048
1772025045309855500,0.35385546875,0.18421272933483124,0.6102246046066284,-0.5836480259895325
1772025045319852300,0.363852294921875,0.02143503911793232,1.14787757396698,-0.7309021949768066
1772025045329849600,0.373849609375,-0.23722155392169952,1.539858341217041,-1.3579381704330444
1772025045339846400,0.383846435546875,-0.2626904249191284,1.9550292491912842,-2.076486349105835
1772025045349843500,0.393843505859375,-0.06456853449344635,1.951080322265625,-2.5666277408599854
1772025045359840500,0.403840576171875,0.2146138995885849,1.3229576349258423,-2.7530360221862793
1772025045369837600,0.413837646484375,0.35691750049591064,0.7322258949279785,-2.5359532833099365
1772025045379834400,0.42383447265625,0.4784889817237854,0.8714905977249146,-2.010103702545166
1772025045389831400,0.43383154296875,0.656425416469574,0.9666743874549866,-1.4854085445404053
1772025045399828500,0.443828369140625,0.8372368216514587,0.6864433884620667,-1.067036509513855
1772025045409825300,0.4538251953125,1.011379599571228,0.30326271057128906,-0.6178968548774719
1772025045419822300,0.463822265625,1.1501210927963257,-0.014089459553360939,-0.17075900733470917
1772025045429819400,0.4738193359375,1.1240061521530151,-0.19753625988960266,0.15461882948875427
1772025045439817500,0.4838173828125,0.9195667505264282,-0.25857242941856384,0.41009271144866943
1772025045449814300,0.493814208984375,0.7550411820411682,-0.22428131103515625,0.678895115852356
1772025045459811300,0.503811279296875,0.5081382989883423,-0.3213781416416168,0.9251651167869568
1772025045469808400,0.513808349609375,0.5779064893722534,-0.3895135223865509,1.366710901260376
1772025045479805400,0.523805419921875,0.7475579977035522,-0.3716762065887451,1.8314075469970703
1772025045489802200,0.53380224609375,0.9249320030212402,-0.38785144686698914,2.2357263565063477
1772025045499799600,0.543799560546875,0.9959492087364197,-0.881578803062439,2.4167706966400146
1772025045509796400,0.55379638671875,0.8739194869995117,-1.7595863342285156,2.337789297103882
1772025045519793400,0.56379345703125,0.4236297011375427,-1.2595816850662231,1.5648561716079712
1772025045529790500,0.57379052734375,0.2003830224275589,0.04349527135491371,0.6801910400390625
1772025045539788300,0.583788330078125,0.2853151261806488,0.33474838733673096,0.1346002221107483
1772025045549785300,0.593785400390625,0.45432862639427185,-0.019634991884231567,-0.1643422693014145
1772025045559782100,0.6037822265625,0.6208776831626892,-0.5238346457481384,-0.5380255579948425
1772025045569779500,0.613779541015625,0.8517265915870667,-1.7516950368881226,-0.6994991302490234
1772025045579776300,0.6237763671875,1.0784244537353516,-3.3356940746307373,-0.4268091022968292
1772025045589773300,0.633773193359375,1.3145147562026978,-3.9163479804992676,-0.007418755907565355
1772025045599770400,0.643770263671875,1.4916203022003174,-1.7792798280715942,0.146214097738266
1772025045609767200,0.65376708984375,1.4768106937408447,-1.624908685684204,0.3642002046108246
1772025045619764200,0.66376416015625,1.4652156829833984,-1.4947853088378906,0.5362388491630554
1772025045629761300,0.67376123046875,1.2673670053482056,-0.9300912618637085,0.36239808797836304
1772025045639758300,0.68375830078125,0.6908278465270996,-0.7040563821792603,-0.16339904069900513
1772025045649755100,0.693755126953125,-0.21413424611091614,-0.6645382642745972,-0.7407404184341431
1772025045659752400,0.70375244140625,-0.6837276816368103,-0.442950576543808,-1.1640517711639404
1772025045669749200,0.713749267578125,-0.7083264589309692,0.02123306319117546,-1.4934221506118774
1772025045679746300,0.723746337890625,-0.7507162094116211,0.21518313884735107,-1.8702751398086548
1772025045689743400,0.733743408203125,-0.9673523902893066,-0.11997008323669434,-2.357004165649414
1772025045699740400,0.743740478515625,-1.2373011112213135,-0.5744248032569885,-2.73542857170105
1772025045709737200,0.7537373046875,-1.4631222486495972,-0.9751772880554199,-2.803774356842041
1772025045719734300,0.763734375,-1.425225853919983,-1.4035972356796265,-2.4642698764801025
1772025045729731300,0.7737314453125,-1.052284836769104,-1.8424550294876099,-1.8235464096069336
1772025045739728100,0.78372802734375,-0.589653491973877,-2.2819716930389404,-1.0650800466537476
1772025045749725400,0.793725341796875,-0.18611638247966766,-2.7845897674560547,-0.334627628326416
1772025045759722200,0.80372216796875,0.05434463918209076,-3.418814182281494,0.22474829852581024
1772025045769719300,0.81371923828125,-0.4730621874332428,-3.489614725112915,0.06273382902145386
1772025045779716400,0.82371630859375,-1.159517765045166,-2.8771512508392334,-0.7073730230331421
1772025045789713400,0.83371337890625,-1.5360069274902344,-2.1314730644226074,-1.3941819667816162
1772025045799710200,0.843710205078125,-1.7116124629974365,-1.23506498336792,-1.9946420192718506
1772025045809707500,0.85370751953125,-1.6743385791778564,0.31253939867019653,-2.58768892288208
1772025045819704300,0.863704345703125,-1.5254484415054321,1.5166683197021484,-2.7656140327453613
1772025045829701400,0.873701416015625,-1.153637409210205,2.6866402626037598,-2.8144266605377197
1772025045839698400,0.883698486328125,-0.998725950717926,3.83146071434021,-2.7812836170196533
1772025045849695200,0.8936953125,-1.2603034973144531,4.36709451675415,-2.38138747215271
1772025045859692300,0.9036923828125,-1.4119881391525269,3.929990768432617,-1.6610620021820068
1772025045869689300,0.913689453125,-1.2482250928878784,3.0441901683807373,-0.8091530799865723
1772025045879686400,0.923686279296875,-0.9667396545410156,2.0910942554473877,-0.1500629186630249
1772025045889683200,0.93368310546875,-0.7690976858139038,1.2546173334121704,0.2951723337173462
1772025045899680300,0.94368017578125,-0.5765814185142517,0.4601336717605591,0.6071279048919678
1772025045909677300,0.95367724609375,-0.38489267230033875,-0.3829251229763031,0.8165812492370605
1772025045919674400,0.96367431640625,-0.23919545114040375,-1.1528929471969604,0.9402748942375183
1772025045929671200,0.973671142578125,0.09392125904560089,-1.5292571783065796,1.1241259574890137
1772025045939668500,0.98366845703125,0.46900394558906555,-1.4221961498260498,1.275871753692627
1772025045949665300,0.993665283203125,0.7531786561012268,-1.160910964012146,1.337205171585083
1772025045959662000,1.003662109375,0.9046953916549683,-0.9082263708114624,1.2534162998199463
1772025045969659400,1.013659423828125,0.9518003463745117,-0.5632042288780212,0.996390163898468
1772025045979656200,1.02365625,0.8739909529685974,-0.4525923430919647,0.8601015210151672
1772025045989653200,1.0336533203125,0.7720028162002563,-0.5127350687980652,0.7937659025192261
1772025045999650300,1.043650390625,0.6474788784980774,-0.6960321068763733,0.7797632813453674
1772025046009647400,1.0536474609375,0.4787527620792389,-0.9024484157562256,0.9085534811019897
1772025046019644200,1.06364404296875,0.384966641664505,-1.0287827253341675,1.1377960443496704
1772025046029641500,1.073641357421875,0.48337605595588684,-1.0917521715164185,1.3193644285202026
1772025046039638300,1.08363818359375,0.7674006223678589,-1.4019687175750732,1.446211814880371
1772025046049635300,1.09363525390625,1.0255767107009888,-1.3824528455734253,1.6224491596221924
1772025046059632400,1.10363232421875,1.0339064598083496,-1.1684811115264893,1.8073307275772095
1772025046069629200,1.113629150390625,0.7754596471786499,-1.5521759986877441,1.7477190494537354
1772025046079627300,1.123627197265625,0.3200204372406006,-2.20937442779541,1.4229875802993774
1772025046089624300,1.133624267578125,-0.18784119188785553,-2.4892821311950684,1.0028164386749268
1772025046099621400,1.143621337890625,-0.33197614550590515,-2.3887014389038086,0.6997182965278625
1772025046109618400,1.153618408203125,-0.08331122994422913,-1.3494855165481567,0.6198753714561462
1772025046119615200,1.163615234375,0.13873952627182007,-0.23300863802433014,0.5192164778709412
1772025046129612300,1.1736123046875,0.1650502234697342,0.29140505194664,0.20691928267478943
1772025046139609300,1.183609375,0.09150960296392441,0.6332167983055115,-0.19046670198440552
1772025046149606100,1.193606201171875,-0.026151780039072037,0.9433759450912476,-0.6807101964950562
1772025046159603500,1.203603515625,-0.21982897818088531,1.0350197553634644,-1.3348771333694458
1772025046169600300,1.213600341796875,-0.4311377704143524,1.0347791910171509,-1.9205271005630493
1772025046179597300,1.223597412109375,-0.5743990540504456,1.0843029022216797,-2.219984769821167
1772025046189594400,1.233594482421875,-0.6456990838050842,1.1613723039627075,-2.2433598041534424
1772025046199591400,1.24359130859375,-0.70033198595047,1.2302720546722412,-2.0828323364257812
1772025046209588200,1.253588134765625,-0.7325796484947205,1.3081148862838745,-1.8082263469696045
1772025046219585500,1.26358544921875,-0.699367105960846,1.3667550086975098,-1.503022313117981
1772025046229582300,1.273582275390625,-0.5854085683822632,1.3754055500030518,-1.1999398469924927
1772025046239579100,1.2835791015625,-0.4208640158176422,1.3353385925292969,-0.8943530321121216
1772025046249576400,1.293576416015625,-0.2732849717140198,1.2227420806884766,-0.5649993419647217
1772025046259573200,1.3035732421875,-0.1930464506149292,1.0137817859649658,-0.22997203469276428
1772025046269570300,1.3135703125,-0.16212314367294312,0.7256696224212646,0.09611286967992783
1772025046279567400,1.3235673828125,-0.14366362988948822,0.40141090750694275,0.4217848777770996
1772025046289564400,1.333564453125,-0.10842227935791016,0.08493843674659729,0.7508626580238342
1772025046299561200,1.343561279296875,-0.057740580290555954,-0.19973060488700867,1.0714750289916992
1772025046309558300,1.353558349609375,-0.00830858014523983,-0.41168734431266785,1.3423709869384766
1772025046319555300,1.363555419921875,0.03517778590321541,-0.5234712958335876,1.5253078937530518
1772025046329552400,1.373552490234375,0.08839892596006393,-0.5048099756240845,1.6134440898895264
1772025046339549200,1.383549072265625,0.16825208067893982,-0.40369299054145813,1.6302120685577393
1772025046349546200,1.393546142578125,0.2613980174064636,-0.2905568480491638,1.5897525548934937
1772025046359543300,1.403543212890625,0.34673506021499634,-0.16229936480522156,1.500606894493103
1772025046369540000,1.4135400390625,0.41141659021377563,-0.07830912619829178,1.3580564260482788
1772025046379537400,1.423537353515625,0.4546377658843994,-0.07124976068735123,1.183083415031433
1772025046389534200,1.4335341796875,0.4831724762916565,-0.11705506592988968,1.0179262161254883
1772025046399531300,1.44353125,0.48609820008277893,-0.169955775141716,0.8527083396911621
1772025046409528300,1.4535283203125,0.4312109649181366,-0.23312729597091675,0.6746733784675598
1772025046419525400,1.463525390625,0.3121621608734131,-0.3049057126045227,0.5013344287872314
1772025046429522200,1.473522216796875,0.14018134772777557,-0.3234005868434906,0.34343773126602173
1772025046439519500,1.48351953125,-0.061156537383794785,-0.31752362847328186,0.19669875502586365
1772025046449516300,1.493516357421875,-0.23516055941581726,-0.32508113980293274,0.07372542470693588
1772025046459513300,1.503513427734375,-0.3475532829761505,-0.2665115296840668,0.05081721767783165
1772025046469510400,1.513510498046875,-0.3695499300956726,-0.05676977336406708,0.13605888187885284
1772025046479507200,1.523507080078125,-0.32589632272720337,0.17162716388702393,0.2408534288406372
1772025046489504300,1.533504150390625,-0.25196486711502075,0.29959335923194885,0.28634876012802124
1772025046499501300,1.543501220703125,-0.08350261300802231,0.46782320737838745,0.27424997091293335
1772025046509498400,1.553498291015625,0.1955500692129135,0.510166347026825,0.13447102904319763
1772025046519495200,1.5634951171875,0.5484598278999329,-0.0808461382985115,-0.1206839308142662
1772025046529492500,1.573492431640625,0.6314430832862854,-1.432250738143921,-0.4060642719268799
1772025046539489300,1.5834892578125,0.395563542842865,-2.993932008743286,-0.5397244691848755
1772025046549489400,1.593489501953125,0.10895893722772598,-3.9508957862854004,-0.4368683993816376
1772025046559486500,1.603486572265625,-0.18365119397640228,-3.7656145095825195,-0.03455081954598427
1772025046569483500,1.6134833984375,-0.37584781646728516,-3.0718846321105957,0.481040894985199
1772025046579480300,1.623480224609375,-0.3817083239555359,-2.041614532470703,0.8190919160842896
1772025046589477600,1.6334775390625,-0.23000188171863556,-0.8839161396026611,0.7311391830444336
1772025046599474400,1.643474365234375,0.0027247914113104343,0.13280512392520905,0.13252884149551392
1772025046609471500,1.653471435546875,0.23145970702171326,0.7897201776504517,-0.8271961212158203
1772025046619468500,1.663468505859375,0.38415098190307617,1.1398693323135376,-1.6957764625549316
1772025046629465600,1.673465576171875,0.4423335790634155,1.3661372661590576,-2.1025962829589844
1772025046639462400,1.68346240234375,0.3791491687297821,1.531105637550354,-2.049027442932129
1772025046649459500,1.69345947265625,0.20655395090579987,1.5970710515975952,-1.6929949522018433
1772025046659456500,1.70345654296875,0.013083023950457573,1.5813804864883423,-1.1652741432189941
1772025046669453300,1.713453369140625,-0.09331346303224564,1.4578149318695068,-0.6062724590301514
1772025046679450600,1.72345068359375,-0.06303109228610992,1.2305482625961304,-0.1095181554555893
1772025046689447400,1.733447509765625,0.0776250883936882,0.9298052191734314,0.28148502111434937
1772025046699444500,1.743444580078125,0.27644839882850647,0.657374918460846,0.5522409677505493
1772025046709441500,1.753441650390625,0.4328550398349762,0.4657716453075409,0.6872661709785461
1772025046719438600,1.7634384765625,0.4974687099456787,0.36346933245658875,0.73344486951828
1772025046729435400,1.773435302734375,0.48763951659202576,0.33322006464004517,0.7369996905326843
1772025046739432400,1.783432373046875,0.41344350576400757,0.41872429847717285,0.7106010317802429
1772025046749430500,1.793430419921875,0.30939486622810364,0.5808115005493164,0.6494324803352356
1772025046759427600,1.803427490234375,0.19457469880580902,0.7226150035858154,0.5407884120941162
1772025046769424400,1.81342431640625,0.09558367729187012,0.8595758080482483,0.4242548942565918
1772025046779421400,1.82342138671875,0.016457602381706238,0.9668748378753662,0.33321264386177063
1772025046789418500,1.83341845703125,-0.038848262280225754,1.010759949684143,0.2738872766494751
1772025046799415600,1.84341552734375,-0.06745869666337967,1.004384994506836,0.24145112931728363
1772025046809412400,1.853412353515625,-0.0679154247045517,0.957471489906311,0.23185522854328156
1772025046819409400,1.863409423828125,-0.06689159572124481,0.8644930720329285,0.22695866227149963
1772025046829406500,1.873406494140625,-0.07078007608652115,0.7461382150650024,0.2172679603099823
1772025046839403300,1.8834033203125,-0.08619171380996704,0.6098820567131042,0.2050064206123352
1772025046849400600,1.893400634765625,-0.10304126143455505,0.4572123885154724,0.17896468937397003
1772025046859397400,1.9033974609375,-0.13280487060546875,0.29265791177749634,0.147901251912117
1772025046869394400,1.91339453125,-0.16373056173324585,0.16166260838508606,0.1164485290646553
1772025046879391500,1.9233916015625,-0.1826269030570984,0.061311274766922,0.08065211027860641
1772025046889388500,1.933388427734375,-0.19082756340503693,-0.043899569660425186,0.021787995472550392
1772025046899385300,1.94338525390625,-0.2411971092224121,-0.2030094712972641,-0.06436319649219513
1772025046909382700,1.953382568359375,-0.29620975255966187,-0.3929844796657562,-0.11930341273546219
1772025046919379500,1.96337939453125,-0.2243894636631012,-0.6553561091423035,-0.009193445555865765
1772025046929376300,1.973376220703125,0.01166088692843914,-0.8649210929870605,0.3152802288532257
1772025046939373600,1.98337353515625,0.34360748529434204,-0.8068385720252991,0.7618829011917114
1772025046949370400,1.993370361328125,0.7570639848709106,-0.5459683537483215,1.110244631767273
1772025046959367400,2.003367431640625,1.1675540208816528,-0.5752397179603577,1.1400558948516846
1772025046969364500,2.013364501953125,1.4857206344604492,-1.2374193668365479,0.8156954050064087
1772025046979361500,2.023361572265625,1.5803253650665283,-2.389946937561035,0.29586806893348694
1772025046989358300,2.0333583984375,1.2627674341201782,-3.7244014739990234,-0.13560158014297485
1772025046999355600,2.043355712890625,0.8600665330886841,-4.390254974365234,-0.16778162121772766
1772025047009352400,2.0533525390625,0.5828248262405396,-3.6087632179260254,0.14131946861743927
1772025047019349500,2.063349609375,0.2800275385379791,-2.1489689350128174,0.4415576756000519
1772025047029346600,2.0733466796875,0.06764309108257294,-0.7774326801300049,0.5610247254371643
1772025047039343400,2.08334326171875,0.02937835454940796,0.3633004128932953,0.4351959526538849
1772025047049340400,2.09334033203125,0.11290041357278824,1.2157896757125854,0.04966078698635101
1772025047059337500,2.10333740234375,0.2276829183101654,1.7285430431365967,-0.5607548952102661
1772025047069334500,2.11333447265625,0.21863162517547607,1.6901812553405762,-1.3311620950698853
1772025047079331300,2.123331298828125,-0.010466516949236393,1.2241522073745728,-2.0446226596832275
1772025047089328600,2.13332861328125,-0.35909003019332886,0.7325438261032104,-2.435760736465454
1772025047099325400,2.143325439453125,-0.6844698786735535,0.47944456338882446,-2.4124274253845215
1772025047109322500,2.153322509765625,-0.9642059206962585,0.46317344903945923,-2.129534959793091
1772025047119319600,2.163319580078125,-1.1699970960617065,0.5825134515762329,-1.7633411884307861
1772025047129316600,2.173316650390625,-1.2857649326324463,0.7675825953483582,-1.4409419298171997
1772025047139313400,2.1833134765625,-1.3150010108947754,0.9744797348976135,-1.2058086395263672
1772025047149310500,2.193310546875,-1.2683049440383911,1.1763015985488892,-1.0633052587509155
1772025047159307500,2.2033076171875,-1.1389065980911255,1.3298877477645874,-0.976081132888794
1772025047169304300,2.21330419921875,-0.9859800934791565,1.426751971244812,-0.9068717360496521
1772025047179301400,2.22330126953125,-0.8313377499580383,1.4938994646072388,-0.8560789823532104
1772025047189298400,2.23329833984375,-0.6648467779159546,1.5299712419509888,-0.8083900213241577
1772025047199295500,2.24329541015625,-0.4962274134159088,1.5619935989379883,-0.7153354287147522
1772025047209292300,2.253292236328125,-0.3733190596103668,1.5549386739730835,-0.5792582631111145
1772025047219289600,2.26328955078125,-0.32060524821281433,1.438706636428833,-0.45088645815849304
1772025047229286400,2.273286376953125,-0.3226252496242523,1.243519902229309,-0.34909406304359436
1772025047239283500,2.283283447265625,-0.3256669342517853,1.0139185190200806,-0.26325535774230957
1772025047249280500,2.293280517578125,-0.27908557653427124,0.82860267162323,-0.17323945462703705
1772025047259277600,2.303277587890625,-0.17979083955287933,0.6546522974967957,-0.07920635491609573
1772025047269274400,2.3132744140625,0.020593661814928055,0.47130802273750305,-0.07390133291482925
1772025047279271400,2.323271484375,0.24549317359924316,0.34179365634918213,-0.11561919003725052
1772025047289268500,2.3332685546875,0.40603891015052795,0.19694486260414124,-0.11357121914625168
1772025047299265300,2.343265380859375,0.5757722854614258,0.005206957459449768,-0.07249472290277481
1772025047309262600,2.3532626953125,0.6878027319908142,-0.1675190031528473,0.03560405224561691
1772025047319259400,2.36325927734375,0.686970591545105,-0.3183329701423645,0.14628000557422638
1772025047329256400,2.37325634765625,0.4648451805114746,-0.47765710949897766,0.23010006546974182
1772025047339253500,2.38325341796875,0.010800410993397236,-0.7861473560333252,0.2757367789745331
1772025047349250600,2.39325048828125,-0.5532693266868591,-1.2609610557556152,0.49511680006980896
1772025047359247400,2.403247314453125,-0.7998824715614319,-1.3781920671463013,0.9550609588623047
1772025047369244700,2.41324462890625,-0.4793238639831543,-1.0568537712097168,1.4185848236083984
1772025047379241500,2.423241455078125,0.04818527027964592,-0.4638157784938812,1.7118504047393799
1772025047389238300,2.43323828125,0.48030391335487366,0.1501445770263672,1.8221148252487183
1772025047399235600,2.443235595703125,0.7690476775169373,0.6947032809257507,1.6237032413482666
1772025047409232400,2.453232421875,0.7768433094024658,1.0932756662368774,1.1719672679901123
1772025047419229400,2.4632294921875,0.5804393887519836,0.8800081014633179,0.7477372288703918
1772025047429226500,2.4732265625,0.18088959157466888,0.16824878752231598,0.47357597947120667
1772025047439223600,2.4832236328125,-0.47967496514320374,-0.4792421758174896,0.5794621109962463
1772025047449220400,2.493220458984375,-1.0655112266540527,-0.7221443057060242,0.9921343922615051
1772025047459217700,2.5032177734375,-1.3536748886108398,-0.4139868915081024,1.510718822479248
1772025047469214500,2.51321435546875,-1.4138787984848022,0.1486511528491974,1.89006507396698
1772025047479211500,2.52321142578125,-1.3353986740112305,0.5369676947593689,1.8354036808013916
1772025047489208600,2.53320849609375,-1.206675410270691,0.8138938546180725,1.4676991701126099
1772025047499205600,2.54320556640625,-1.0997960567474365,0.9895178079605103,0.9690826535224915
1772025047509202400,2.553202392578125,-1.063580870628357,0.9495365619659424,0.4162985682487488
1772025047519199500,2.563199462890625,-1.1112613677978516,0.6592581272125244,-0.054101359099149704
1772025047529196500,2.573196533203125,-1.1882280111312866,0.2806759178638458,-0.30806973576545715
1772025047539193300,2.583193359375,-1.2309030294418335,-0.08850693702697754,-0.31685423851013184
1772025047549186600,2.5931865234375,-1.2104203701019287,-0.4488163888454437,-0.13380159437656403
1772025047559183600,2.60318359375,-1.130682110786438,-0.821083664894104,0.162314772605896
1772025047569180400,2.613180419921875,-0.9995131492614746,-1.1774893999099731,0.5090662837028503
1772025047579177700,2.623177734375,-0.8717400431632996,-1.4380474090576172,0.829763650894165
1772025047589174500,2.633174560546875,-0.7478796243667603,-1.492326259613037,1.05401611328125
1772025047599171600,2.643171630859375,-0.6011680960655212,-1.347394585609436,1.158769965171814
1772025047609168600,2.653168701171875,-0.4521373510360718,-1.0699714422225952,1.1311780214309692
1772025047619165700,2.663165771484375,-0.3095434606075287,-0.714179515838623,1.0109121799468994
1772025047629162500,2.67316259765625,-0.1796128898859024,-0.269540011882782,0.8346176147460938
1772025047639159600,2.68315966796875,-0.05308905616402626,0.1769363284111023,0.6383212804794312
1772025047649156600,2.693156494140625,0.06535077095031738,0.5197733044624329,0.43235504627227783
1772025047659153400,2.7031533203125,0.13167570531368256,0.739739716053009,0.2530073821544647
1772025047669150500,2.713150390625,0.16839776933193207,0.7887730002403259,0.11576244235038757
1772025047679147500,2.7231474609375,0.21569594740867615,0.6895405054092407,0.0077232965268194675
1772025047689144600,2.73314453125,0.2812802791595459,0.49336084723472595,-0.07131106406450272
1772025047699141400,2.743141357421875,0.3818954527378082,0.30592110753059387,-0.08517450839281082
1772025047709138700,2.753138671875,0.5223223567008972,0.11737143248319626,-0.007715671788901091
1772025047719135500,2.763135498046875,0.6500606536865234,-0.05589529126882553,0.13680242002010345
1772025047729132500,2.773132568359375,0.7635390162467957,-0.19938693940639496,0.32776784896850586
1772025047739129600,2.783129638671875,0.8426576852798462,-0.3117469549179077,0.5400292873382568
1772025047749126700,2.793126708984375,0.8769668936729431,-0.40605267882347107,0.7500901222229004
1772025047759124500,2.80312451171875,0.8903987407684326,-0.5178260803222656,0.9026679396629333
1772025047769121500,2.81312158203125,0.8702998757362366,-0.6094926595687866,0.9955012202262878
1772025047779118600,2.82311865234375,0.8131747245788574,-0.6941272616386414,1.0306591987609863
1772025047789115600,2.83311572265625,0.7116004824638367,-0.7879437804222107,0.9916715621948242
1772025047799112400,2.843112548828125,0.5708247423171997,-0.8975452184677124,0.8677653074264526
1772025047809109500,2.853109619140625,0.39842742681503296,-0.9859458804130554,0.6463154554367065
1772025047819106600,2.8631064453125,0.223510280251503,-1.0194618701934814,0.3060550093650818
1772025047829103400,2.873103271484375,0.04980506747961044,-0.9615577459335327,-0.11040637642145157
1772025047839100700,2.8831005859375,-0.10190965235233307,-0.5385555624961853,-0.5859789252281189
1772025047849097500,2.893097412109375,-0.1444656401872635,0.3983237147331238,-1.0805641412734985
1772025047859094500,2.903094482421875,0.029581284150481224,1.4649015665054321,-1.5482299327850342
1772025047869091600,2.913091552734375,0.343195378780365,2.034144401550293,-2.0252938270568848
1772025047879088600,2.923088623046875,0.5557225346565247,1.8692257404327393,-2.413343906402588
1772025047889085400,2.93308544921875,0.39348888397216797,1.1464619636535645,-2.3721625804901123
1772025047899082800,2.943082763671875,-0.07638085633516312,0.3175603151321411,-1.686948537826538
1772025047909079600,2.95307958984375,-0.5446079969406128,-0.22774189710617065,-0.5777117609977722
1772025047919076400,2.963076416015625,-0.6792418956756592,-0.2080470770597458,0.581404983997345
1772025047929073700,2.97307373046875,-0.5445671677589417,-0.0639631524682045,1.3283576965332031
1772025047939070500,2.983070556640625,-0.3070087134838104,0.04121946543455124,1.4429290294647217
1772025047949067500,2.993067626953125,-0.021174149587750435,0.24809575080871582,1.1486128568649292
1772025047959064600,3.003064697265625,0.2738931477069855,0.44018885493278503,0.5943418741226196
1772025047969061600,3.0130615234375,0.43488335609436035,0.3573824167251587,-0.148077130317688
1772025047979058400,3.023058349609375,0.4523007273674011,0.08151252567768097,-0.7319810390472412
1772025047989055700,3.0330556640625,0.3925500512123108,-0.21642382442951202,-0.8377431631088257
1772025047999052500,3.043052490234375,0.2775936424732208,-0.6075762510299683,-0.4849783182144165
1772025048009049600,3.053049560546875,0.14256764948368073,-1.1561685800552368,0.1336819976568222
1772025048019046700,3.063046630859375,0.04229417443275452,-1.6945667266845703,0.7780038118362427
1772025048029043700,3.073043701171875,-0.0036504161544144154,-2.0477540493011475,1.250925898551941
1772025048039040500,3.08304052734375,0.012583225965499878,-2.1462574005126953,1.4209364652633667
1772025048049037600,3.09303759765625,0.07241646945476532,-1.9451981782913208,1.2378203868865967
1772025048059034600,3.10303466796875,0.11981677263975143,-1.4579598903656006,0.7714291214942932
1772025048069031400,3.113031494140625,0.1405276358127594,-0.7937755584716797,0.17591625452041626
1772025048079028500,3.123028564453125,0.152086541056633,-0.05462745577096939,-0.42344599962234497
1772025048089025500,3.133025634765625,0.15449748933315277,0.6341924667358398,-0.9386669397354126
1772025048099022600,3.143022705078125,0.12837964296340942,1.1229841709136963,-1.320561170578003
1772025048109019400,3.153019287109375,0.038837775588035583,1.3936409950256348,-1.5614137649536133
1772025048119016700,3.1630166015625,-0.10159608721733093,1.4599406719207764,-1.660975694656372
1772025048129013500,3.173013427734375,-0.23956167697906494,1.3581421375274658,-1.6472702026367188
1772025048139010600,3.183010498046875,-0.34827208518981934,1.1565662622451782,-1.5254411697387695
1772025048149007600,3.193007568359375,-0.39264196157455444,0.9370632171630859,-1.3164762258529663
1772025048159004400,3.20300439453125,-0.37279385328292847,0.7528274059295654,-1.042672872543335
1772025048169001500,3.21300146484375,-0.2961888313293457,0.6182458996772766,-0.7174029350280762
1772025048178998500,3.22299853515625,-0.20148180425167084,0.5038107633590698,-0.37467414140701294
1772025048188995600,3.23299560546875,-0.11966229975223541,0.39560678601264954,-0.0058708214201033115
1772025048198992400,3.242992431640625,-0.05681551247835159,0.34587860107421875,0.3850102126598358
1772025048208989700,3.25298974609375,0.0026187864132225513,0.36654767394065857,0.7766674757003784
1772025048218986500,3.262986572265625,0.07759344577789307,0.3623122572898865,1.1361275911331177
1772025048228983600,3.272983642578125,0.14255115389823914,0.2968655824661255,1.4210991859436035
1772025048238980600,3.282980712890625,0.14196622371673584,0.22103439271450043,1.636534333229065
1772025048248977700,3.292977783203125,0.07735340297222137,0.1344025582075119,1.779600739479065
1772025048258974500,3.302974365234375,-0.03311006724834442,-0.1002865880727768,1.8248194456100464
1772025048268971500,3.312971435546875,-0.18493340909481049,-0.45785510540008545,1.7701399326324463
1772025048278968600,3.322968505859375,-0.3068498373031616,-0.7820566296577454,1.6528205871582031
1772025048288965400,3.33296533203125,-0.32498782873153687,-0.8052647113800049,1.4807385206222534
1772025048298962700,3.342962646484375,-0.19812031090259552,-0.3960569202899933,1.2978283166885376
1772025048308959500,3.35295947265625,0.06917878240346909,0.5110548734664917,1.242187738418579
1772025048318956500,3.36295654296875,0.4712279736995697,1.6126083135604858,1.2091253995895386
1772025048328953600,3.37295361328125,0.7110238075256348,2.1013855934143066,0.67404705286026
1772025048338950700,3.38295068359375,0.5028331279754639,1.456407070159912,-0.434066504240036
1772025048348947500,3.392947509765625,-0.1418728530406952,0.04449751600623131,-1.3831855058670044
1772025048358944800,3.40294482421875,-0.8479112982749939,-1.2131214141845703,-2.005927562713623
1772025048368941600,3.412941650390625,-1.2514218091964722,-1.3485490083694458,-2.2682573795318604
1772025048378938600,3.422938720703125,-1.3180663585662842,-0.43590638041496277,-2.091012954711914
1772025048388935700,3.432935791015625,-1.0210349559783936,0.9092315435409546,-1.7529540061950684
1772025048398932500,3.442932373046875,-0.5906825065612793,2.2816145420074463,-1.4406745433807373
1772025048408929500,3.452929443359375,-0.3013699948787689,3.1943047046661377,-1.2496241331100464
1772025048418926600,3.462926513671875,-0.214466854929924,3.2024707794189453,-1.3472607135772705
1772025048428923600,3.472923583984375,-0.32712921500205994,2.722905397415161,-1.685219645500183
1772025048438920400,3.48292041015625,-0.47899892926216125,2.229584217071533,-1.9901416301727295
1772025048448917500,3.49291748046875,-0.5745781660079956,1.7547626495361328,-2.06231689453125
1772025048458914600,3.50291455078125,-0.6585748791694641,1.2853856086730957,-1.8317619562149048
1772025048468911600,3.51291162109375,-0.7704598903656006,0.8770705461502075,-1.3520044088363647
1772025048478908400,3.522908447265625,-0.8767994046211243,0.5006179809570312,-0.8050723075866699
1772025048488905700,3.53290576171875,-0.8923176527023315,0.1584305465221405,-0.30659887194633484
1772025048498902500,3.542902587890625,-0.8128945231437683,-0.07589613646268845,0.07353416830301285
1772025048508899300,3.5528994140625,-0.6704609394073486,-0.15781550109386444,0.31267136335372925
1772025048518896600,3.562896728515625,-0.4735659062862396,-0.14997464418411255,0.4350619316101074
1772025048528893400,3.5728935546875,-0.22006839513778687,-0.07416696101427078,0.47858303785324097
1772025048538890500,3.582890380859375,0.059497982263565063,0.0664774551987648,0.450526624917984
1772025048548891600,3.5928916015625,0.2969355881214142,0.21716976165771484,0.3624332547187805
1772025048558888700,3.602888671875,0.4629594385623932,0.3020760416984558,0.2446255385875702
1772025048568885500,3.612885498046875,0.5540533661842346,0.2632000148296356,0.12404745817184448
1772025048578882600,3.622882568359375,0.5816287398338318,0.09498464316129684,0.03932998329401016
1772025048588879600,3.632879638671875,0.5510484576225281,-0.151943638920784,0.00832839123904705
1772025048598876400,3.64287646484375,0.5177954435348511,-0.431525319814682,0.021464835852384567
1772025048608873700,3.652873779296875,0.5101566910743713,-0.6386550664901733,0.09589992463588715
1772025048618870500,3.66287060546875,0.5542128086090088,-0.6982889771461487,0.26237598061561584
1772025048628867600,3.67286767578125,0.6145557761192322,-0.6451975107192993,0.5109516978263855
1772025048638864600,3.68286474609375,0.6544756889343262,-0.5491136908531189,0.7795490026473999
1772025048648861700,3.69286181640625,0.6711374521255493,-0.4447731673717499,1.025930643081665
1772025048658858500,3.7028583984375,0.6653442978858948,-0.3286333680152893,1.2221091985702515
1772025048668855600,3.71285546875,0.6498449444770813,-0.25499776005744934,1.338555932044983
1772025048678852600,3.7228525390625,0.6001719832420349,-0.2392590492963791,1.3538308143615723
1772025048688849400,3.732849365234375,0.5096570253372192,-0.3105963468551636,1.255811333656311
1772025048698846500,3.742846435546875,0.41036221385002136,-0.49087509512901306,1.082627773284912
1772025048708843500,3.752843505859375,0.28832578659057617,-0.7454980611801147,0.8772314190864563
1772025048718840600,3.762840576171875,0.13688278198242188,-0.9948066473007202,0.6712942719459534
1772025048728837400,3.77283740234375,0.053850479423999786,-1.0757262706756592,0.5163558125495911
1772025048738834700,3.782834716796875,0.1302395612001419,-0.905376672744751,0.45276036858558655
1772025048748831500,3.79283154296875,0.3503822982311249,-0.4229178726673126,0.520683228969574
1772025048758828500,3.80282861328125,0.5622230172157288,0.1637025624513626,0.7038748264312744
1772025048768825600,3.81282568359375,0.6131072640419006,0.4349726736545563,0.8195763826370239
1772025048778822700,3.82282275390625,0.3298801779747009,0.08360526710748672,0.7201130986213684
1772025048788819500,3.8328193359375,-0.386025995016098,-0.6342039704322815,0.42229366302490234
1772025048798816500,3.84281640625,-1.3503743410110474,-1.4002279043197632,0.029362551867961884
1772025048808814600,3.852814697265625,-2.094780206680298,-1.5906434059143066,-0.18458382785320282
1772025048818811600,3.862811767578125,-2.25663161277771,-0.8632469773292542,-0.12526819109916687
1772025048828808400,3.872808349609375,-2.0199782848358154,0.31701648235321045,-0.06250414252281189
1772025048838805800,3.8828056640625,-1.731805443763733,1.140608549118042,-0.31495627760887146
1772025048848802600,3.892802490234375,-1.5202457904815674,1.4721449613571167,-0.8202835917472839
1772025048858799400,3.90279931640625,-1.3112238645553589,1.5209782123565674,-1.339411973953247
1772025048868796700,3.912796630859375,-1.2108628749847412,1.2174087762832642,-1.8635519742965698
1772025048878793500,3.92279345703125,-1.333983063697815,0.6342841386795044,-2.2941243648529053
1772025048888790500,3.93279052734375,-1.5671910047531128,0.05459650233387947,-2.4182941913604736
1772025048898787600,3.94278759765625,-1.785744071006775,-0.4649975299835205,-2.180147886276245
1772025048908784600,3.95278466796875,-1.9517581462860107,-0.9744985699653625,-1.6981053352355957
1772025048918781400,3.962781494140625,-2.0685524940490723,-1.3977723121643066,-1.087494969367981
1772025048928778800,3.97277880859375,-2.1088719367980957,-1.731758713722229,-0.4970143735408783
1772025048938775600,3.982775634765625,-2.0603063106536865,-1.9623185396194458,-0.01773073524236679
1772025048948772600,3.992772705078125,-1.9131255149841309,-2.0426793098449707,0.2976943254470825
1772025048958769700,4.002769775390625,-1.6830596923828125,-1.930688500404358,0.46861717104911804
1772025048968766500,4.012766357421875,-1.4021726846694946,-1.665502667427063,0.5252165198326111
1772025048978763500,4.022763427734375,-1.1029446125030518,-1.349249243736267,0.5032020807266235
1772025048988760600,4.032760498046875,-0.8037778735160828,-1.0406615734100342,0.4246809184551239
1772025048998757600,4.042757568359375,-0.5148769617080688,-0.7700506448745728,0.3182411193847656
1772025049008754400,4.05275439453125,-0.25611114501953125,-0.5752313137054443,0.20918254554271698
1772025049018751700,4.062751708984375,-0.04409509524703026,-0.4763270914554596,0.13186444342136383
1772025049028748500,4.07274853515625,0.1206911951303482,-0.5050724744796753,0.10164874792098999
1772025049038745600,4.08274560546875,0.2203441560268402,-0.6491600871086121,0.1234128326177597
1772025049048742700,4.09274267578125,0.25442567467689514,-0.8648406863212585,0.21246547996997833
1772025049058739700,4.10273974609375,0.26067155599594116,-1.1068800687789917,0.3894732594490051
1772025049068736500,4.112736572265625,0.2437322586774826,-1.3173466920852661,0.6566751003265381
1772025049078733600,4.122733642578125,0.19619397819042206,-1.452402949333191,0.9722925424575806
1772025049088730600,4.132730712890625,0.12788283824920654,-1.5044288635253906,1.275752305984497
1772025049098727400,4.1427275390625,0.055633194744586945,-1.4832416772842407,1.5103156566619873
1772025049108724500,4.152724365234375,0.007159934379160404,-1.3619176149368286,1.6669790744781494
1772025049118721500,4.162721435546875,0.0015421051066368818,-1.1487431526184082,1.7210290431976318
1772025049128718600,4.172718505859375,0.03481270745396614,-0.9263609647750854,1.658543348312378
1772025049138715400,4.18271533203125,0.06666005402803421,-0.7454080581665039,1.5117522478103638
1772025049148712700,4.192712646484375,0.07053602486848831,-0.6574896574020386,1.3206685781478882
1772025049158709500,4.20270947265625,0.017975393682718277,-0.693986177444458,1.1398181915283203
1772025049168706600,4.21270654296875,-0.10171399265527725,-0.8681012392044067,1.0263206958770752
1772025049178703600,4.22270361328125,-0.257744163274765,-1.1799362897872925,1.0838247537612915
1772025049188700700,4.23270068359375,-0.36344558000564575,-1.4745657444000244,1.3897912502288818
1772025049198697500,4.242697509765625,-0.35329264402389526,-1.4045823812484741,1.7909291982650757
1772025049208694500,4.252694580078125,-0.325141966342926,-0.9182351231575012,1.9461313486099243
1772025049218691600,4.262691650390625,-0.3736320734024048,-0.44786661863327026,1.699772596359253
1772025049228688400,4.2726884765625,-0.3956204652786255,-0.1054413840174675,1.2686630487442017
1772025049238685700,4.282685791015625,-0.38950198888778687,-0.1434348076581955,0.7900189161300659
1772025049248682500,4.2926826171875,-0.5853090882301331,-0.5510755181312561,0.4924337863922119
1772025049258679600,4.302679443359375,-0.8171950578689575,-0.8000741600990295,0.6021165251731873
1772025049268676600,4.312676513671875,-0.882163941860199,-0.5074114203453064,0.9871933460235596
1772025049278673700,4.322673583984375,-0.8640539050102234,-0.2386714518070221,1.1437660455703735
1772025049288670500,4.33267041015625,-0.802579939365387,-0.4578392207622528,0.7830682992935181
1772025049298667800,4.342667724609375,-0.6733191013336182,-0.7784947752952576,0.12157225608825684
1772025049308664600,4.35266455078125,-0.488037645816803,-0.9856823086738586,-0.6607115864753723
1772025049318661400,4.362661376953125,-0.31722143292427063,-1.3675185441970825,-1.4772957563400269
1772025049328658700,4.37265869140625,-0.22363504767417908,-1.8364179134368896,-1.976926326751709
1772025049338655500,4.382655517578125,-0.19197095930576324,-2.1855268478393555,-1.9492943286895752
1772025049348652500,4.392652587890625,-0.25070351362228394,-2.5282599925994873,-1.5351262092590332
1772025049358649600,4.402649658203125,-0.3744105398654938,-2.802518129348755,-0.9515640139579773
1772025049368646700,4.412646728515625,-0.5178526639938354,-2.8853492736816406,-0.38834938406944275
1772025049378643500,4.4226435546875,-0.615251898765564,-2.770418167114258,-0.008598451502621174
1772025049388640800,4.432640869140625,-0.6466833353042603,-2.406426429748535,0.10689805448055267
1772025049398637600,4.442637451171875,-0.6331103444099426,-1.8206270933151245,-0.01688573509454727
1772025049408634600,4.452634521484375,-0.5694701075553894,-1.1534157991409302,-0.30820733308792114
1772025049418631700,4.462631591796875,-0.4723382890224457,-0.49373069405555725,-0.6798133850097656
1772025049428628500,4.47262841796875,-0.379852831363678,0.15410186350345612,-1.0392181873321533
1772025049438625500,4.48262548828125,-0.3250208795070648,0.6843168139457703,-1.3679693937301636
1772025049448622600,4.49262255859375,-0.3125365078449249,0.977370023727417,-1.6251075267791748
1772025049458619600,4.50261962890625,-0.34795692563056946,1.009837031364441,-1.7532137632369995
1772025049468616400,4.512616455078125,-0.4239153563976288,0.8744164109230042,-1.735298991203308
1772025049478613500,4.522613525390625,-0.5217961668968201,0.6309947371482849,-1.601607322692871
1772025049488610600,4.532610595703125,-0.6007815599441528,0.35878607630729675,-1.382338285446167
1772025049498607600,4.542607666015625,-0.6355202794075012,0.12495435774326324,-1.0996874570846558
1772025049508604400,4.5526044921875,-0.6424082517623901,-0.008147506043314934,-0.7988304495811462
1772025049518601700,4.562601806640625,-0.6200951933860779,-0.03781523182988167,-0.5156470537185669
1772025049528598500,4.5725986328125,-0.5681982040405273,-0.0012143414933234453,-0.2716149687767029
1772025049538595600,4.582595703125,-0.4942617118358612,0.08716411143541336,-0.07284915447235107
1772025049548589800,4.59258984375,-0.40914708375930786,0.19749248027801514,0.09649060666561127
1772025049558586600,4.602586669921875,-0.3186212480068207,0.27196720242500305,0.23887768387794495
1772025049568583700,4.612583740234375,-0.2633742392063141,0.30776461958885193,0.35334888100624084
1772025049578580700,4.622580810546875,-0.2549095153808594,0.3168328106403351,0.4173922538757324
1772025049588577800,4.632577880859375,-0.2890360653400421,0.31724053621292114,0.4383545219898224
1772025049598574600,4.64257470703125,-0.3533274233341217,0.26829761266708374,0.43334880471229553
1772025049608571600,4.652571533203125,-0.4202241599559784,0.14494957029819489,0.4689004123210907
1772025049618568700,4.662568603515625,-0.4101978838443756,-0.0033972766250371933,0.5626465082168579
1772025049628565800,4.672565673828125,-0.33302560448646545,-0.06811235845088959,0.6945545077323914
1772025049638562600,4.6825625,-0.20923562347888947,-0.09734931588172913,0.8567796349525452
1772025049648559600,4.6925595703125,-0.030478401109576225,-0.18332280218601227,1.0181317329406738
1772025049658556700,4.702556640625,0.21126341819763184,-0.2385159283876419,1.1517499685287476
1772025049668553500,4.712553466796875,0.43932509422302246,-0.4244652986526489,1.353018879890442
1772025049678550800,4.72255078125,0.578877866268158,-0.786255419254303,1.6189608573913574
1772025049688548600,4.732548583984375,0.44041407108306885,-1.5833392143249512,1.706630825996399
1772025049698545700,4.742545654296875,-0.10486332327127457,-2.7971274852752686,1.6443336009979248
1772025049708541700,4.752541748046875,-0.5846078395843506,-3.6121044158935547,1.6232153177261353
1772025049718539800,4.762539794921875,-0.683897078037262,-3.106840133666992,1.727855920791626
1772025049728536600,4.77253662109375,-0.38854750990867615,-1.8254015445709229,1.693060040473938
1772025049738533600,4.78253369140625,0.11531589180231094,-0.7535344362258911,1.1399580240249634
1772025049748530700,4.79253076171875,0.5650635957717896,0.088258296251297,0.05025320500135422
1772025049758527700,4.80252783203125,0.8718246817588806,0.7264444828033447,-1.2175395488739014
1772025049768524500,4.812524658203125,0.9931007623672485,0.7334091663360596,-2.238708734512329
1772025049778521900,4.82252197265625,0.9591279625892639,0.1102677583694458,-2.587958812713623
1772025049788518700,4.8325185546875,0.7905011177062988,-0.8844210505485535,-2.169994592666626
1772025049798515700,4.842515625,0.5557259917259216,-2.0679244995117188,-1.367910385131836
1772025049808512800,4.8525126953125,0.2711414098739624,-3.049710512161255,-0.7465000152587891
1772025049818509600,4.862509521484375,-0.010388613678514957,-3.3362810611724854,-0.6598561406135559
1772025049828506600,4.872506591796875,-0.2553962469100952,-2.7821364402770996,-1.2257225513458252
1772025049838503700,4.882503662109375,-0.4711577296257019,-1.4591803550720215,-2.2820372581481934
1772025049848500700,4.892500732421875,-0.5574034452438354,0.396622896194458,-3.397251844406128
1772025049858497500,4.90249755859375,-0.5101103186607361,2.30773663520813,-4.219616413116455
1772025049868494800,4.912494873046875,-0.417659193277359,3.764089584350586,-4.572037220001221
1772025049878491600,4.92249169921875,-0.3647361397743225,4.4730610847473145,-4.447375297546387
1772025049888488700,4.93248876953125,-0.31666475534439087,4.498610496520996,-3.935856342315674
1772025049898485800,4.94248583984375,-0.23316159844398499,3.989166259765625,-3.1414644718170166
1772025049908482800,4.95248291015625,-0.11730024963617325,3.111818552017212,-2.1948366165161133
1772025049918479600,4.962479736328125,-0.024339836090803146,2.036263942718506,-1.228196144104004
1772025049928476700,4.9724765625,0.015864042565226555,0.9679610133171082,-0.3429408371448517
1772025049938473700,4.9824736328125,0.02718523144721985,0.06691306084394455,0.4005241394042969
1772025049948470500,4.992470458984375,0.06299116462469101,-0.5869576930999756,0.9726837873458862
1772025049958467800,5.0024677734375,0.1310890018939972,-0.954668402671814,1.3645648956298828
1772025049968464600,5.012464599609375,0.23856192827224731,-1.0515960454940796,1.5742634534835815
1772025049978461700,5.022461669921875,0.38591650128364563,-0.925041675567627,1.6047722101211548
1772025049988458800,5.032458740234375,0.5363603830337524,-0.648135781288147,1.4858801364898682
1772025049998455800,5.042455810546875,0.6514244079589844,-0.3009640872478485,1.2715225219726562
1772025050008452600,5.05245263671875,0.6888817548751831,0.04172481968998909,1.0123754739761353
1772025050018449700,5.06244970703125,0.6264156699180603,0.2913910746574402,0.7770214676856995
1772025050028446700,5.07244677734375,0.4809205234050751,0.42268678545951843,0.6463478803634644
1772025050038443500,5.082443603515625,0.2776792347431183,0.4349970519542694,0.6255215406417847
1772025050048440600,5.092440673828125,0.08512123674154282,0.3729827105998993,0.7084987163543701
1772025050058437600,5.102437744140625,-0.06128714978694916,0.38127222657203674,0.8929340839385986
1772025050068434700,5.1124345703125,-0.10360318422317505,0.5269541144371033,1.1225907802581787
1772025050078431500,5.122431396484375,-0.08390051871538162,0.7459784746170044,1.2850871086120605
1772025050088428800,5.1324287109375,-0.06200507655739784,0.9043055176734924,1.293466567993164
1772025050098425600,5.142425537109375,-0.027276402339339256,1.1400994062423706,1.2521024942398071
1772025050108422700,5.152422607421875,0.0504990890622139,1.4026775360107422,1.270398736000061
1772025050118419700,5.162419677734375,0.1834130883216858,1.5387279987335205,1.4022350311279297
1772025050128416800,5.172416748046875,0.23745474219322205,1.5486983060836792,1.6657902002334595
1772025050138413600,5.18241357421875,0.10600753873586655,1.2634875774383545,1.9736196994781494
1772025050148411000,5.192410888671875,-0.17450188100337982,0.5855714082717896,2.166144609451294
1772025050158407700,5.20240771484375,-0.6568208932876587,-0.3112699091434479,2.2297048568725586
1772025050168404500,5.212404541015625,-1.1596544981002808,-1.0947481393814087,2.3445374965667725
1772025050178401800,5.22240185546875,-1.381791591644287,-1.4488049745559692,2.508577585220337
1772025050188398600,5.232398681640625,-1.2269068956375122,-1.043847918510437,2.6654317378997803
1772025050198395600,5.242395751953125,-0.8478027582168579,-0.3086560368537903,2.538907527923584
1772025050208392700,5.252392822265625,-0.4687475562095642,0.1423867791891098,1.9600526094436646
1772025050218389800,5.2623896484375,-0.11106407642364502,0.3745075464248657,1.0080865621566772
1772025050228386600,5.272386474609375,0.0940973311662674,0.37354642152786255,-0.24907612800598145
1772025050238383900,5.2823837890625,0.1707385927438736,0.08810220658779144,-1.475082516670227
1772025050248380700,5.292380615234375,0.30906715989112854,-0.2724940776824951,-2.1324503421783447
1772025050258377700,5.302377685546875,0.4753735661506653,-0.5834823846817017,-2.0210652351379395
1772025050268374800,5.312374755859375,0.5792360305786133,-0.9422666430473328,-1.294330358505249
1772025050278371600,5.32237158203125,0.5794668197631836,-1.3599681854248047,-0.25411781668663025
1772025050288368600,5.33236865234375,0.5175232887268066,-1.771381139755249,0.6870403289794922
1772025050298365700,5.34236572265625,0.4685518741607666,-1.9792630672454834,1.1594966650009155
1772025050308362800,5.35236279296875,0.43225300312042236,-1.8061045408248901,1.1343505382537842
1772025050318359600,5.362359619140625,0.4356135427951813,-1.2401374578475952,0.7568649649620056
1772025050328356900,5.37235693359375,0.49603959918022156,-0.3607020378112793,0.18489359319210052
1772025050338353700,5.382353759765625,0.5713042616844177,0.6478794813156128,-0.44878438115119934
1772025050348350700,5.392350830078125,0.6235440373420715,1.5765985250473022,-1.0196223258972168
1772025050358347800,5.40234765625,0.616620659828186,2.2776873111724854,-1.4371076822280884
1772025050368344800,5.4123447265625,0.5415922403335571,2.6091833114624023,-1.66098952293396
1772025050378341600,5.422341552734375,0.4605007469654083,2.5524070262908936,-1.675618052482605
1772025050388338700,5.432338623046875,0.39015308022499084,2.173466444015503,-1.502408742904663
1772025050398335700,5.442335693359375,0.29596638679504395,1.5897371768951416,-1.2081624269485474
1772025050408332500,5.45233251953125,0.18693256378173828,0.9302453398704529,-0.8639118671417236
1772025050418329600,5.46232958984375,0.10702681541442871,0.3549351692199707,-0.5318148732185364
1772025050428326700,5.47232666015625,0.1132785826921463,0.008111420087516308,-0.23433817923069
1772025050438323700,5.48232373046875,0.18856798112392426,-0.08581874519586563,0.0035133897326886654
1772025050448320500,5.492320556640625,0.27326127886772156,0.023082973435521126,0.17340229451656342
1772025050458317800,5.50231787109375,0.3682962656021118,0.3270810842514038,0.2724170386791229
1772025050468315600,5.512315673828125,0.47259417176246643,0.713198184967041,0.3019205927848816
1772025050478312700,5.522312744140625,0.5827608108520508,1.0776188373565674,0.2887595295906067
1772025050488309500,5.5323095703125,0.6833279132843018,1.4001634120941162,0.27713510394096375
1772025050498306800,5.542306884765625,0.7104916572570801,1.5931591987609863,0.30669617652893066
1772025050508303600,5.5523037109375,0.6103620529174805,1.4826828241348267,0.36486557126045227
1772025050518300700,5.56230078125,0.42974743247032166,1.0892612934112549,0.4716067910194397
1772025050528297700,5.572297607421875,0.23109692335128784,0.5576006174087524,0.656750500202179
1772025050538294800,5.582294677734375,0.05328218638896942,0.04150078445672989,0.8963070511817932
1772025050548294700,5.592294677734375,-0.06843306124210358,-0.2678224444389343,1.0881116390228271
1772025050558291700,5.602291748046875,-0.212034210562706,-0.23827797174453735,1.102413535118103
1772025050568288500,5.61228857421875,-0.29505372047424316,0.1552022248506546,0.8851947784423828
1772025050578285600,5.62228564453125,-0.16475814580917358,0.8168788552284241,0.4687007665634155
1772025050588282600,5.63228271484375,0.057630449533462524,1.1357327699661255,-0.1604827493429184
1772025050598279700,5.64227978515625,0.09870288521051407,0.573478102684021,-0.9881578683853149
1772025050608276500,5.6522763671875,-0.21528062224388123,-0.43920135498046875,-1.7284125089645386
1772025050618273500,5.6622734375,-0.9760657548904419,-1.29039466381073,-2.0296781063079834
1772025050628270600,5.6722705078125,-1.66996169090271,-1.1231087446212769,-1.6073044538497925
1772025050638267400,5.682267333984375,-1.892583966255188,-0.060705043375492096,-0.5975310802459717
1772025050648264700,5.6922646484375,-1.6970075368881226,1.052865982055664,0.42674192786216736
1772025050658261500,5.702261474609375,-1.2454001903533936,1.8647010326385498,1.090696930885315
1772025050668258600,5.712258544921875,-0.5150183439254761,2.3112192153930664,1.269622802734375
1772025050678255600,5.722255615234375,0.37613651156425476,2.2533881664276123,0.887618362903595
1772025050688252700,5.732252685546875,1.05782151222229,1.5649590492248535,0.013552138581871986
1772025050698249500,5.74224951171875,1.3208870887756348,0.5447975397109985,-1.0265371799468994
1772025050708246800,5.752246826171875,1.273879885673523,-0.47226232290267944,-1.7648032903671265
1772025050718243600,5.76224365234375,1.0802804231643677,-1.2107535600662231,-1.8740483522415161
1772025050728240400,5.772240478515625,0.8512986898422241,-1.669081449508667,-1.4505265951156616
1772025050738237700,5.78223779296875,0.700356125831604,-1.8238404989242554,-0.731145441532135
1772025050748234500,5.792234375,0.6904773712158203,-1.7319854497909546,0.01835784502327442
1772025050758231600,5.8022314453125,0.8247613906860352,-1.482325553894043,0.49552080035209656
1772025050768228600,5.812228515625,0.9777264595031738,-1.012405276298523,0.59101802110672
1772025050778225700,5.8222255859375,1.107299566268921,-0.3288699984550476,0.397955060005188
1772025050788222500,5.832222412109375,1.1735776662826538,0.3685644865036011,0.042835839092731476
1772025050798219800,5.8422197265625,1.1535954475402832,0.9368628859519958,-0.32232630252838135
1772025050808216600,5.852216552734375,1.0479110479354858,1.2597676515579224,-0.6020708680152893
1772025050818213600,5.862213623046875,0.8660851120948792,1.3176496028900146,-0.7311225533485413
1772025050828210700,5.872210693359375,0.6561896800994873,1.2265287637710571,-0.6870917081832886
1772025050838207500,5.88220751953125,0.4975253641605377,1.1043577194213867,-0.5260049104690552
1772025050848204500,5.89220458984375,0.4087299704551697,1.0301620960235596,-0.3120180368423462
1772025050858201600,5.90220166015625,0.3873077929019928,1.0123589038848877,-0.10514712333679199
1772025050868198700,5.91219873046875,0.4427739679813385,1.0597426891326904,0.03831816464662552
1772025050878195500,5.922195556640625,0.48248156905174255,1.1661545038223267,0.076802097260952
1772025050888192800,5.93219287109375,0.4181063175201416,1.298892855644226,0.052184365689754486
1772025050898190600,5.942190673828125,0.221720352768898,1.3445543050765991,0.0353071428835392
1772025050908187600,5.952187744140625,-0.020816124975681305,1.3251720666885376,0.08851683884859085
1772025050918184400,5.962184326171875,-0.240778386592865,1.2346041202545166,0.18737001717090607
1772025050928181800,5.972181640625,-0.4330735206604004,1.0478938817977905,0.3354359269142151
1772025050938178600,5.982178466796875,-0.5132641792297363,0.8547962307929993,0.4804105758666992
1772025050948175600,5.992175537109375,-0.46668896079063416,0.7140769362449646,0.5393202304840088
1772025050958172700,6.002172607421875,-0.37958618998527527,0.709556519985199,0.5315240621566772
1772025050968169700,6.012169677734375,-0.3481332063674927,0.6411875486373901,0.5653342008590698
1772025050978166500,6.02216650390625,-0.38739174604415894,0.5739703178405762,0.6337136626243591
1772025050988163600,6.03216357421875,-0.5032044053077698,0.6413576006889343,0.8309947848320007
1772025050998160600,6.04216064453125,-0.6369353532791138,0.8703483939170837,1.170957326889038
1772025051008157400,6.052157470703125,-0.5592224597930908,1.075956106185913,1.451583981513977
1772025051018154500,6.062154541015625,-0.062067605555057526,1.318328619003296,1.6295193433761597
1772025051028151600,6.072151611328125,0.8266438841819763,2.392072916030884,1.675309181213379
1772025051038148600,6.082148681640625,1.5604983568191528,3.2613723278045654,1.5856178998947144
1772025051048145400,6.0921455078125,1.772878885269165,2.4145350456237793,0.921536922454834
1772025051058142700,6.102142822265625,1.5398571491241455,0.340618759393692,-0.0003660492366179824
1772025051068139500,6.112139404296875,1.1298686265945435,-0.5431733727455139,-0.23946091532707214
1772025051078136600,6.122136474609375,0.43951863050460815,-0.1796535700559616,-0.354896605014801
1772025051088133600,6.132133544921875,-0.2504827082157135,-0.13013821840286255,-0.7272509932518005
1772025051098130700,6.142130615234375,-0.5645302534103394,-0.13200734555721283,-1.27183198928833
1772025051108127500,6.15212744140625,-0.43069523572921753,0.8776859641075134,-1.4546760320663452
1772025051118124500,6.16212451171875,-0.15537555515766144,2.0932838916778564,-1.1360992193222046
1772025051128121600,6.17212158203125,-0.27121108770370483,2.373044490814209,-0.5952572226524353
1772025051138118400,6.182118408203125,-0.6990661025047302,1.3225903511047363,-0.0690932348370552
1772025051148115700,6.19211572265625,-1.101417899131775,-0.6623134016990662,0.29199597239494324
1772025051158112500,6.202112548828125,-1.3042734861373901,-2.78452730178833,0.3320395350456238
1772025051168109600,6.212109619140625,-1.2383975982666016,-4.418422698974609,0.20998767018318176
1772025051178106600,6.222106689453125,-0.9887471795082092,-5.503774166107178,0.08906444162130356
1772025051188103700,6.232103759765625,-0.7801878452301025,-5.881419658660889,-0.13120906054973602
1772025051198100500,6.2421005859375,-0.6517683267593384,-5.437754154205322,-0.6223388314247131
1772025051208097800,6.252097900390625,-0.5906242728233337,-4.282222747802734,-1.375819444656372
1772025051218094600,6.262094482421875,-0.6388325095176697,-2.735626697540283,-2.232719898223877
1772025051228091600,6.272091552734375,-0.7538581490516663,-1.0843740701675415,-2.9755260944366455
1772025051238088700,6.282088623046875,-0.8447442650794983,0.4278263747692108,-3.4513845443725586
1772025051248085500,6.29208544921875,-0.9082283973693848,1.4757541418075562,-3.5973615646362305
1772025051258082600,6.30208251953125,-0.9979470372200012,1.8212755918502808,-3.4043467044830322
1772025051268079600,6.31207958984375,-1.1246209144592285,1.4761781692504883,-2.8257315158843994
1772025051278076700,6.32207666015625,-1.202233076095581,0.6985579133033752,-1.9930816888809204
1772025051288073500,6.332073486328125,-1.2092276811599731,-0.09608616679906845,-0.9983753561973572
1772025051298070800,6.34207080078125,-1.1279422044754028,-0.7018418908119202,-0.03060203604400158
1772025051308067600,6.352067626953125,-0.9086204171180725,-1.1145743131637573,0.7491545081138611
1772025051318064600,6.362064697265625,-0.5722679495811462,-1.3755393028259277,1.2498064041137695
1772025051328061700,6.372061767578125,-0.2207554280757904,-1.4166315793991089,1.4977620840072632
1772025051338058800,6.382058837890625,0.08789751678705215,-1.1208041906356812,1.5376590490341187
1772025051348055600,6.3920556640625,0.362038791179657,-0.5715234875679016,1.4298955202102661
1772025051358052600,6.402052490234375,0.5704832077026367,0.05806431919336319,1.2621606588363647
1772025051368049700,6.412049560546875,0.6328738331794739,0.5591516494750977,1.1161587238311768
1772025051378046500,6.42204638671875,0.5175939202308655,0.8608817458152771,1.0237876176834106
1772025051388043500,6.43204345703125,0.3045703172683716,0.9459550976753235,1.0055040121078491
1772025051398040600,6.44204052734375,0.08815459907054901,0.8556782603263855,1.0445555448532104
1772025051408037600,6.45203759765625,-0.09653428941965103,0.6544024348258972,1.099796175956726
1772025051418034400,6.462034423828125,-0.1991756409406662,0.4484488070011139,1.1920057535171509
1772025051428031700,6.47203173828125,-0.15063394606113434,0.36936596035957336,1.33537757396698
1772025051438028500,6.482028564453125,0.03534553945064545,0.3709888160228729,1.5122731924057007
1772025051448025600,6.492025634765625,0.27781781554222107,0.3376982510089874,1.7212295532226562
1772025051458022700,6.502022705078125,0.48642709851264954,0.21284626424312592,1.95217764377594
1772025051468019500,6.51201953125,0.6474993824958801,-0.09290594607591629,2.148144006729126
1772025051478016500,6.5220166015625,0.7040307521820068,-0.5807802677154541,2.207468032836914
1772025051488013600,6.532013671875,0.6249324679374695,-0.8630028963088989,2.196328639984131
1772025051498010600,6.5420107421875,0.46993377804756165,-0.6060890555381775,2.1116840839385986
1772025051508007400,6.55200732421875,0.3009277284145355,0.17091403901576996,1.9721537828445435
1772025051518005500,6.562005615234375,0.12424100190401077,1.0788323879241943,1.7497540712356567
1772025051528002600,6.57200244140625,0.023914126679301262,1.8561837673187256,1.455038070678711
1772025051537999600,6.58199951171875,-0.07554752379655838,1.9658104181289673,1.0577250719070435
1772025051547992800,6.591992919921875,-0.1715875118970871,1.041074275970459,0.44690054655075073
1772025051557990100,6.601990234375,-0.18622048199176788,0.4890681207180023,-0.060052093118429184
1772025051567987000,6.611987060546875,-0.13785667717456818,0.21446987986564636,-0.26075032353401184
1772025051577984000,6.62198388671875,-0.06265220046043396,-0.25099557638168335,-0.29354357719421387
1772025051587981000,6.63198095703125,-0.01861363649368286,-0.5965324640274048,-0.26634684205055237
1772025051597977900,6.641977783203125,0.0242032278329134,-1.0024820566177368,-0.31748834252357483
1772025051607975000,6.651974853515625,0.08469293266534805,-1.6098642349243164,-0.532021701335907
1772025051617972000,6.661971923828125,0.22733616828918457,-2.198629140853882,-0.8869162201881409
1772025051627969000,6.671968994140625,0.47553879022598267,-2.5154967308044434,-1.2308189868927002
1772025051637965800,6.6819658203125,0.7022513747215271,-2.6703672409057617,-1.3749154806137085
1772025051647963100,6.691963134765625,0.787290096282959,-2.683164596557617,-1.228827714920044
1772025051657960000,6.7019599609375,0.7301798462867737,-2.543827533721924,-0.8505528569221497
1772025051667957000,6.71195703125,0.5699387788772583,-2.2763121128082275,-0.39641308784484863
1772025051677954000,6.7219541015625,0.3654925227165222,-1.9758867025375366,-0.058068856596946716
1772025051687951000,6.731951171875,0.144484743475914,-1.6574301719665527,0.03005540929734707
1772025051697948000,6.741947998046875,-0.06757838279008865,-1.1731719970703125,-0.14485520124435425
1772025051707945000,6.751945068359375,-0.22074264287948608,-0.5387612581253052,-0.4913758635520935
1772025051717942000,6.76194189453125,-0.301475465297699,0.15051452815532684,-0.8598160147666931
1772025051727938800,6.771938720703125,-0.3316187262535095,0.7900819778442383,-1.1408010721206665
1772025051737936100,6.78193603515625,-0.3305588662624359,1.3057478666305542,-1.3131287097930908
1772025051747933000,6.791932861328125,-0.32826775312423706,1.582529067993164,-1.4134100675582886
1772025051757930000,6.801929931640625,-0.3469214141368866,1.608749508857727,-1.4307289123535156
1772025051767927000,6.811927001953125,-0.39938995242118835,1.4706478118896484,-1.3749607801437378
1772025051777924000,6.821924072265625,-0.4447024166584015,1.1951619386672974,-1.2045328617095947
1772025051787921000,6.8319208984375,-0.48918014764785767,0.8252448439598083,-0.9019622802734375
1772025051797918200,6.841918212890625,-0.49555546045303345,0.4641207754611969,-0.4965122938156128
1772025051807915000,6.8519150390625,-0.4516633450984955,0.19646695256233215,-0.0267074853181839
1772025051817911800,6.861911865234375,-0.3869149386882782,0.03940611332654953,0.46481022238731384
1772025051827909000,6.8719091796875,-0.3302455544471741,0.009695622138679028,0.8979515433311462
1772025051837906000,6.881906005859375,-0.2770998775959015,0.08498646318912506,1.1986559629440308
1772025051847903000,6.891903076171875,-0.2522006630897522,0.2310081124305725,1.3552764654159546
1772025051857900000,6.901900146484375,-0.2676085829734802,0.359973281621933,1.3657262325286865
1772025051867897000,6.91189697265625,-0.2884694039821625,0.4126356840133667,1.2584165334701538
1772025051877894000,6.921893798828125,-0.3128470182418823,0.3999817669391632,1.107391119003296
1772025051887891000,6.931890869140625,-0.3767338693141937,0.3679940104484558,0.9467744827270508
1772025051897888000,6.941887939453125,-0.4679979085922241,0.2844751179218292,0.7906090617179871
1772025051907885000,6.951885009765625,-0.5245283246040344,0.18667557835578918,0.6886008977890015
1772025051917881900,6.9618818359375,-0.4942380487918854,0.11978881061077118,0.6811268925666809
1772025051927879000,6.97187890625,-0.3617284893989563,0.19162438809871674,0.6781342625617981
1772025051937876000,6.9818759765625,-0.14870081841945648,0.5793587565422058,0.5509911775588989
1772025051947872800,6.991872802734375,0.03739768639206886,1.1364816427230835,0.30436888337135315
1772025051957870000,7.0018701171875,0.08584567904472351,1.410980224609375,0.05785923823714256
1772025051967867000,7.011866943359375,0.14473561942577362,1.4511044025421143,0.07987799495458603
1772025051977864000,7.021864013671875,0.36986100673675537,0.9857633709907532,0.29780226945877075
1772025051987861000,7.031861083984375,0.5573300123214722,-0.20706622302532196,0.4704248905181885
1772025051997858000,7.041858154296875,0.34079957008361816,-1.6398383378982544,0.6081295013427734
1772025052007854800,7.051854736328125,-0.08832837641239166,-2.8717758655548096,0.5300983190536499
1772025052017852200,7.06185205078125,-0.22547118365764618,-2.681893825531006,0.5382757782936096
1772025052027849000,7.071848876953125,0.018130026757717133,-1.516684889793396,0.6713704466819763
1772025052037846000,7.081845947265625,0.35775741934776306,-0.25681793689727783,0.7617455124855042
1772025052047843000,7.091843017578125,0.5485638380050659,0.5833667516708374,0.7928645014762878
1772025052057839900,7.10183984375,0.5152268409729004,0.7369189858436584,0.7825564742088318
1772025052067837000,7.1118369140625,0.3899775743484497,0.022426115348935127,0.7127981781959534
1772025052077834000,7.121833984375,0.3162272870540619,-1.2157503366470337,0.6140860319137573
1772025052087831000,7.1318310546875,0.25470054149627686,-2.3901021480560303,0.5631346702575684
1772025052097827800,7.141827880859375,0.19252893328666687,-3.183567523956299,0.6872158050537109
1772025052107825200,7.1518251953125,0.1655292809009552,-3.5415916442871094,0.9819111227989197
1772025052117822000,7.161822021484375,0.20760241150856018,-3.5556325912475586,1.275638222694397
1772025052127819000,7.171819091796875,0.357901930809021,-3.1317389011383057,1.3481552600860596
1772025052137816000,7.181816162109375,0.542975902557373,-2.295166492462158,0.9692062139511108
1772025052147813000,7.191813232421875,0.678890585899353,-1.1401972770690918,0.18744464218616486
1772025052157810000,7.201809814453125,0.7146338224411011,0.10668312758207321,-0.726844072341919
1772025052167807000,7.211806884765625,0.6488401293754578,1.2077628374099731,-1.5542429685592651
1772025052177804000,7.221803955078125,0.5370196104049683,2.0379419326782227,-2.1773529052734375
1772025052187800800,7.23180078125,0.4298132658004761,2.5540056228637695,-2.5632293224334717
1772025052197798000,7.2417978515625,0.33288007974624634,2.764253854751587,-2.742638349533081
1772025052207795000,7.251794921875,0.28486835956573486,2.7028300762176514,-2.7589075565338135
1772025052217792000,7.2617919921875,0.32310134172439575,2.431553602218628,-2.6360673904418945
1772025052227788800,7.271788818359375,0.43826520442962646,2.061756134033203,-2.349830150604248
1772025052237786000,7.2817861328125,0.5787376761436462,1.6846957206726074,-1.9323406219482422
1772025052247783000,7.291782958984375,0.7343014478683472,1.3837494850158691,-1.4369007349014282
1772025052257780000,7.301780029296875,0.8861290216445923,1.1814697980880737,-0.9127910733222961
1772025052267777000,7.311777099609375,1.0158638954162598,1.0688444375991821,-0.4000745117664337
1772025052277773800,7.32177392578125,1.1036863327026367,0.9859735369682312,0.023499485105276108
1772025052287771000,7.33177099609375,1.1208077669143677,0.9087043404579163,0.35314661264419556
1772025052297768000,7.341767822265625,1.0663272142410278,0.8618729710578918,0.5729030966758728
1772025052307765000,7.351764892578125,0.9683060646057129,0.857158362865448,0.6810817122459412
1772025052317761800,7.36176171875,0.8294659852981567,0.8613778352737427,0.7004155516624451
1772025052327759000,7.371759033203125,0.682559072971344,0.8919352293014526,0.6665183305740356
1772025052337756000,7.381755859375,0.5633537769317627,0.9509210586547852,0.6110190153121948
1772025052347753000,7.3917529296875,0.47078847885131836,1.0386348962783813,0.5968656539916992
1772025052357750000,7.40175,0.38593438267707825,1.141994833946228,0.6405791640281677
1772025052367748000,7.411748046875,0.3267839848995209,1.2492234706878662,0.7535813450813293
1772025052377745000,7.421744873046875,0.2872154414653778,1.296114206314087,0.9488505721092224
1772025052387742000,7.431741943359375,0.21606536209583282,1.26010000705719,1.1743985414505005
1772025052397739000,7.441739013671875,0.06336328387260437,1.228655457496643,1.3241716623306274
1772025052407736000,7.451736083984375,-0.1319793164730072,1.2186555862426758,1.3515089750289917
1772025052417732900,7.46173291015625,-0.1619366705417633,1.2893937826156616,1.2955702543258667
1772025052427730200,7.471730224609375,0.15577605366706848,1.2542285919189453,1.355854868888855
1772025052437727000,7.48172705078125,0.6056828498840332,0.7857769131660461,1.5856521129608154
1772025052447723800,7.491723876953125,0.8017144203186035,-0.1802101731300354,1.883439302444458
1772025052457721000,7.50172119140625,0.4700791537761688,-1.1933280229568481,1.873429775238037
1772025052467718000,7.5117177734375,0.020580708980560303,-1.616254210472107,1.486554741859436
1772025052477715000,7.52171484375,-0.1422349512577057,-0.8789640665054321,1.1020735502243042
1772025052487712000,7.5317119140625,-0.18684716522693634,-0.055842265486717224,0.7651685476303101
1772025052497709000,7.541708984375,-0.23738445341587067,0.16606804728507996,0.36866867542266846
1772025052507705900,7.551705810546875,-0.25081610679626465,-0.12025932222604752,-0.09317032247781754
1772025052517703200,7.561703125,-0.16782164573669434,-0.6047525405883789,-0.6061252355575562
1772025052527700000,7.571699951171875,0.12002585828304291,-1.202394962310791,-1.2061067819595337
1772025052537697000,7.581697021484375,0.5970832705497742,-1.773241400718689,-1.7203694581985474
1772025052547694000,7.591694091796875,1.038257122039795,-2.2766849994659424,-2.008927822113037
1772025052557691000,7.60169091796875,1.2364405393600464,-2.6605191230773926,-2.07893443107605
1772025052567687700,7.611687744140625,1.1347371339797974,-2.824294090270996,-1.9559497833251953
1772025052577685000,7.62168505859375,0.7807127833366394,-2.601119041442871,-1.5735998153686523
1772025052587681800,7.631681884765625,0.3501477837562561,-2.1882107257843018,-1.0241649150848389
1772025052597678800,7.641678955078125,0.03542479872703552,-1.7798670530319214,-0.48442739248275757
1772025052607676000,7.651676025390625,-0.07583355158567429,-1.3615614175796509,-0.10585849732160568
1772025052617673000,7.6616728515625,-0.0004139161901548505,-0.8526544570922852,-0.026526931673288345
1772025052627669800,7.671669677734375,0.21719990670681,-0.26839664578437805,-0.2343752086162567
1772025052637666800,7.681666748046875,0.5229551792144775,0.32875746488571167,-0.5937692523002625
1772025052647663900,7.691663818359375,0.8042619228363037,0.8602538704872131,-0.9742542505264282
1772025052657661000,7.701660888671875,0.9748093485832214,1.161947250366211,-1.2604727745056152
1772025052667657700,7.71165771484375,1.0232959985733032,1.2378442287445068,-1.3628736734390259
1772025052677654800,7.72165478515625,0.9839722514152527,1.172842264175415,-1.3147764205932617
1772025052687651800,7.73165185546875,0.8485025763511658,1.0216730833053589,-1.1242233514785767
1772025052697648600,7.741648681640625,0.6710329651832581,0.9184319972991943,-0.7529110312461853
1772025052707646000,7.75164599609375,0.5864594578742981,0.889165997505188,-0.23874755203723907
1772025052717642800,7.761642822265625,0.5999433398246765,0.8758110404014587,0.3048750162124634
1772025052727639800,7.771639892578125,0.6469766497612,0.8880663514137268,0.7592102289199829
1772025052737636900,7.781636962890625,0.6844184398651123,0.9541704654693604,1.0279152393341064
1772025052747634000,7.791634033203125,0.6953490972518921,1.039697289466858,1.1102031469345093
1772025052757630700,7.801630615234375,0.6801402568817139,1.1317691802978516,1.0508095026016235
1772025052767628000,7.8116279296875,0.623346745967865,1.2048494815826416,0.8895716667175293
1772025052777624800,7.821624755859375,0.526796817779541,1.2299929857254028,0.6526772379875183
1772025052787621600,7.83162158203125,0.42999884486198425,1.2318506240844727,0.3912586569786072
1772025052797619000,7.841618896484375,0.3760891854763031,1.2274422645568848,0.17249245941638947
1772025052807615700,7.85161572265625,0.35591039061546326,1.2198150157928467,-0.005669018253684044
1772025052817612800,7.86161279296875,0.34877416491508484,1.2099720239639282,-0.10752631723880768
1772025052827609900,7.87160986328125,0.40255242586135864,1.2982462644577026,-0.07012275606393814
1772025052837607000,7.88160693359375,0.5330865979194641,1.5865895748138428,0.10432235896587372
1772025052847603700,7.891603759765625,0.699115514755249,2.0097250938415527,0.2867906987667084
1772025052857601000,7.90160107421875,0.8834338784217834,2.3456614017486572,0.37624064087867737
1772025052867597800,7.911597900390625,1.0546290874481201,2.321634292602539,0.4440484344959259
1772025052877595000,7.921594970703125,1.1226670742034912,1.8751683235168457,0.5952480435371399
1772025052887592000,7.931592041015625,1.1209056377410889,1.3012049198150635,0.8764437437057495
1772025052897589000,7.941589111328125,1.0452147722244263,0.8183656930923462,1.1204723119735718
1772025052907585800,7.951585693359375,0.8893932104110718,0.24464625120162964,0.8985406756401062
1772025052917582800,7.961582763671875,0.6061243414878845,0.1158420667052269,0.18277256190776825
1772025052927580000,7.971579833984375,0.25713494420051575,0.6803666949272156,-0.6438350677490234
1772025052937576700,7.98157666015625,0.23745867609977722,1.7757278680801392,-1.1413064002990723
1772025052947574000,7.991573974609375,0.4274320602416992,2.9383487701416016,-1.2544153928756714
1772025052957570800,8.00157080078125,0.5248018503189087,3.553652048110962,-1.2416549921035767
1772025052967568000,8.01156787109375,0.49691516160964966,3.5223445892333984,-1.3154218196868896
1772025052977565000,8.02156494140625,0.4184790253639221,2.899531602859497,-1.4522373676300049
1772025052987562000,8.03156201171875,0.2796303331851959,1.5402389764785767,-1.5175203084945679
1772025052997558800,8.041558837890625,0.21314464509487152,-0.12427026033401489,-1.3169093132019043
1772025053007555800,8.051555908203126,0.39410966634750366,-1.8355863094329834,-0.7597187757492065
1772025053017553000,8.061552978515625,0.7281487584114075,-3.2552363872528076,0.07650218904018402
1772025053027549700,8.0715498046875,1.0441904067993164,-4.05375337600708,1.0161250829696655
1772025053037546800,8.081546630859375,1.3028290271759033,-3.958336114883423,1.7392657995224
1772025053047543800,8.091543701171876,1.5133260488510132,-3.051567316055298,1.8493608236312866
1772025053057540900,8.101540771484375,1.7227674722671509,-1.700005292892456,1.3128377199172974
1772025053067537700,8.11153759765625,1.9494868516921997,-0.23713171482086182,0.4077688455581665
1772025053077535000,8.121534912109375,2.2165768146514893,1.1024366617202759,-0.5283608436584473
1772025053087531800,8.13153173828125,2.4730477333068848,2.169684886932373,-1.2096054553985596
1772025053097528800,8.14152880859375,2.644651412963867,2.860960006713867,-1.4685662984848022
1772025053107526000,8.15152587890625,2.663849353790283,3.0594966411590576,-1.3239526748657227
1772025053117523000,8.16152294921875,2.509476661682129,2.7304913997650146,-0.9392649531364441
1772025053127519700,8.171519775390625,2.2159998416900635,2.163231372833252,-0.4396916329860687
1772025053137516800,8.181516845703126,1.9071601629257202,1.6175073385238647,0.10509339720010757
1772025053147513900,8.191513916015625,1.661651611328125,1.2055230140686035,0.5581184029579163
1772025053157510700,8.2015107421875,1.4782294034957886,0.9002931714057922,0.9150041341781616
1772025053167508700,8.2115087890625,1.3080065250396729,0.7687367796897888,1.2382749319076538
1772025053177505800,8.221505859375,1.1570088863372803,0.7644110321998596,1.4755676984786987
1772025053187502800,8.2315029296875,1.042101502418518,0.9189808964729309,1.5925637483596802
1772025053197499600,8.241499755859374,0.9951055645942688,1.3211629390716553,1.5802148580551147
1772025053207497000,8.2514970703125,0.9322546720504761,1.815643548965454,1.4906154870986938
1772025053217493800,8.26149365234375,0.8446765542030334,2.1862759590148926,1.383690595626831
1772025053227490800,8.27149072265625,0.7756415605545044,2.294311761856079,1.2357256412506104
1772025053237487900,8.28148779296875,0.7647783756256104,2.1141090393066406,1.0899993181228638
1772025053247485000,8.29148486328125,0.7919878959655762,1.816243290901184,0.9563128352165222
1772025053257481700,8.301481689453125,0.7869203090667725,1.6016485691070557,0.8553445339202881
1772025053267479000,8.31147900390625,0.6957032680511475,1.616486668586731,0.791395366191864
1772025053277475800,8.321475830078125,0.5372191071510315,1.824278712272644,0.6754114031791687
1772025053287473000,8.331472900390626,0.5001785159111023,2.099355459213257,0.591182291507721
1772025053297470000,8.341469970703125,0.5919792056083679,2.282750368118286,0.5583510994911194
1772025053307466800,8.351466796875,0.6631876230239868,2.078453779220581,0.5936105847358704
1772025053317463800,8.3614638671875,0.6192851662635803,1.3175865411758423,0.6134118437767029
1772025053327460900,8.3714609375,0.4676133394241333,0.21849969029426575,0.6075089573860168
1772025053337458000,8.3814580078125,0.35218629240989685,-0.4203869104385376,0.6914829015731812
1772025053347454700,8.391454833984374,0.4154520630836487,-0.37686285376548767,0.6938357949256897
1772025053357452000,8.4014521484375,0.47811585664749146,-0.06013036146759987,0.21973982453346252
1772025053367448800,8.41144873046875,0.4332836866378784,0.2954791486263275,-0.7918440699577332
1772025053377446000,8.42144580078125,0.24187296628952026,0.9561641216278076,-1.8602869510650635
1772025053387443000,8.43144287109375,0.07615803182125092,1.603134036064148,-2.5710771083831787
1772025053397440000,8.44143994140625,0.0431227907538414,2.134992837905884,-2.7302942276000977
1772025053407436800,8.451436767578125,0.08696427941322327,2.2742743492126465,-2.3912601470947266
1772025053417433900,8.461433837890626,0.14201237261295319,2.069826126098633,-1.9632996320724487
1772025053427431000,8.471430908203125,0.1955443173646927,1.6030495166778564,-1.7621822357177734
1772025053437427700,8.481427734375,0.33434101939201355,0.7700706720352173,-1.7534104585647583
1772025053447424800,8.4914248046875,0.6058487296104431,-0.35188257694244385,-1.8837767839431763
1772025053457421800,8.501421875,1.0386813879013062,-1.2124145030975342,-2.0447638034820557
1772025053467419000,8.5114189453125,1.4838812351226807,-1.6303534507751465,-1.9819105863571167
1772025053477415700,8.521415771484374,1.7679823637008667,-1.6198880672454834,-1.6600003242492676
1772025053487413000,8.5314130859375,1.8332984447479248,-1.263720989227295,-1.194567084312439
1772025053497409800,8.541409912109375,1.7462742328643799,-0.7190241813659668,-0.7558643221855164
1772025053507406800,8.55140673828125,1.6286160945892334,-0.1544843465089798,-0.478486031293869
1772025053517404000,8.56140380859375,1.5628294944763184,0.36558422446250916,-0.47173911333084106
1772025053527400700,8.571400634765626,1.6127009391784668,0.8298461437225342,-0.6550604104995728
1772025053537397800,8.581397705078125,1.7320047616958618,1.1489821672439575,-0.9310718774795532
1772025053547394300,8.591394287109376,1.8562476634979248,1.2927793264389038,-1.1096453666687012
1772025053557391400,8.601391357421875,1.9291281700134277,1.2193527221679688,-1.0508428812026978
1772025053567388400,8.611388427734376,1.9333540201187134,0.9142224192619324,-0.7334399223327637
1772025053577385500,8.621385498046875,1.868761420249939,0.4030812978744507,-0.23033249378204346
1772025053587382300,8.63138232421875,1.7357144355773926,-0.2067522406578064,0.3832356035709381
1772025053597379300,8.64137939453125,1.5654807090759277,-0.7117257118225098,1.0234023332595825
1772025053607376400,8.65137646484375,1.3463802337646484,-0.9706536531448364,1.6671130657196045
1772025053617373400,8.66137353515625,1.0880932807922363,-0.9547584056854248,2.195967197418213
1772025053627370200,8.671370361328124,0.8372117280960083,-0.7520231604576111,2.5036730766296387
1772025053637367300,8.6813671875,0.63801109790802,-0.4228428900241852,2.6065871715545654
1772025053647364400,8.6913642578125,0.4973708689212799,-0.11334230750799179,2.523292303085327
1772025053657361200,8.701361083984375,0.4091431796550751,0.16888834536075592,2.3060572147369385
1772025053667358500,8.7113583984375,0.40042585134506226,0.4035663604736328,2.0247271060943604
1772025053677355300,8.721355224609376,0.476764976978302,0.6079546213150024,1.7486703395843506
1772025053687352300,8.731352294921875,0.5408371090888977,0.7389904260635376,1.5005689859390259
1772025053697349400,8.741349365234376,0.5086899399757385,0.7559020519256592,1.2930762767791748
1772025053707346400,8.751346435546875,0.366544246673584,0.6943380236625671,1.1106488704681396
1772025053717343200,8.76134326171875,0.16013284027576447,0.6888342499732971,0.9393481612205505
1772025053727340500,8.771340576171875,-0.05794597044587135,0.8116856217384338,0.8048683404922485
1772025053737337300,8.78133740234375,-0.27828603982925415,1.0058319568634033,0.7058203816413879
1772025053747334100,8.791334228515625,-0.45945796370506287,1.273788571357727,0.6323184967041016
1772025053757331500,8.80133154296875,-0.5204749703407288,1.6832208633422852,0.6432600021362305
1772025053767328300,8.811328369140625,-0.4227587580680847,1.9563019275665283,0.7786321640014648
1772025053777325300,8.8213251953125,-0.19901669025421143,1.8334771394729614,1.0769906044006348
1772025053787322400,8.831322265625,0.12691187858581543,1.2875763177871704,1.5719774961471558
1772025053797319400,8.8413193359375,0.3519435226917267,0.2720111608505249,2.055713653564453
1772025053807316200,8.851316162109375,0.4227713644504547,-1.1110061407089233,2.054615020751953
1772025053817313500,8.8613134765625,0.4132075607776642,-2.1642770767211914,1.2785007953643799
1772025053827310300,8.871310302734376,0.3557394742965698,-1.991909146308899,0.04640351980924606
1772025053837307400,8.881307373046875,0.3765736520290375,-0.8913165926933289,-1.1752052307128906
1772025053847304400,8.891304443359376,0.3769446313381195,0.6606338620185852,-2.0919320583343506
1772025053857301200,8.90130126953125,0.27962788939476013,2.4465444087982178,-2.420792579650879
1772025053867298300,8.91129833984375,0.3285245895385742,3.5176522731781006,-2.187504768371582
1772025053877296400,8.92129638671875,0.4405611455440521,3.779226064682007,-1.6937075853347778
1772025053887293400,8.93129345703125,0.4406149685382843,3.4514148235321045,-1.342445731163025
1772025053897290500,8.94129052734375,0.2882106900215149,2.4022397994995117,-1.3095682859420776
1772025053907287300,8.951287353515625,0.08874553442001343,0.7860671877861023,-1.5589607954025269
1772025053917284400,8.961284423828126,-0.024594660848379135,-0.7719355225563049,-1.9627329111099243
1772025053927281400,8.971281494140625,0.025846142321825027,-1.7587767839431763,-2.3489885330200195
1772025053937278200,8.9812783203125,0.13948988914489746,-1.958783507347107,-2.743835687637329
1772025053947275500,8.991275634765625,0.1619187593460083,-1.3304848670959473,-3.0633060932159424
1772025053957272300,9.001272216796876,0.11966250091791153,-0.20684893429279327,-3.274473190307617
1772025053967269400,9.011269287109375,0.09668554365634918,1.0892131328582764,-3.3559467792510986
1772025053977266400,9.021266357421876,0.05231397971510887,2.030775547027588,-3.28987979888916
1772025053987263500,9.031263427734375,0.03762797638773918,2.3357372283935547,-2.909226417541504
1772025053997260300,9.04126025390625,0.21797798573970795,2.105499505996704,-2.0400166511535645
1772025054007257300,9.05125732421875,0.550565779209137,1.4547443389892578,-0.7943683862686157
1772025054017254400,9.06125439453125,0.861122727394104,0.5977015495300293,0.581558108329773
1772025054027251200,9.071251220703125,1.0650748014450073,-0.2769674062728882,1.8565843105316162
1772025054037248300,9.081248291015624,1.198187232017517,-0.9506432414054871,2.8772926330566406
1772025054047245300,9.091245361328125,1.216986060142517,-1.3264539241790771,3.564220428466797
1772025054057242400,9.101242431640625,1.1009461879730225,-1.3338161706924438,3.8357038497924805
1772025054067239200,9.1112392578125,0.8976179957389832,-0.9878406524658203,3.692824125289917
1772025054077236500,9.121236572265625,0.6906129717826843,-0.44980111718177795,3.2442469596862793
1772025054087233300,9.1312333984375,0.4861753582954407,0.09283022582530975,2.647486448287964
1772025054097230300,9.141230224609375,0.29369011521339417,0.5247257947921753,2.0291714668273926
1772025054107227400,9.151227294921876,0.1526445746421814,0.8641084432601929,1.4606715440750122
1772025054117224400,9.161224365234375,0.07234767079353333,1.1379214525222778,1.0329524278640747
1772025054127221200,9.17122119140625,0.0297168530523777,1.2906063795089722,0.7674378156661987
1772025054137218300,9.18121826171875,-0.017617492005228996,1.3081320524215698,0.6018313765525818
1772025054147215400,9.19121533203125,-0.0263031255453825,1.3034530878067017,0.4640652537345886
1772025054157212200,9.201212158203125,0.03293410688638687,1.3024508953094482,0.34272006154060364
1772025054167209500,9.21120947265625,0.1301296204328537,1.2375935316085815,0.24839355051517487
1772025054177206300,9.221206298828125,0.20112170279026031,1.1322662830352783,0.152231827378273
1772025054187203300,9.231203369140625,0.2164071798324585,1.0261443853378296,0.04998853802680969
1772025054197200400,9.241200439453126,0.21044516563415527,0.8783783912658691,-0.014045830816030502
1772025054207197400,9.251197509765625,0.17702463269233704,0.6644160747528076,-0.013720924966037273
1772025054217194200,9.2611943359375,0.1522686779499054,0.35218581557273865,0.010684678331017494
1772025054227191600,9.271191650390625,0.11544914543628693,0.028135288506746292,0.09320645034313202
1772025054237188400,9.281188232421876,0.09912888705730438,-0.3182075619697571,0.2652171552181244
1772025054247185400,9.291185302734375,0.1562933772802353,-0.573905885219574,0.5425416827201843
1772025054257182500,9.301182373046874,0.4416208863258362,-0.6150835156440735,0.7012100219726562
1772025054267179300,9.31117919921875,0.9132086634635925,-0.5246223211288452,0.2978793680667877
1772025054277176300,9.32117626953125,1.2981098890304565,-0.2694791555404663,-0.687944233417511
1772025054287173400,9.33117333984375,1.3174601793289185,0.2816034257411957,-1.8167879581451416
1772025054297170400,9.34117041015625,0.9108874201774597,0.943895161151886,-2.61999249458313
1772025054307167200,9.351167236328125,0.3773936331272125,1.68471097946167,-2.7489073276519775
1772025054317164500,9.36116455078125,0.03244892880320549,2.3953232765197754,-2.204232931137085
1772025054327161300,9.371161376953125,-0.08387954533100128,2.5368869304656982,-1.5109593868255615
1772025054337158400,9.381158447265625,-0.03954573720693588,2.0567750930786133,-1.0407449007034302
1772025054347155500,9.391155517578126,0.17279022932052612,1.3156722784042358,-0.7717545628547668
1772025054357152500,9.401152587890625,0.42477503418922424,0.36221110820770264,-0.7249096035957336
1772025054367149300,9.4111494140625,0.6083661317825317,-0.6353765726089478,-0.9045182466506958
1772025054377146400,9.421146484375,0.7012579441070557,-1.4294626712799072,-1.2921032905578613
1772025054387143400,9.431143310546876,0.7847776412963867,-1.7198110818862915,-1.7801158428192139
1772025054397140200,9.44114013671875,1.003037452697754,-1.5044084787368774,-2.303645133972168
1772025054407137300,9.45113720703125,1.29518461227417,-1.0220123529434204,-2.678682327270508
1772025054417134300,9.46113427734375,1.532747745513916,-0.41752657294273376,-2.751026153564453
1772025054427131400,9.47113134765625,1.6933437585830688,0.11557912826538086,-2.537076473236084
1772025054437128200,9.481128173828125,1.7998898029327393,0.4836082458496094,-2.053300380706787
1772025054447125500,9.49112548828125,1.8252063989639282,0.6270186901092529,-1.3094244003295898
1772025054457122300,9.501122314453125,1.7354024648666382,0.5685084462165833,-0.42646461725234985
1772025054467119400,9.511119384765625,1.5504488945007324,0.45520371198654175,0.32664990425109863
1772025054477116400,9.521116455078126,1.270909070968628,0.41346967220306396,0.9087516069412231
1772025054487113200,9.53111328125,1.0023481845855713,0.2985433340072632,1.2798864841461182
1772025054497110300,9.5411103515625,0.7621745467185974,0.14586982131004333,1.3478686809539795
1772025054507107300,9.551107421875,0.569886326789856,0.07529311627149582,1.1858172416687012
1772025054517104400,9.5611044921875,0.45526471734046936,-0.07181984931230545,0.9309024214744568
1772025054527101200,9.57110107421875,0.5318657159805298,-0.3507654666900635,0.7520397305488586
1772025054537098500,9.581098388671874,0.6677149534225464,-0.48163041472435,0.6291153430938721
1772025054547095300,9.59109521484375,0.6576622724533081,-0.5119608640670776,0.5171148180961609
1772025054557092900,9.6010927734375,0.4577779173851013,-0.5633642077445984,0.37432706356048584
1772025054567090000,9.61108984375,0.16190709173679352,-0.5730554461479187,0.2692562937736511
1772025054577087000,9.6210869140625,-0.07298456132411957,-0.46892744302749634,0.23606713116168976
1772025054587083800,9.631083740234375,-0.16256824135780334,-0.2395925223827362,0.22897540032863617
1772025054597080800,9.641080810546875,-0.12777891755104065,0.04134707152843475,0.24272127449512482
1772025054607078000,9.651077880859376,0.01006257813423872,0.34489789605140686,0.3266095221042633
1772025054617075000,9.661074951171875,0.20587950944900513,0.5151836276054382,0.4826723635196686
1772025054627071700,9.67107177734375,0.3569113612174988,0.5732727646827698,0.6924780607223511
1772025054637069000,9.681069091796875,0.33306118845939636,0.4921756088733673,0.824066698551178
1772025054647065900,9.69106591796875,0.08834011107683182,0.23951564729213715,0.8070976138114929
1772025054657063000,9.70106298828125,-0.22255772352218628,0.03678802028298378,0.7442675232887268
1772025054667060000,9.71106005859375,-0.3579842448234558,0.043435003608465195,0.6908184289932251
1772025054677057000,9.72105712890625,-0.17352013289928436,0.2213413566350937,0.6738258600234985
1772025054687053800,9.7310537109375,0.33232754468917847,0.519221305847168,0.7650184631347656
1772025054697051100,9.741051025390625,0.8331831097602844,0.6870591044425964,0.990220844745636
1772025054707048000,9.7510478515625,1.1534892320632935,0.3732503056526184,1.2131927013397217
1772025054717044700,9.761044677734375,1.2282252311706543,-0.38976752758026123,1.0465385913848877
1772025054727042000,9.7710419921875,0.9459274411201477,-1.0019736289978027,0.37320324778556824
1772025054737038800,9.781038818359375,0.5109966993331909,-0.7416077256202698,-0.4826631546020508
1772025054747036000,9.791035888671875,0.2257944792509079,0.042747851461172104,-1.1635386943817139
1772025054757033000,9.801032958984376,0.2201998233795166,0.9614144563674927,-1.4767626523971558
1772025054767030000,9.811030029296875,0.3734820485115051,1.688233494758606,-1.5437138080596924
1772025054777026800,9.82102685546875,0.47470223903656006,1.7818381786346436,-1.4344841241836548
1772025054787024100,9.831024169921875,0.3471975326538086,1.3160356283187866,-1.2367891073226929
1772025054797021000,9.84102099609375,-0.038753584027290344,0.37034615874290466,-1.059512734413147
1772025054807018000,9.85101806640625,-0.5422633290290833,-0.7210143804550171,-1.0644010305404663
1772025054817015800,9.861015869140624,-0.9722481369972229,-1.5812755823135376,-1.3192429542541504
1772025054827013000,9.87101318359375,-1.1876404285430908,-1.986199975013733,-1.7181836366653442
1772025054837010000,9.881010009765625,-1.1195659637451172,-1.8277093172073364,-2.1082687377929688
1772025054847007000,9.891007080078126,-0.8415548205375671,-1.212306022644043,-2.4026548862457275
1772025054857004000,9.901004150390625,-0.4494897127151489,-0.4064757525920868,-2.5851495265960693
1772025054867000800,9.911000732421876,-0.03929155319929123,0.25058868527412415,-2.568288564682007
1772025054876998000,9.920997802734375,0.2622227370738983,0.51882004737854,-2.316209316253662
1772025054886995000,9.930994873046876,0.4388158917427063,0.44495511054992676,-1.8189444541931152
1772025054896992000,9.940991943359375,0.4693475663661957,0.16199125349521637,-1.1350334882736206
1772025054906990000,9.950989990234374,0.3593235909938812,-0.1790054738521576,-0.35755109786987305
1772025054916987000,9.96098681640625,0.10126777738332748,-0.4603746831417084,0.38743579387664795
1772025054926984000,9.97098388671875,-0.2549523711204529,-0.5057530999183655,1.066937804222107
1772025054936981000,9.98098095703125,-0.5321158170700073,-0.2358190268278122,1.6506609916687012
1772025054946977800,9.990977783203125,-0.6179329752922058,0.2079291194677353,2.066056251525879
1772025054956975000,10.00097509765625,-0.5216161608695984,0.6133357882499695,2.238621234893799
1772025054966972000,10.010971923828125,-0.2831585705280304,0.8325810432434082,2.2105467319488525
1772025054976969000,10.020968994140626,-0.07248328626155853,0.8378292918205261,2.009883165359497
1772025054986966000,10.030966064453125,-0.003327117068693042,0.6672040224075317,1.7035655975341797
1772025054996963000,10.040963134765626,-0.06650349497795105,0.3535677492618561,1.4134773015975952
1772025055006959900,10.0509599609375,-0.1700005978345871,0.05898937210440636,1.176189661026001
1772025055016957000,10.06095703125,-0.1908079981803894,-0.04130785912275314,1.0268962383270264
1772025055026954000,10.0709541015625,-0.12412936240434647,-0.020066220313310623,0.9622690081596375
1772025055036950800,10.08095068359375,0.03603825345635414,0.21184131503105164,1.0191549062728882
1772025055046947800,10.09094775390625,0.21975108981132507,0.6026695370674133,1.1879972219467163
1772025055056945000,10.10094482421875,0.3117624819278717,0.9523040056228638,1.3720998764038086
1772025055066942000,10.11094189453125,0.2704238295555115,1.1095408201217651,1.4899340867996216
1772025055076938800,10.120938720703125,0.04070282354950905,0.8718045353889465,1.4747551679611206
1772025055086936000,10.13093603515625,-0.2613864541053772,0.3541654050350189,1.330810785293579
1772025055096932900,10.140932861328125,-0.46463561058044434,-0.0890912339091301,1.124000906944275
1772025055106930000,10.150929931640626,-0.4524178206920624,-0.27466243505477905,0.9768766760826111
1772025055116927000,10.160927001953125,-0.2796359062194824,-0.26946261525154114,0.8306686282157898
1772025055126924000,10.170924072265626,0.014561611227691174,-0.12692303955554962,0.6798346042633057
1772025055136920800,10.1809208984375,0.32961928844451904,0.15745201706886292,0.6449843049049377
1772025055146918000,10.19091796875,0.6307737827301025,0.43526554107666016,0.8184647560119629
1772025055156915000,10.2009150390625,0.8740809559822083,0.6290394067764282,1.0912275314331055
1772025055166911700,10.210911865234374,0.9415148496627808,0.5278307199478149,1.2891888618469238
1772025055176909000,10.220908935546875,0.6588806509971619,0.008108032867312431,1.303728699684143
1772025055186905900,10.23090576171875,-0.015700995922088623,-0.7454525828361511,1.0788151025772095
1772025055196903000,10.24090283203125,-0.6808434128761292,-1.0947356224060059,0.7864900231361389
1772025055206900000,10.25089990234375,-0.9522445797920227,-0.8450719714164734,0.4878692626953125
1772025055216898000,10.26089794921875,-0.8531240820884705,-0.12119589000940323,0.1485157161951065
1772025055226894800,10.270894775390625,-0.4466761648654938,0.620515763759613,-0.34578564763069153
1772025055236892000,10.280891845703126,0.04701631888747215,1.0025955438613892,-0.9969128370285034
1772025055246889000,10.290888916015625,0.426388680934906,0.9158375263214111,-1.5672862529754639
1772025055256886000,10.300885986328124,0.45927658677101135,0.36188167333602905,-1.9625229835510254
1772025055266882800,10.3108828125,0.12367463111877441,-0.35840246081352234,-2.2334234714508057
1772025055276880100,10.320880126953124,-0.2704469561576843,-0.9109852910041809,-2.429882049560547
1772025055286877000,10.330876953125,-0.5041294693946838,-1.0858409404754639,-2.4334754943847656
1772025055296874000,10.3408740234375,-0.5543485879898071,-1.0425254106521606,-2.212439775466919
1772025055306871000,10.35087109375,-0.6241881251335144,-0.5890711545944214,-1.894625186920166
1772025055316867800,10.360867919921875,-0.7433156967163086,-0.09433543682098389,-1.6560428142547607
1772025055326865000,10.370864990234375,-0.7639234662055969,0.2609366476535797,-1.430420160293579
1772025055336862000,10.380862060546875,-0.5729438662528992,0.3257594704627991,-1.2154840230941772
1772025055346859000,10.39085888671875,-0.25151070952415466,0.06558886915445328,-1.0887891054153442
1772025055356855800,10.400855712890625,0.12421281635761261,-0.31889763474464417,-0.9967520833015442
1772025055366853000,10.41085302734375,0.46433550119400024,-0.6480259895324707,-0.8114908933639526
1772025055376850000,10.420849853515625,0.6977408528327942,-0.8452653884887695,-0.5625407099723816
1772025055386847000,10.430846923828126,0.8135161995887756,-0.9557713866233826,-0.3298225402832031
1772025055396844000,10.440843994140625,0.817236602306366,-0.9999640583992004,-0.14978672564029694
1772025055406841000,10.450841064453124,0.7627009153366089,-0.8627715706825256,-0.0059736343100667
1772025055416838000,10.460837890625,0.7549764513969421,-0.5009196996688843,0.17908382415771484
1772025055426835000,10.4708349609375,0.7408427596092224,-0.15251407027244568,0.35098180174827576
1772025055436832000,10.48083203125,0.6360315680503845,0.15164503455162048,0.3675486445426941
1772025055446828800,10.490828857421874,0.4517240524291992,0.4070158302783966,0.3391127586364746
1772025055456825900,10.500825927734375,0.23343774676322937,0.3395359516143799,0.25515416264533997
1772025055466823000,10.510822998046875,0.06400105357170105,0.17338508367538452,0.14025503396987915
1772025055476820000,10.520820068359376,-0.016243401914834976,0.09672559052705765,0.11164391040802002
1772025055486816800,10.530816650390625,-0.0377952978014946,0.020441744476556778,0.154869943857193
1772025055496814000,10.54081396484375,-0.02954571321606636,-0.03549884632229805,0.2337399423122406
1772025055506811000,10.550810791015625,0.022708170115947723,0.016805371269583702,0.3667405843734741
1772025055516808000,10.560807861328126,0.08123543113470078,0.16491489112377167,0.5077470541000366
1772025055526805000,10.570804931640625,0.1302032470703125,0.25552040338516235,0.6308996081352234
1772025055536801800,10.5808017578125,0.17918933928012848,0.265654057264328,0.7429840564727783
1772025055546798800,10.590798828125,0.20808570086956024,0.25019627809524536,0.8016164302825928
1772025055556799000,10.600799072265625,0.22198539972305298,0.23536331951618195,0.8002350926399231
1772025055566796000,10.610796142578126,0.1814877688884735,0.2269994020462036,0.7829312086105347
1772025055576792800,10.620792724609375,0.10694217681884766,0.28851714730262756,0.719917356967926
1772025055586790100,10.6307900390625,0.11357451230287552,0.4802998900413513,0.6776034832000732
1772025055596787000,10.640786865234375,0.3041454553604126,0.617376446723938,0.6684439778327942
1772025055606783700,10.65078369140625,0.6404683589935303,0.6104642152786255,0.6927990913391113
1772025055616781000,10.660781005859375,0.916123628616333,0.4471302926540375,0.9360266923904419
1772025055626777900,10.67077783203125,0.9385154843330383,0.41204342246055603,1.0805761814117432
1772025055636775000,10.68077490234375,0.6931808590888977,0.2441452592611313,0.9877907633781433
1772025055646772000,10.69077197265625,0.19943374395370483,0.13403525948524475,0.5190427303314209
1772025055656769000,10.70076904296875,-0.296565979719162,-0.00016950885765254498,0.032849837094545364
1772025055666765800,10.710765869140625,-0.49889323115348816,-0.21761421859264374,-0.17134509980678558
1772025055676763100,10.72076318359375,-0.3459688425064087,-0.4463421106338501,-0.022686872631311417
1772025055686760000,10.730760009765625,-0.08741851896047592,-0.4753955900669098,0.4292755126953125
1772025055696757000,10.740757080078126,0.08655311912298203,-0.5932877063751221,0.8545991778373718
1772025055706754000,10.750754150390625,0.09361102432012558,-0.9746630191802979,1.004246711730957
1772025055716750800,10.760750732421876,-0.2114456444978714,-1.302476406097412,0.5236486196517944
1772025055726748000,10.770747802734375,-0.6779065728187561,-1.5959067344665527,-0.5041938424110413
1772025055736746000,10.78074609375,-0.9771134853363037,-1.6848043203353882,-1.6605576276779175
1772025055746743000,10.790742919921875,-1.0141255855560303,-1.2020057439804077,-2.593419313430786
1772025055756740000,10.800739990234375,-0.9326356649398804,-0.6265414953231812,-3.1238481998443604
1772025055766737000,10.81073681640625,-0.8992640972137451,-0.09668084979057312,-3.2117373943328857
1772025055776734000,10.82073388671875,-0.9167277216911316,-0.034681256860494614,-2.9150431156158447
1772025055786731000,10.83073095703125,-0.8934988379478455,-0.5198106169700623,-2.2730228900909424
1772025055796727800,10.840727783203125,-0.8383823037147522,-1.0746313333511353,-1.4313195943832397
1772025055806725000,10.85072509765625,-0.7617988586425781,-1.401076316833496,-0.5610325932502747
1772025055816722000,10.860721923828125,-0.7069785594940186,-1.3590617179870605,0.1954612284898758
1772025055826719000,10.870718994140624,-0.6728943586349487,-1.0001529455184937,0.7787073850631714
1772025055836716000,10.880716064453125,-0.6488001346588135,-0.49443089962005615,1.28801691532135
1772025055846713000,10.890713134765624,-0.6256029009819031,-0.026168087497353554,1.6739163398742676
1772025055856710000,10.9007099609375,-0.5933754444122314,0.2828073799610138,1.8436455726623535
1772025055866707200,10.910707275390624,-0.5663683414459229,0.37263554334640503,1.8333793878555298
1772025055876704000,10.9207041015625,-0.4733562171459198,0.353647917509079,1.7063826322555542
1772025055886700800,10.93070068359375,-0.3214782774448395,0.2540699243545532,1.5716110467910767
1772025055896698000,10.940697998046875,-0.21412362158298492,0.2424405962228775,1.4285537004470825
1772025055906695000,10.95069482421875,-0.18590237200260162,0.30328211188316345,1.2821184396743774
1772025055916692000,10.96069189453125,-0.22096285223960876,0.48515400290489197,1.2253985404968262
1772025055926689000,10.97068896484375,-0.23681531846523285,0.8348438143730164,1.3271269798278809
1772025055936686000,10.98068603515625,-0.2084759622812271,1.2723197937011719,1.4932441711425781
1772025055946683000,10.990682861328125,-0.16508054733276367,1.617425560951233,1.6596333980560303
1772025055956680000,11.000679931640626,-0.12679356336593628,1.698211669921875,1.801116704940796
1772025055966677000,11.010677001953125,-0.08367379009723663,1.64578115940094,1.879184603691101
1772025055976674000,11.020674072265624,-0.04505578428506851,1.5165570974349976,1.9042967557907104
1772025055986670800,11.0306708984375,-0.06299670040607452,1.293591022491455,1.8298068046569824
1772025055996668000,11.04066796875,-0.19633132219314575,0.9278721213340759,1.6669797897338867
1772025056006665000,11.0506650390625,-0.3496777415275574,0.597906231880188,1.4417141675949097
1772025056016661800,11.060661865234374,-0.3732497990131378,0.531706690788269,1.1562906503677368
1772025056026659000,11.0706591796875,-0.26896974444389343,0.8332335352897644,0.9377402067184448
1772025056036655900,11.08065576171875,-0.13153520226478577,1.2431119680404663,0.9686371088027954
1772025056046653000,11.09065283203125,-0.03881111741065979,1.46860933303833,1.249477505683899
1772025056056650000,11.10064990234375,0.042877815663814545,1.2972923517227173,1.4899009466171265
1772025056066647000,11.11064697265625,0.06524917483329773,0.6084520816802979,1.50727379322052
1772025056076643800,11.120643798828125,-0.10012366622686386,-0.5892302989959717,1.243677020072937
1772025056086641200,11.13064111328125,-0.3950285315513611,-1.4642685651779175,0.8163308501243591
1772025056096638000,11.140637939453125,-0.5883262157440186,-1.4579652547836304,0.5594388246536255
1772025056106635000,11.150635009765624,-0.5548540353775024,-0.8599929809570312,0.46915069222450256
1772025056116632000,11.160632080078125,-0.36485061049461365,-0.2846488058567047,0.373592346906662
1772025056126628900,11.17062890625,-0.144669771194458,0.004450635984539986,0.21657368540763855
1772025056136626000,11.1806259765625,-0.016468843445181847,0.059763237833976746,0.0660298764705658
1772025056146623000,11.190623046875,0.06376580893993378,-0.12335997819900513,-0.08974479883909225
1772025056156620000,11.2006201171875,0.10655088722705841,-0.5438912510871887,-0.23684312403202057
1772025056166616800,11.210616943359375,0.08398379385471344,-0.9777694344520569,-0.34949991106987
