time,seconds_elapsed,z,y,x
1772024959656105200,0.083105224609375,-5.010977565467357,-9.438797515338658,-0.23493849055692553
1772024959666102300,0.093102294921875,-3.7076959960401057,-10.682383033215999,-1.097995655138418
1772024959676099300,0.103099365234375,-3.378720646783709,-11.82844574997425,-1.9976969353757799
1772024959686096100,0.11309619140625,-3.6811961116492746,-8.745177537551521,-0.9445793365575372
1772024959696094200,0.12309423828125,-3.9006069243371484,-4.766795299616455,0.5082588072825223
1772024959706091300,0.13309130859375,-2.8565561368107795,-1.4904133298009634,1.5320722048789261
1772024959716088300,0.14308837890625,-2.548071202397346,1.8330775971919298,1.9443363704577088
1772024959726085000,0.153085205078125,-2.9423668728262182,4.07330391664505,2.2316651195958257
1772024959736082400,0.16308251953125,-2.736247503387928,5.086605930164456,2.275011947760731
1772024959746079200,0.173079345703125,-1.4079635946512221,5.131609439495206,1.9208669398039577
1772024959756076300,0.183076171875,0.4772182837873697,4.909515086811781,1.5283692587077617
1772024959766073300,0.1930732421875,2.1729460963845253,4.916922148197889,1.1978710837982594
1772024959776070100,0.203070068359375,3.2614597104936838,4.645728833563625,0.49548649253621696
1772024959786068200,0.213068115234375,4.410881090030074,3.891793795545399,-0.5552064364183694
1772024959796065300,0.223065185546875,6.164178463542461,3.0486651010751724,-1.5985174384281038
1772024959806062300,0.233062255859375,7.629503529316186,3.155987411674857,-1.5834474411986768
1772024959816059400,0.243059326171875,7.483232771641015,3.3634909289479253,-1.173635564142838
1772024959826056200,0.25305615234375,6.336579687774181,3.112206137615442,-0.8908481847614049
1772024959836053200,0.26305322265625,4.84256219600141,2.6303531797647475,-0.08957969662752002
1772024959846050300,0.27305029296875,3.167338242250681,1.9762392829358577,0.6386307887539268
1772024959856047000,0.283047119140625,2.2223943101644514,1.119663662393391,0.5849921375468373
1772024959866045200,0.293045166015625,1.756429241797328,1.034712758077681,1.1497743576925248
1772024959876042200,0.303042236328125,1.8925135365009307,2.0019789966091515,1.7369411358647047
1772024959886039300,0.313039306640625,3.3348242219120263,2.5475968628838657,1.3258495211966335
1772024959896036000,0.3230361328125,4.084527321448922,2.4903151789993045,0.19994210557546466
1772024959906033200,0.333033203125,3.073561057400703,0.5558642427399754,-1.0627074841361492
1772024959916030200,0.3430302734375,5.909161499944329,0.942262437917292,0.09068447953164577
1772024959926027300,0.35302734375,7.464639714851975,1.8888786871299146,1.002403310625255
1772024959936024000,0.363024169921875,7.875189769989252,4.110712733063101,1.3090199669487774
1772024959946022400,0.3730224609375,8.367519113668799,5.435611675536633,1.5286302477315068
1772024959956019200,0.383019287109375,9.07504252912402,5.982593231379986,2.3726631975650787
1772024959966016300,0.393016357421875,10.739839196884631,6.618445495331287,3.1419656083241105
1772024959976013000,0.403012939453125,12.432090857803821,7.4058946804165835,5.125389542067051
1772024959986010400,0.41301025390625,12.435320925766229,5.932980182427167,6.481984768530726
1772024959996007200,0.423007080078125,6.2150868130028245,2.8761659694269297,1.9032957734085618
1772024960006004200,0.433004150390625,0.947204862755537,1.1575529558047652,-1.3496978681653737
1772024960016001300,0.443001220703125,1.0602151558637618,0.6652256579518318,-1.3070054122559724
1772024960025999400,0.452999267578125,4.114171933606267,0.24978198555409906,-0.9858400060981511
1772024960035996200,0.46299609375,4.395298905494809,-1.6735358545333145,-3.2940660950660705
1772024960045993200,0.4729931640625,3.1051737547606226,-5.06138381062448,-5.558589235907792
1772024960055990300,0.482990234375,3.5827182017624377,-7.68358174098432,-5.446687196302413
1772024960065987300,0.4929873046875,-7.566444723334908,-9.20279855594337,-1.7129145097196101
1772024960075984100,0.502984130859375,-22.467108883929253,-12.201907306689023,2.691087926712632
1772024960085981200,0.512981201171875,-16.178624826282263,-12.744005766665936,2.6440719085156914
1772024960095978200,0.522978271484375,-14.955585252827404,-7.6093346015125505,2.476321432699263
1772024960105976300,0.532976318359375,-14.642060570681094,-5.637811825704574,0.6995914534121751
1772024960115973000,0.54297314453125,-11.474639326322079,-8.066810073953867,0.13695968929864466
1772024960125970200,0.55297021484375,-10.745433071368932,-7.992400437396764,0.7008850003540515
1772024960135967200,0.56296728515625,-10.40732807471752,-6.7920707084000105,0.6419432012375443
1772024960145964000,0.572964111328125,-9.079109632432461,-5.4050481949687,-0.21988142587430773
1772024960155961300,0.58296142578125,-6.3659712019532915,-4.51488097820878,-1.0946639534324407
1772024960165958100,0.592958251953125,-6.464598749443888,-3.582003039230406,-0.3054757426600903
1772024960175955200,0.602955078125,-5.0167900511384005,-1.811500556156039,0.49600905510559673
1772024960185952300,0.6129521484375,-3.0433360150068998,-0.028132746289670465,0.34538474186342205
1772024960195950300,0.622950439453125,-1.2369792514801026,0.8278779338464141,-0.13005301518272608
1772024960205947100,0.632947021484375,0.28321839120984077,2.127501565288007,0.023540998052619395
1772024960215944200,0.642944091796875,-2.444189387640357,3.388624201160669,0.8845043686926365
1772024960225941200,0.652941162109375,-6.180899296718835,1.9042016362071037,1.2683096247673034
1772024960235938300,0.662938232421875,-5.07973604439497,0.7810586072653531,-0.2712444602996111
1772024960245935000,0.67293505859375,-3.310837197124958,0.6587827654227614,-0.9907122883096336
1772024960255932400,0.682932373046875,-2.7568951546192166,1.2230021640539168,-0.207298203959316
1772024960265929200,0.69292919921875,-1.8882126244366169,1.481149388501793,-0.0380979677259922
1772024960275927300,0.70292724609375,0.8492723117917775,1.2691593734644353,-1.5121895466707647
1772024960285924000,0.712924072265625,3.605733166646957,0.5414763825558125,-3.036145226719975
1772024960295921400,0.72292138671875,5.387861497846245,0.07798720278292894,-3.1496547015219925
1772024960305918200,0.732918212890625,6.882660495385527,0.3203361157268286,-2.667012346859276
1772024960315915300,0.742915283203125,7.435487854647636,0.2437657940044999,-2.3334002777129412
1772024960325912300,0.752912353515625,7.0641825991839164,0.03360284826382994,-1.3078791263505816
1772024960335909000,0.7629091796875,5.843369469606876,-0.42566213794276114,0.24500951045528052
1772024960345907200,0.7729072265625,6.0148126624614,-0.9858251007899641,1.0042239501811563
1772024960355904300,0.782904296875,7.187977321156859,-0.5203416784599423,0.5741939724177122
1772024960365901300,0.7929013671875,7.704697009727358,0.33287966321855783,-0.2298597259879112
1772024960375898000,0.802898193359375,8.18191003281772,0.9743488902688026,-0.9532869591481983
1772024960385895200,0.812895263671875,8.56436913498044,1.3517214829474686,-1.5744944655448196
1772024960395892200,0.822892333984375,7.673855881261825,1.66297909694463,-2.428302521070093
1772024960405889300,0.83288916015625,5.063839387083053,2.0108651906371113,-3.154605601927638
1772024960415886000,0.842885986328125,3.545018293443322,2.8331942581847307,-2.814484297017753
1772024960425883400,0.85288330078125,5.030792273005843,4.083160709270834,-1.733702884595841
1772024960435881200,0.862881103515625,7.185598901587724,5.3208150835335255,-0.8321193708084523
1772024960445878300,0.872878173828125,6.608955782452226,5.604817903119326,-0.5323623711213469
1772024960455879000,0.88287890625,5.172048417389393,4.615737307664752,-0.5580279966451227
1772024960465876000,0.8928759765625,5.554459588757157,2.8202459292843938,-1.9056316690102217
1772024960475872800,0.902872802734375,4.752312600755691,2.2435598477900025,-3.034388738441467
1772024960485869800,0.912869873046875,2.797110260629654,3.2717101786121723,-3.8647961907655
1772024960495867000,0.922866943359375,3.4602029982060194,2.36363408793509,-4.457042537224292
1772024960505864000,0.932864013671875,0.44085634607374663,-1.2228420050561428,-0.362261021329835
1772024960515861800,0.94286181640625,-2.937147092351317,-4.981522922924161,3.760985979939997
1772024960525858800,0.95285888671875,-5.783494554358721,-7.181311433526873,2.101671689113229
1772024960535855900,0.96285595703125,-9.012444326391815,-9.058674747169018,1.333782360022515
1772024960545853000,0.97285302734375,-10.612291844379902,-9.34170141519904,1.0900999334525316
1772024960555849700,0.982849609375,-10.743560263234377,-2.6385125208228826,-3.463733510419726
1772024960565847000,0.992846923828125,-10.20893199300766,-2.196419326430559,-2.466658993601799
1772024960575843800,1.00284375,-10.260210929346083,-5.47062102959752,-0.46379174291603265
1772024960585841000,1.0128408203125,-9.33996655423045,-6.355792922288179,1.6729489945560694
1772024960595838700,1.022838623046875,-7.7717866786599155,-7.359484811419248,3.2197055583477017
1772024960605836000,1.0328359375,-7.3239166544318195,-6.670407153236866,3.4072307019531727
1772024960615832800,1.042832763671875,-6.537748741328716,-5.467453505477309,3.586533083875477
1772024960625830000,1.052829833984375,-4.514219299429655,-5.012880184218287,2.9679250924527643
1772024960635827000,1.062826904296875,-3.006906272754073,-3.9153775002285838,1.704753707356751
1772024960645824000,1.072823974609375,-3.012988223016262,-2.2003502361387013,0.24181093360967934
1772024960655820800,1.08282080078125,-2.439426118761301,-1.2362307712003588,-0.7584713662736118
1772024960665817900,1.09281787109375,-1.8839315861165522,0.008225976553559302,-1.3286920511461793
1772024960675816000,1.10281591796875,-1.5487123740345239,0.8804489558219909,-0.827872380888462
1772024960685813000,1.11281298828125,-1.181777588739991,1.4124603215485811,0.08768266736716032
1772024960695809800,1.122809814453125,0.6532353604286909,2.5652923863112926,-0.17458792062103748
1772024960705806800,1.132806884765625,1.8135902219116686,2.9890117196232078,0.3177747408062219
1772024960715804000,1.142803955078125,2.3610487476170063,2.9840175645977256,1.793032002529502
1772024960725800700,1.15280078125,2.590917241433263,2.8532398518696427,2.3759872274212537
1772024960735797800,1.1627978515625,2.903493829074502,2.704702026045322,2.5454484526783228
1772024960745794800,1.172794921875,3.3344887063473463,2.355547519852221,2.900166730478406
1772024960755793000,1.18279296875,3.635465457087755,1.8492331977009773,3.2508915547281503
1772024960765789700,1.192789794921875,3.6570664635211227,1.465370366220176,3.4037282467901706
1772024960775786800,1.202786865234375,3.4662580604612825,1.2587237580373882,3.3614187988489865
1772024960785783800,1.21278369140625,3.3928421111166474,1.057699373650551,3.15126272124052
1772024960795780900,1.22278076171875,4.153177079305053,1.3401409352689981,2.483033205297589
1772024960805777700,1.232777587890625,4.672295061188936,2.001952693124115,1.9926465201184151
1772024960815775000,1.24277490234375,4.926111416825652,2.388971358287334,1.8361331853702663
1772024960825771800,1.252771728515625,5.169882179266214,2.6296912087246773,1.7924084638036786
1772024960835769900,1.262769775390625,5.485453272548318,2.884412111985683,1.6838536887995899
1772024960845766700,1.2727666015625,5.829154481771588,3.0557755176022647,1.5849258431881665
1772024960855764000,1.282763916015625,6.171877201351523,3.0959651969105004,1.591325773358345
1772024960865760800,1.2927607421875,6.494795734786987,3.1524726815521715,1.5293088776454329
1772024960875757800,1.3027578125,6.6844204810202115,3.323826442557573,1.352068104428053
1772024960885755000,1.3127548828125,6.551476822429895,3.52583077789247,0.9668790658447891
1772024960895752000,1.322751953125,6.375431104215979,3.60837695915401,0.4017805828241631
1772024960905748700,1.332748779296875,5.827535356137156,3.7516666551917788,-0.06489504496511071
1772024960915746800,1.342746826171875,4.928934073030948,3.848191092923283,-0.9083530809875577
1772024960925743900,1.352743896484375,3.927017961400747,3.6859313234776256,-1.5689897306486964
1772024960935741000,1.362740966796875,1.8577485125899313,3.1259991006463763,-2.0671536257006227
1772024960945737700,1.37273779296875,-1.0175082330375909,2.100391732305288,-2.358669889656454
1772024960955735000,1.382735107421875,-2.916946015843749,0.11795008759796619,-2.9455092625051735
1772024960965731800,1.39273193359375,-4.409541365858912,-2.3473042999029157,-3.568233749336004
1772024960975728600,1.402728759765625,-6.056415423437953,-4.712620057314634,-3.6959991285055875
1772024960985726000,1.412725830078125,-8.882008851230143,-7.086400276210903,-2.84273570125103
1772024960995724000,1.42272412109375,-11.927080311727524,-9.188129394599795,-1.6791963645130394
1772024961005720800,1.432720947265625,-13.328429456675051,-7.3584303339302535,-3.7836610453456636
1772024961015717600,1.442717529296875,-12.912175052416323,-3.0859032371014354,-6.211100373715162
1772024961025715000,1.45271484375,-10.654565636485815,-3.784184776958823,-4.529226898947358
1772024961035711700,1.462711669921875,-9.14509455499351,-6.511126107341051,-2.3070918242409824
1772024961045708800,1.472708740234375,-8.32877934090793,-7.564141122567653,-0.4138920955741778
1772024961055705900,1.482705810546875,-6.11058014434576,-7.520455710098147,1.1327506691120564
1772024961065703000,1.492702880859375,-5.1388925822407,-6.886380392691493,1.769533784172684
1772024961075700700,1.50270068359375,-5.0776609916865825,-5.442164750441909,2.5677880025193094
1772024961085697800,1.51269775390625,-4.112075253587961,-4.591586032226681,2.8188638272762296
1772024961095694800,1.52269482421875,-3.117300245884061,-3.7762709350943564,2.0000389684572815
1772024961105692000,1.53269189453125,-2.023126706317067,-2.098538213393092,1.1364248275801538
1772024961115688700,1.542688720703125,-1.0974614751964806,-0.393697120013833,0.20555351571645586
1772024961125686000,1.55268603515625,-0.8206704866856336,1.0311752316012979,-0.9002888708669692
1772024961135682800,1.562682861328125,-1.1377438012242316,2.1796166601896285,-1.4934449525818227
1772024961145680000,1.572679931640625,-0.8360930967450141,2.8406229468807576,-1.8115699681304394
1772024961155677700,1.582677734375,-0.032013679376244546,3.2070524130016564,-1.6452609232939779
1772024961165675000,1.592675048828125,0.6476081681966781,3.339598596706986,-0.8064264919515699
1772024961175671800,1.602671875,1.6509505132377147,3.0756127292335034,0.3536099512320012
1772024961185668900,1.6126689453125,3.0292659886002538,2.855320457535982,1.0742629704385995
1772024961195666000,1.622666015625,4.147099805217981,2.8317884830400346,1.551492652402818
1772024961205663000,1.6326630859375,5.005913852337002,2.668057179737091,2.013694422713667
1772024961215659800,1.64265966796875,5.609802705794572,2.4727356831669804,2.2661967731423673
1772024961225656800,1.65265673828125,6.180463827911019,2.420953181220591,2.3502365539625285
1772024961235654000,1.66265380859375,6.7777493375808,2.4426003648832437,2.2613024252295495
1772024961245652000,1.67265185546875,7.1071122248500584,2.5862290836170314,1.9077628358200192
1772024961255648800,1.682648681640625,7.318029349958897,2.794510307264328,1.5319035703137516
1772024961265645800,1.692645751953125,7.40500503810048,2.981148731163144,1.1253105091739446
1772024961275643000,1.702642822265625,7.4916586546808475,3.1638708584010597,0.7297593587912619
1772024961285639700,1.7126396484375,7.624686484423279,3.288447086140513,0.38651235960889607
1772024961295637000,1.722636962890625,7.706029135113954,3.26894451329112,0.28198505002260205
1772024961305633800,1.7326337890625,7.68735073812902,3.154704386126995,0.17572350052222607
1772024961315631900,1.7426318359375,7.588022933414578,3.1064258006483314,0.027586946691886986
1772024961325628700,1.752628662109375,7.462570507362485,3.0644775872349737,-0.07347332382136955
1772024961335626000,1.7626259765625,7.2868854391545055,2.945557193300128,-0.35171284890640525
1772024961345622800,1.772622802734375,6.988072003927827,2.8886604170799255,-0.7678677748460322
1772024961355619800,1.782619873046875,6.425663746371865,3.039040363639593,-1.061887034598738
1772024961365617000,1.792616943359375,5.521791244864463,3.108721218109131,-1.3628921346507965
1772024961375614000,1.802614013671875,4.208175912949443,2.882135399225354,-1.8978246485210954
1772024961385610800,1.81261083984375,2.898616578426957,2.110311653295159,-2.43727303238064
1772024961395608800,1.82260888671875,1.0928116035640238,1.1156751772791147,-2.7877731079638
1772024961405606000,1.83260595703125,-0.7016741049051285,-0.45448973462879655,-2.602854931986332
1772024961415603000,1.84260302734375,-1.9175082770258187,-3.5554064164668318,-1.9663731379598377
1772024961425599700,1.852599853515625,-4.377102154546976,-7.35636697165966,-0.5414478140484541
1772024961435597000,1.86259716796875,-9.072350221300125,-9.877039294999838,1.3557619905099272
1772024961445593900,1.87259375,-13.539783219635487,-11.805067212474345,3.0811592574447393
1772024961455586600,1.882586669921875,-16.151741495531798,-11.327905627310276,2.321218257009983
1772024961465583900,1.892583984375,-16.923147892832755,-6.1647916270047425,-1.6971806417539714
1772024961475580700,1.90258056640625,-15.546452712148428,-4.37504288392961,-2.649028654140234
1772024961485578800,1.912578857421875,-14.847915151703356,-4.59607428355664,-2.285648346456885
1772024961495575600,1.922575439453125,-13.882062871623038,-4.461069600783288,-1.229630057761073
1772024961505572900,1.93257275390625,-12.263187412559985,-4.546519686792791,0.2901151649862528
1772024961515569700,1.942569580078125,-10.279661479747295,-4.433988117112219,1.2300824777036905
1772024961525566700,1.952566650390625,-9.09044994161427,-3.734267484362423,2.45662275275588
1772024961535563800,1.962563720703125,-7.133145660772919,-3.2565584944486616,3.2544211901590225
1772024961545560800,1.972560791015625,-4.168457650545239,-2.6115815515384075,2.3763836793929336
1772024961555557600,1.9825576171875,-1.8380407725572585,-1.686895979104936,0.7720804971702396
1772024961565555700,1.9925556640625,-1.1599036105841398,-0.4103571629136801,-0.11877835511565207
1772024961575552800,2.002552734375,-0.6347258902698755,0.8793900944188237,-0.6574689063452184
1772024961585549800,2.0125498046875,0.5690209536939859,1.7992934010118244,-1.220498949061334
1772024961595546600,2.022546630859375,1.7822335451394318,2.4618948479399085,-1.4711787602379918
1772024961605544000,2.0325439453125,2.906689994767308,3.0304774102166294,-1.328119365824759
1772024961615540700,2.042540771484375,4.024896736350655,3.2812481145471333,-0.9008300650715827
1772024961625537500,2.05253759765625,5.136308410966396,3.166623371979594,-0.20902502775192258
1772024961635534800,2.062534912109375,6.065579557624459,2.9498095900475976,0.35059484119452533
1772024961645533000,2.072532958984375,6.683860509049892,2.916125054849684,0.6435363887131214
1772024961655529700,2.08252978515625,7.267877371823787,2.9954069736182687,0.6312159093875438
1772024961665526500,2.092526611328125,7.958466019091009,2.9717534185692664,0.8997749299954623
1772024961675523800,2.10252392578125,8.23484141253829,2.6587054140239954,1.1449475220579652
1772024961685520600,2.112520751953125,7.9494789950370786,2.5726430413350463,1.3115832415655255
1772024961695517700,2.122517578125,7.628579400208592,2.796094946107268,1.1848333961140363
1772024961705514800,2.1325146484375,7.552710797014832,3.0175246974021195,0.7896474257819354
1772024961715511800,2.14251171875,7.565481431260705,3.212767283517122,0.31970095962844786
1772024961725509600,2.152509521484375,7.667904863902926,3.4896512110084292,-0.09173274647556245
1772024961735506700,2.162506591796875,7.775966594693064,3.737165836152434,-0.35762265747208144
1772024961745503700,2.172503662109375,7.676601380577683,3.970247446796298,-0.4535416401237249
1772024961755500800,2.182500732421875,7.5958718933492895,4.13712435464859,-0.4416761745566502
1772024961765497600,2.19249755859375,7.6629188921838995,4.222698359298706,-0.5245543277189135
1772024961775495000,2.202494873046875,7.687186487478018,4.1746524135321375,-0.4871563614884391
1772024961785491700,2.21249169921875,7.627301635357737,4.096708173108101,-0.35931174307018515
1772024961795488800,2.22248876953125,7.4270526192575685,4.1965310678631065,-0.25972740631140767
1772024961805486600,2.232486572265625,6.966611282747984,4.361294344562292,-0.3923936361998319
1772024961815484000,2.24248388671875,6.266743935003876,4.33595298255682,-0.5548238668415695
1772024961825480700,2.252480712890625,4.918495681124925,4.260192515912652,-0.6763799430422485
1772024961835477800,2.262477783203125,3.627486733293533,3.7567210159718987,-0.9948999492578208
1772024961845474800,2.272474853515625,2.7174539555907247,2.521574240615964,-1.5957454894967376
1772024961855471900,2.282471923828125,0.964099883455038,0.7416185772806405,-1.8055054073944687
1772024961865468700,2.29246875,-2.1718413500130174,-2.041549667236209,-0.961924439112097
1772024961875465700,2.3024658203125,-6.379789299425482,-5.711616482105851,0.37312125537712126
1772024961885463800,2.3124638671875,-9.560904722616076,-8.888981612852215,0.711011622897163
1772024961895460900,2.3224609375,-13.247346918225288,-10.388735602450371,0.8057019040040672
1772024961905457700,2.332457763671875,-16.602591412353515,-11.242267325252294,1.3598515979111194
1772024961915454700,2.342454833984375,-17.233479916417597,-9.174120742991565,-0.7033529979027807
1772024961925451800,2.35245166015625,-15.773023917984961,-5.637888398072123,-2.573238084618747
1772024961935448600,2.362448486328125,-14.174858069473505,-6.292402692395449,-1.4284636541053652
1772024961945446000,2.37244580078125,-13.654230267548561,-7.371310273769497,-0.3873061768677085
1772024961955442700,2.382442626953125,-12.686634943193196,-7.492281755015253,0.9794744165889918
1772024961965440800,2.392440673828125,-11.107277840048074,-7.750155861610174,2.4284043740093706
1772024961975437600,2.4024375,-9.76017466455102,-7.3290651232361785,2.7560288931787014
1772024961985435000,2.412434814453125,-8.469223584386706,-6.288718450924754,2.6330621464625
1772024961995431700,2.422431640625,-6.985274482163787,-5.1873932860374445,2.401072130447626
1772024962005428700,2.4324287109375,-5.1199458897084,-3.5616906113028524,1.5081279963202774
1772024962015425800,2.44242578125,-3.0596593732982873,-1.7445833211809396,0.22829868721626698
1772024962025422800,2.4524228515625,-1.5499182426929472,-0.07159750174582004,-0.681407123554498
1772024962035419600,2.462419677734375,-0.3125695733785629,1.3523375690191983,-1.1606085439831018
1772024962045416700,2.472416748046875,0.9223334563493728,2.1403747831255195,-1.4311146070055663
1772024962055414800,2.482414794921875,2.049320885759592,2.5152356852442024,-1.3914862148419023
1772024962065411800,2.492411865234375,3.007731033140421,2.884333786052465,-1.0455595115888863
1772024962075408600,2.50240869140625,3.9403462295293807,3.154875943301618,-0.5779360815554857
1772024962085406000,2.512406005859375,4.861313658222556,3.184234724254906,-0.07937851101085543
1772024962095402800,2.52240283203125,5.813823057126998,3.070014178574085,0.346176294099912
1772024962105399800,2.53239990234375,6.577090571635961,3.0106875448584556,0.6020925811579451
1772024962115396900,2.54239697265625,7.151169393241405,3.0436607169166208,0.9019015667606145
1772024962125393700,2.5523935546875,7.482052621945738,2.9987419632598757,1.2170636408504099
1772024962135391700,2.562391845703125,7.437910113358497,2.965364302054047,1.2390012588270007
1772024962145388800,2.572388916015625,7.6140078540205955,3.127400199615955,0.9299857246682047
1772024962155385900,2.5823857421875,7.7004913747310635,3.1010400159567593,1.0952499366268516
1772024962165382700,2.592382568359375,7.404137607616185,3.115261433532834,1.0690896594539283
1772024962175379700,2.602379638671875,7.097460014885663,3.488805407834053,0.880890196783468
1772024962185376800,2.612376708984375,7.155776594775915,3.8193268174886703,0.6219613935038447
1772024962195373800,2.622373779296875,7.359040574783086,3.907854995769262,0.363870137026906
1772024962205370600,2.63237060546875,7.484408245161175,3.9475153905063864,0.16233829630827531
1772024962215368700,2.64236865234375,7.57563574552834,4.0504882737249135,0.0007791494126431644
1772024962225365800,2.65236572265625,7.601394456163049,4.05422512216568,-0.13435695945434273
1772024962235362800,2.66236279296875,7.634508790257573,3.975283102875948,-0.271228824339062
1772024962245359600,2.672359619140625,7.666997101408243,3.9766842018455266,-0.5329501444140449
1772024962255356700,2.682356689453125,7.454904502779245,4.050048128741979,-0.6619456133678555
1772024962265353700,2.692353759765625,6.700039490434527,4.151944322639704,-0.5832929689461365
1772024962275350800,2.702350830078125,5.756273369956016,4.128149605554342,-0.8842634726088493
1772024962285347600,2.71234765625,5.279768787395954,3.919020532906055,-1.5355391503371298
1772024962295345700,2.722345703125,4.8109892461299895,3.4394080474585293,-2.2101205195248124
1772024962305342700,2.7323427734375,3.8444618432670827,2.468250062185526,-2.605866681022942
1772024962315339800,2.74233984375,2.0847978573322297,1.0833382572978734,-2.729804903119802
1772024962325336600,2.752336669921875,-0.6016425358355045,-1.0821610302120446,-1.840789925134927
1772024962335334000,2.762333984375,-4.230193683490157,-4.277650431191921,0.15787512462064623
1772024962345330700,2.77233056640625,-7.111334226459264,-7.8694760685175655,1.6684398465685546
1772024962355327700,2.78232763671875,-9.793546772798896,-9.73700772397518,1.6609496369436383
1772024962365324800,2.79232470703125,-13.408174609041213,-10.292520961320399,1.7023732419610023
1772024962375323000,2.802322998046875,-15.710477737700938,-10.400996533608437,1.8569494711667298
1772024962385319700,2.812319580078125,-15.878141996538638,-5.984153904825448,-1.0137079639717936
1772024962395316700,2.822316650390625,-13.46340491335392,-3.8731875870138404,-2.5422818053409455
1772024962405313800,2.832313720703125,-11.943970656251906,-5.17328409666419,-1.591679993623495
1772024962415310600,2.842310546875,-12.086577630722521,-5.6533408187478775,0.01373231888487935
1772024962425307600,2.8523076171875,-11.756355496275424,-6.116723469406366,2.1873989846289157
1772024962435304700,2.8623046875,-10.18363856179714,-6.916079949906468,3.834541922277212
1772024962445301800,2.8723017578125,-8.695674378713965,-6.640161652576923,3.9555017130851744
1772024962455300000,2.882300048828125,-7.559007266810536,-5.521570880112051,3.9203967896953222
1772024962465297000,2.892296875,-6.036044251060486,-4.128625406372547,3.7525796783834693
1772024962475294000,2.9022939453125,-3.9085476542085407,-2.361141102075577,2.712843246924877
1772024962485291000,2.912291015625,-2.034046159738302,-0.5859463695317506,1.3848821404017506
1772024962495287800,2.922287841796875,-0.19053718490302562,0.7632125694513321,0.2705028846846893
1772024962505285000,2.93228515625,1.1876391742497683,1.7879285419106483,-0.6048403820287436
1772024962515282000,2.942281982421875,2.0069541546732186,2.659257787209749,-0.9551529722157865
1772024962525279000,2.952279052734375,2.7186142315417525,3.4412060367912054,-1.01193847008124
1772024962535276800,2.96227685546875,3.5137639080017804,3.905979265025258,-0.8595807937078177
1772024962545274000,2.972274169921875,4.271318890082836,3.9039562347650527,-0.3798243697449565
1772024962555271000,2.98227099609375,5.13639492020607,3.657315469846129,0.1967762619556859
1772024962565268000,2.99226806640625,5.980940787997842,3.56824076359868,0.6720436674036085
1772024962575265000,3.00226513671875,6.669735537585615,3.5680759284257886,0.9463426929682492
1772024962585262000,3.012261962890625,7.059445633789896,3.4816648884296417,1.2326457523204386
1772024962595259000,3.0222587890625,7.069760691577196,3.262018513420224,1.6354720813378691
1772024962605256200,3.032256103515625,7.359783502104878,3.143798376709223,1.8161495510056613
1772024962615254000,3.04225390625,7.757335543981194,2.9532717132002113,1.7917108369283377
1772024962625251000,3.0522509765625,7.886592038491368,2.8418361220628023,1.6923562903374432
1772024962635247900,3.062247802734375,7.881784345948696,3.0499381897509097,1.5847425955757497
1772024962645245200,3.0722451171875,7.891557551944255,3.2938696957111357,1.3214837272025644
1772024962655242000,3.082241943359375,7.820711160826683,3.5396290016204115,0.9747812903366982
1772024962665239000,3.092239013671875,7.7165277327746145,3.8110248530894517,0.7804858488786965
1772024962675236000,3.102236083984375,7.669459107607603,3.95698347607553,0.6874179082766175
1772024962685233000,3.11223291015625,7.6281544527947895,4.0097272242695094,0.5826313266996294
1772024962695231000,3.12223095703125,7.508636092966794,4.071903402197361,0.4543544543439522
1772024962705228000,3.13222802734375,7.350534027722477,4.073250140631199,0.25070578586813064
1772024962715225000,3.14222509765625,7.102228544461727,4.004505105707049,-0.06851108003780246
1772024962725222000,3.152221923828125,6.885767229229211,4.050227576962113,-0.37109080899544056
1772024962735219000,3.162218994140625,6.675187373250722,4.135696367672086,-0.7079490935213864
1772024962745216000,3.172216064453125,6.169629130163789,4.153455311724543,-1.1927671117227523
1772024962755213000,3.182213134765625,5.134462490838766,4.016153457924723,-1.7814665062896906
1772024962765209900,3.1922099609375,3.430681720167398,3.552143030756712,-2.2152112667925654
1772024962775208000,3.2022080078125,1.7201251717507837,2.3334610679894685,-2.565235103166103
1772024962785205000,3.212205078125,-0.06182897192537784,0.32264147005975247,-2.66705121756494
1772024962795202000,3.2222021484375,-2.460709145286679,-2.751224707767367,-1.9875946435563265
1772024962805198800,3.23219873046875,-5.75798251196146,-6.717035633420944,0.06738664258513599
1772024962815196200,3.242196044921875,-10.071545968055725,-9.807516261440515,1.773049391078204
1772024962825193000,3.25219287109375,-14.34062497025728,-11.87714109956026,2.23417388754636
1772024962835190000,3.26218994140625,-17.010837866723538,-12.007856560707092,1.821702947349101
1772024962845187000,3.27218701171875,-17.234564789044857,-7.025353979095816,-2.5672341680288313
1772024962855185200,3.28218505859375,-14.92629369189143,-5.293171874326467,-3.922327465496957
1772024962865182000,3.292181884765625,-13.917541012239456,-6.462144342029094,-2.463872577753663
1772024962875179000,3.302178955078125,-14.008219062030314,-7.323080203607678,-1.0336956899896264
1772024962885176000,3.312176025390625,-13.017621632272004,-7.807944033712149,0.8374525485299528
1772024962895173000,3.322173095703125,-10.706984390509128,-8.247462993702293,1.9743986235052347
1772024962905170000,3.332169921875,-9.455403782224655,-7.993828424373269,2.4297259780019522
1772024962915167000,3.3421669921875,-8.426624213588237,-6.565648555645346,3.0751719997286795
1772024962925164000,3.3521640625,-6.043367725816369,-5.161166373369097,3.1538954078316688
1772024962935162000,3.362162109375,-3.00004807742238,-3.643461132016778,2.157293476961553
1772024962945159000,3.372158935546875,-0.9242769916325807,-2.336504088947177,0.8924006749004125
1772024962955156000,3.382156005859375,0.04354045104086399,-1.0805752223253249,0.2908407027818262
1772024962965153000,3.392153076171875,1.0099924505800009,0.033630466923117636,-0.25209471947588025
1772024962975149800,3.40214990234375,2.074891964867711,0.9412877476662397,-0.6386049967255443
1772024962985147000,3.41214697265625,2.993742839798331,1.7669208251953124,-0.49516836649775503
1772024962995144000,3.42214404296875,4.025462553539872,2.337007362294197,-0.0910931333977729
1772024963005141000,3.43214111328125,5.1121302475214,2.6001550253778696,0.47958567050583656
1772024963015138800,3.442138916015625,6.1493725240767,2.8310867645114657,1.0433352596681564
1772024963025135900,3.452135986328125,6.911243615791201,3.0102488611802456,1.4411268824540078
1772024963035133000,3.4621328125,7.466516030117869,3.095292704476416,1.7400548839710652
1772024963045130000,3.4721298828125,7.941621851795912,3.04033274153769,1.8686897394515574
1772024963055126800,3.482126708984375,8.313871694633365,2.9488445444077254,1.8788969529502093
1772024963065124000,3.4921240234375,8.466307404679059,2.956767154100537,1.9628969862818717
1772024963075121000,3.502120849609375,8.358978664338588,2.998819996932149,1.8496403171971438
1772024963085118000,3.512117919921875,8.297437277182937,2.997064385436475,1.6265907096154988
1772024963095115800,3.52211572265625,8.175372155481577,3.131501497454941,1.2626152125179766
1772024963105113000,3.532113037109375,7.99460993013978,3.3462194761514663,0.8064028188150376
1772024963115110000,3.54210986328125,7.917498633408546,3.5189158839374777,0.3708011418664828
1772024963125107000,3.55210693359375,7.819411768665909,3.680669457426667,0.07350295177465305
1772024963135104000,3.56210400390625,7.610113184669613,3.751051153641939,-0.12672922278856857
1772024963145101000,3.57210107421875,7.442367677289247,3.7463621190428733,-0.2839147942424752
1772024963155097900,3.582097900390625,7.3757988173604,3.7730332683473824,-0.42999958262518045
1772024963165095200,3.59209521484375,7.335600662484764,3.829885036382079,-0.614920900407806
1772024963175093000,3.602093017578125,7.208106501471996,3.843400936037302,-0.7809714404385536
1772024963185090000,3.612090087890625,7.0264102101504795,3.8584073665112255,-1.093291934426874
1772024963195086800,3.6220869140625,6.7239855986893176,3.8595337401926515,-1.420652541963011
1772024963205084200,3.632084228515625,6.083219259211421,3.8430987382203337,-1.5868863296061753
1772024963215081000,3.6420810546875,5.040485399502516,3.8251451483786103,-1.8338757618322967
1772024963225077800,3.652077880859375,3.5662469594329593,3.5131893229842186,-2.0695777841076253
1772024963235075000,3.662074951171875,1.7475357412457464,2.7311627474695443,-1.9049466093555092
1772024963245072000,3.67207177734375,-0.1676455541372299,1.136020046171546,-1.6533071593664586
1772024963255070000,3.682070068359375,-1.66677468983531,-2.0436311496853827,-0.826696468976885
1772024963265067000,3.69206689453125,-3.230851806262135,-6.294883987817168,0.8711411753810941
1772024963275064000,3.70206396484375,-6.633147389900684,-9.41289033614397,2.543230484367907
1772024963285060900,3.712060791015625,-11.51781094405055,-11.454725834584236,4.356190883943438
1772024963295058000,3.722057861328125,-15.19996684064269,-11.997678865563868,4.728687979540228
1772024963305055000,3.732054931640625,-16.979547240924834,-7.303193599876761,0.16997615250926465
1772024963315052000,3.742052001953125,-15.682245330429076,-5.0640632589668035,-1.330137427648902
1772024963325048800,3.752048828125,-14.084296924060583,-5.6329316524475805,-1.4537236214376985
1772024963335047000,3.762046875,-14.205572356688975,-5.208188821306824,-2.5958637579247354
1772024963345044000,3.7720439453125,-13.58593472995758,-5.309550177675486,-2.087902983740717
1772024963355041000,3.782041015625,-11.940864506930112,-5.706323636394739,-0.6356418360710143
1772024963365037800,3.792037841796875,-10.23224389501214,-4.933782097584009,0.7057375549517572
1772024963375035100,3.80203515625,-7.521743996343016,-4.127236582362651,1.697405390420556
1772024963385032000,3.812031982421875,-4.58431516444087,-4.026059934911132,1.7768533134058118
1772024963395029000,3.822029052734375,-3.072819299122691,-3.886529299145937,1.0490839593879877
1772024963405026800,3.83202685546875,-2.431145781672001,-3.810122935813665,0.6656541855622082
1772024963415024000,3.842024169921875,-2.084309781554341,-3.4214135410845277,0.595533332240209
1772024963425021000,3.85202099609375,-1.5410814407646656,-2.6529204008817673,-0.0792561267402023
1772024963435018000,3.86201806640625,-0.452243417006731,-1.5281436332583427,-0.93840576248914
1772024963445015000,3.87201513671875,0.6643535512924194,-0.4431617004066705,-1.2995184175014496
1772024963455012000,3.88201220703125,1.580187708750367,0.3363365256741643,-1.0924945735041052
1772024963465009700,3.892009765625,2.7421342233389616,1.1173986400708555,-0.938812297463417
1772024963475006500,3.90200634765625,3.937976577788591,1.834928778016567,-0.8158154478698968
1772024963485004500,3.912004638671875,4.952496150404214,2.171514017754793,-0.6464663046851754
1772024963495001600,3.922001708984375,5.846909918692708,2.298821131762862,-0.4065866313990205
1772024963504998700,3.93199853515625,6.600549773156643,2.3574399094700813,-0.07626041552294045
1772024963514995500,3.941995361328125,7.215518239033222,2.2075062453731893,0.023410978464782236
1772024963524992800,3.95199267578125,7.789529840621352,1.892415629084408,-0.060613897047191855
1772024963534989600,3.961989501953125,8.188742509186268,1.6278157213658093,-0.1118007711879909
1772024963544986600,3.971986572265625,8.333091943410038,1.5371505310565232,0.049110725453868506
1772024963554983700,3.981983642578125,8.250678448617458,1.5634166066914796,-0.021305238357186316
1772024963564981800,3.991981689453125,8.236613098385929,1.7536454562976955,-0.21510683188363908
1772024963574978600,4.001978515625,8.1232743039757,2.0218974567830563,-0.41706893551200624
1772024963584975600,4.0119755859375,7.977446613892912,2.2511457728743554,-0.5939936650501564
1772024963594972700,4.02197265625,7.88259683137536,2.587703540083766,-0.6453725180990993
1772024963604969500,4.031969482421875,7.833433279755711,2.974893762421608,-0.7935283588685095
1772024963614966500,4.041966552734375,7.71832630662918,3.2993080873727796,-0.9176859228044748
1772024963624963600,4.051963623046875,7.595098570889234,3.5320997751593586,-0.9520772180322558
1772024963634960600,4.061960693359375,7.386772631317377,3.726408879816532,-0.8959900046292691
1772024963644958500,4.07195849609375,6.857928789710998,4.036073963925242,-0.8885351585786789
1772024963654955500,4.08195556640625,5.932569263538718,4.458345436516404,-0.6810737268816679
1772024963664952600,4.09195263671875,4.818274726963043,4.503063114643097,-0.4051590828139335
1772024963674949600,4.10194970703125,3.572519463831186,4.032914038589596,-0.36379831389971073
1772024963684946400,4.111946533203125,2.3784803594112396,3.186010209494829,-0.3430995170030743
1772024963694943700,4.12194384765625,1.1633955443531274,2.1506588612526656,-0.9084428781628608
1772024963704940500,4.1319404296875,-1.0769465104341507,0.6623585780829191,-1.2479285155177116
1772024963714938600,4.141938720703125,-4.4015831003308294,-2.224754609555006,-0.2849091207757592
1772024963724935400,4.151935302734375,-7.056459895977378,-6.149067988172173,0.9686902799852192
1772024963734932700,4.1619326171875,-10.379648625153303,-8.3767516369164,1.359205847353488
1772024963744929500,4.171929443359375,-14.589056125724316,-9.337110580277443,2.3723095618218184
1772024963754926600,4.181926513671875,-15.994922455835342,-10.17823290336132,3.298841346643865
1772024963764923600,4.191923583984375,-15.967550464785099,-6.371012703251838,0.6402765831995755
1772024963774920700,4.201920654296875,-14.322995790064335,-4.813749358493089,-0.3812970361134037
1772024963784917500,4.21191748046875,-12.961108886933326,-7.035497187447548,0.6304775851756333
1772024963794915600,4.22191552734375,-12.617725657618045,-7.989805744728446,1.4113926923170685
1772024963804912600,4.23191259765625,-11.2951455134809,-8.202294064676762,2.628911164262891
1772024963814909700,4.24190966796875,-9.559265723237395,-8.129070423033832,2.805378030498326
1772024963824906500,4.251906494140625,-8.66461463906169,-7.219880525895952,2.5247514093473553
1772024963834903800,4.26190380859375,-7.557948697668314,-6.046933893865346,2.7512556874275207
1772024963844900600,4.271900634765625,-5.3824616846293205,-4.745663664260507,2.3401748864144087
1772024963854897400,4.2818974609375,-3.0294711557835337,-3.018625936642289,1.1461152506630867
1772024963864894700,4.291894775390625,-1.219111586356163,-1.1571329768270253,0.18020535864401607
1772024963874892800,4.301892822265625,0.4580646705061197,0.4076899895310402,-0.35816604363378135
1772024963884889600,4.3118896484375,1.8438497510969638,1.4198796578943729,-0.7285298900615423
1772024963894886400,4.321886474609375,2.9766105032116172,2.1242536694079637,-0.8883855940401554
1772024963904883700,4.3318837890625,3.9162674348056314,2.7948540061354636,-0.957150429643318
1772024963914880500,4.341880615234375,4.82807131383419,3.241017226445675,-0.8497372258897871
1772024963924877600,4.351877685546875,5.812676225179433,3.2603280761152504,-0.5441484147766604
1772024963934874600,4.36187451171875,6.933787456032634,2.9169430932343006,-0.30020284375846384
1772024963944871700,4.37187158203125,7.973748928418755,2.6453146020531655,-0.1522109979117289
1772024963954869500,4.381869384765625,8.579659058570861,2.6683599620759484,0.22986900527291
1772024963964866600,4.391866455078125,8.909971793910861,2.6834458875268696,0.4838721887186169
1772024963974863600,4.401863525390625,9.081076548591255,2.9661031377226115,0.49666591157913204
1772024963984860700,4.411860595703125,9.217706202217936,3.298669789469242,0.5341390984702855
1772024963994857500,4.421857421875,9.273572466346621,2.983798953410983,0.3904801307287067
1772024964004854800,4.431854736328125,9.180527687424421,2.8546196157902477,0.23870756076686084
1772024964014851600,4.4418515625,8.852484066060185,3.2105472693800925,0.04908581020832062
1772024964024849700,4.451849609375,8.665569747829437,3.5026328576564785,-0.29618666691966355
1772024964034846500,4.461846435546875,8.65209944088161,3.75649539052248,-0.6704315560318529
1772024964044843800,4.47184375,8.683958221957088,3.9288527756124734,-1.1494180916007608
1772024964054840600,4.481840576171875,8.649631004941464,3.908228505256772,-1.2002659430455416
1772024964064837600,4.491837646484375,8.502101187115906,3.745363171133399,-1.0704870320964603
1772024964074834700,4.501834716796875,8.153333926674723,3.7456624463409183,-1.1789954837407917
1772024964084831700,4.511831787109375,7.490171046471596,3.9087417154759168,-1.2256569163464008
1772024964094828500,4.52182861328125,6.852884950324893,3.908462898534536,-1.2817960060670972
1772024964104826600,4.53182666015625,6.398989089936018,3.8985242728441953,-1.6250979868397115
1772024964114823700,4.54182373046875,5.773028105401992,4.135114768391848,-1.881904464203119
1772024964124820700,4.55182080078125,4.6674715865552425,4.535784650027751,-2.068024417185783
1772024964134817500,4.561817626953125,3.7071512216389175,4.5088983966678375,-2.3095482774823903
1772024964144814600,4.571814697265625,2.923389200633764,3.803123286184668,-2.274904541863501
1772024964154811600,4.581811767578125,0.9149316556602716,2.4339549938738343,-1.7422217066161334
1772024964164808400,4.591808349609375,-3.221823865675926,0.27319325627982616,-0.4719726382188499
1772024964174805800,4.6018056640625,-6.7521601382941006,-2.757619961762428,0.9999982953101396
1772024964184803800,4.611803955078125,-8.550012108325959,-6.241829273977875,2.3878641276977954
1772024964194800600,4.621800537109375,-11.265503239411116,-8.897323909261821,3.280606894034147
1772024964204797400,4.63179736328125,-15.066332277178763,-10.310641139900683,4.082576187381148
1772024964214794800,4.641794677734375,-16.58874408878684,-10.460713627946376,4.783358896404504
1772024964224791600,4.65179150390625,-18.055357440805434,-4.788693827691674,1.2576966069467366
1772024964234788600,4.66178857421875,-17.1383267670393,-2.8421488412737843,0.36658670250922437
1772024964244785700,4.67178564453125,-15.243305631631612,-5.237273461493849,1.7935615793615578
1772024964254782700,4.68178271484375,-14.610641350066661,-5.604975724029541,1.7894794246144592
1772024964264780500,4.691780517578125,-13.503272813361882,-5.322137856569886,2.2735475742965936
1772024964274777600,4.701777587890625,-12.03410159355402,-5.364585251677036,2.855679938498139
1772024964284774700,4.711774658203125,-11.269546961843966,-4.647264080306887,3.0641382722780106
1772024964294771700,4.721771728515625,-9.931796136581896,-3.609861060231924,3.4398084449529645
1772024964304768500,4.7317685546875,-7.110032496210932,-2.810845355993509,2.79138282289356
1772024964314765600,4.741765625,-4.333063690856099,-1.6531366251051425,1.5595537937834858
1772024964324762600,4.7517626953125,-2.208829310670495,-0.320368848952651,0.7706818824186921
1772024964334759700,4.761759765625,-0.4518564635157585,0.46404286813288925,0.04182020311951637
1772024964344757500,4.771757568359375,0.734245418164134,1.1287281355977057,-0.6835678087197243
1772024964354754600,4.781754638671875,1.7583523188143968,1.86632987845242,-1.1261100620537996
1772024964364751600,4.791751708984375,2.793803620299697,2.2245453507184982,-1.2890759339421987
1772024964374748700,4.801748779296875,4.0163235537946225,1.871764762982726,-1.4321312367022037
1772024964384745500,4.811745361328125,5.164176076579094,1.2594874358862638,-1.542530324398726
1772024964394742500,4.821742431640625,6.106292676284909,0.963628174290061,-1.407399677158147
1772024964404739600,4.831739501953125,6.8752318066895,1.229120646934211,-1.2003851124458014
1772024964414737700,4.841737548828125,7.463844765082001,1.8361910530373453,-1.1255852344620971
1772024964424734700,4.851734619140625,7.883613899463414,2.0414201956376434,-0.8871554677233099
1772024964434731800,4.861731689453125,8.147830653083323,1.9953353208109734,-0.442182114784792
1772024964444728600,4.871728515625,8.18577489155233,2.086626826325059,-0.08254033604264259
1772024964454725400,4.881725341796875,8.307287055546045,2.1548305939793586,0.16606120755523443
1772024964464722400,4.891722412109375,8.129908627423644,2.4238784210175273,0.3946878846168518
1772024964474719200,4.90171923828125,7.933873429626226,2.873819406300783,0.45708530407994985
1772024964484716300,4.91171630859375,7.910859049263596,3.5020313846319913,0.2927538429267704
1772024964494714400,4.92171435546875,8.002054985448718,4.112670296871662,0.08960888618938624
1772024964504711400,4.93171142578125,8.127653541973233,4.572221406543255,-0.16259744043480603
1772024964514708200,4.941708251953125,8.111587373313307,5.019813782873749,-0.30324023869298394
1772024964524705500,4.95170556640625,8.126956207358838,5.12030010997355,-0.14810016505941748
1772024964534702300,4.961702392578125,8.061168268674612,5.014128138452768,-0.14130341759137807
1772024964544699400,4.971699462890625,7.826125587090849,5.048031577098369,-0.31077059766519816
1772024964554696400,4.981696533203125,7.403239197471738,5.214860554155707,-0.4520604616552591
1772024964564693500,4.991693603515625,6.778592802667617,5.396898790782689,-0.6212349058602005
1772024964574691300,5.00169140625,6.297981953832506,5.535670717135072,-1.0451034383844584
1772024964584688400,5.0116884765625,5.698606778407097,5.419049832314252,-1.2841373084962366
1772024964594685400,5.021685546875,4.646897585082054,4.954702136015892,-1.4686290757551788
1772024964604682500,5.0316826171875,3.6227369084179397,4.000273751747608,-1.549423883304745
1772024964614679300,5.04167919921875,2.339001166459918,2.3273306024104357,-1.6313681531503796
1772024964624676400,5.05167626953125,-0.2941799302071333,-0.3868681507766247,-1.2634721216082572
1772024964634673400,5.06167333984375,-3.520910857146978,-4.1834886309385295,0.3636726416934281
1772024964644671500,5.07167138671875,-6.6569806854307645,-8.063121156308055,2.25742660670951
1772024964654668300,5.081668212890625,-10.23951651636362,-10.28867948346138,2.415567250398546
1772024964664665300,5.091665283203125,-14.140391151726245,-11.21810669746399,2.0167063178807494
1772024964674662400,5.101662353515625,-16.43689114706516,-9.929335299426317,0.9062910338912159
1772024964684659200,5.1116591796875,-17.141865462559462,-5.837755136856436,-1.6901920980408787
1772024964694656300,5.12165625,-16.374142722207306,-6.3752709452182055,-1.0600029744178057
1772024964704653300,5.1316533203125,-16.16824021039009,-8.754734470447897,0.6088083358116447
1772024964714650400,5.141650390625,-15.616856035673617,-8.962689238619804,0.8348454347714781
1772024964724648400,5.1516484375,-13.650398142039775,-9.117337948539852,1.4629453310303389
1772024964734645200,5.161645263671875,-12.41605157715082,-9.191189951214193,2.234942387700826
1772024964744642300,5.171642333984375,-11.609448778784275,-8.249162198835611,2.3312279021099207
1772024964754639400,5.181639404296875,-10.09745899246931,-6.579848345911502,1.8275673093378544
1772024964764636200,5.19163623046875,-7.643928945031762,-4.492359934321046,1.0100780830368399
1772024964774633500,5.201633544921875,-4.706690082743764,-2.349773320364952,0.381463149927929
1772024964784630300,5.21163037109375,-1.8838363090485333,-0.31825463327765463,0.11569397923424839
1772024964794627300,5.22162744140625,0.6709446201205254,1.3136714460164307,-0.02452894964404404
1772024964804625200,5.231625244140625,2.9041864875137806,2.2983751415610314,0.060993763210251926
1772024964814622500,5.24162255859375,4.521566739583015,2.7400802134186026,-0.09292509806528687
1772024964824619300,5.251619384765625,5.785636242562532,2.4420365935206414,-0.5510626511445269
1772024964834616300,5.2616162109375,6.533306959488987,2.1006670421153304,-0.8189072033401578
1772024964844613400,5.27161328125,7.2151190105825656,1.8478508034318684,-0.6800923876941204
1772024964854610400,5.2816103515625,7.926746938747167,1.9097084169298408,-0.6011763796284795
1772024964864607200,5.291607177734375,8.413258536058663,2.447977089485526,-0.6820834153808653
1772024964874604500,5.3016044921875,8.634349264657496,2.973931639391184,-0.7688033021304755
1772024964884602400,5.311602294921875,8.7357819326967,3.2332851708889008,-0.5315030508782714
1772024964894599400,5.321599365234375,8.755061802706122,3.315646058711409,-0.12193550397232174
1772024964904595500,5.331595458984375,8.558800979459285,3.365679378902912,0.3731703186832368
1772024964914592300,5.34159228515625,8.26499865039289,3.5064638141214846,0.7566131711862981
1772024964924589300,5.35158935546875,8.086306801584362,3.771295484769344,0.7408019271355122
1772024964934586400,5.36158642578125,7.851123834747075,4.1146103250235315,0.6041227352786809
1772024964944583400,5.37158349609375,7.650742132177949,4.4300984161973,0.431467499753274
1772024964954580200,5.381580322265625,7.369632695946097,4.734770514324307,0.2045580018730834
1772024964964577500,5.39157763671875,7.075110235911607,5.010628605899215,-0.011359963730350135
1772024964974574300,5.40157421875,7.013273080679774,5.263827706420421,-0.200481838475354
1772024964984572400,5.411572509765625,7.034604038000106,5.608273596531152,-0.4088900495031848
1772024964994569200,5.4215693359375,7.090313065740466,5.909071483573317,-0.6003344854442403
1772024965004566500,5.43156640625,7.2496823744416234,6.102416127112507,-0.8063400557771324
1772024965014563300,5.441563232421875,7.366310858047008,6.13812632291913,-0.8413351621169597
1772024965024560400,5.451560302734375,7.366701903191208,6.089779932901263,-0.9045517159432173
1772024965034557400,5.461557373046875,7.462541865789889,5.910238189265131,-1.293363109742105
1772024965044554500,5.471554443359375,7.367525494533777,5.585880562937259,-1.7259759436056017
1772024965054551300,5.48155126953125,6.971482688176631,5.0525744812250135,-1.9285525258705019
1772024965064549400,5.49154931640625,6.183276547244191,3.8357320088446136,-1.9752561171174048
1772024965074546400,5.50154638671875,4.085730267497897,2.091597015953064,-1.5168712747462092
1772024965084543500,5.51154345703125,0.20760113242864608,-0.17991817573308944,-0.8161611195024102
1772024965094540300,5.521540283203125,-3.837019126045704,-4.130623886713385,-0.3134915105290711
1772024965104537300,5.531537353515625,-7.931081753081083,-8.460213763979077,0.2339524569279514
1772024965114534400,5.541534423828125,-13.249819445818662,-10.829302610188721,0.6236242121495306
1772024965124531200,5.55153125,-18.741934514343736,-12.517372601509093,0.7913374977607279
1772024965134529300,5.561529296875,-21.001749915885924,-10.774267536187171,-1.602428912783414
1772024965144526300,5.5715263671875,-21.028750151014325,-4.1369232791185375,-5.221510659694672
1772024965154523400,5.5815234375,-19.44636171734929,-4.319192986413836,-3.5447044051885603
1772024965164520200,5.591520263671875,-18.282530704188346,-6.730721044424175,-1.8177128547996282
1772024965174517500,5.601517578125,-17.301508912026883,-7.179908580991626,-0.7153823853272945
1772024965184514300,5.611514404296875,-15.408074169027804,-8.228285999545454,1.8232003463000057
1772024965194511400,5.621511474609375,-13.8323773419559,-8.596569276839494,3.4212837772250175
1772024965204508400,5.63150830078125,-12.627056965065002,-7.650650362241268,3.1351059516876933
1772024965214506500,5.641506591796875,-11.035324364471435,-6.655649729087949,2.7950048127830027
1772024965224503300,5.65150341796875,-8.826597929653525,-5.376263414511084,1.9166618893295526
1772024965234500400,5.661500244140625,-6.393696828746795,-3.5056320394724607,0.5280408546604216
1772024965244497400,5.671497314453125,-3.6027632109254597,-1.8783570008546113,-0.191954102496244
1772024965254494500,5.681494384765625,-1.0609522379666567,-0.7231722354859114,-0.4219552827814594
1772024965264491300,5.6914912109375,1.0609130750000477,-0.07784078004956245,-0.3260943139273673
1772024965274488600,5.701488525390625,2.8977018016695975,0.45917467757463454,-0.30859310749564317
1772024965284485400,5.7114853515625,4.22582321332097,1.324980775538087,-0.3184003984238952
1772024965294483500,5.7214833984375,5.38647325835824,2.280626718902588,-0.3730898738581687
1772024965304480300,5.731480224609375,6.691637572792172,2.9451924516409633,-0.530246584543772
1772024965314477600,5.7414775390625,8.036522487717866,3.1832880910545587,-0.3999786479687318
1772024965324474400,5.751474365234375,9.062932989135383,3.298006357124448,-0.05716119931004941
1772024965334471400,5.761471435546875,9.700358201491833,3.639143268817663,0.08658866158537566
1772024965344468500,5.771468505859375,10.22055111913085,3.971780063191056,0.32125396122410893
1772024965354465300,5.78146533203125,10.280224958848953,4.084686311402916,0.8164548417519778
1772024965364462300,5.79146240234375,10.084440520942211,3.9920015979647636,1.2313090968891978
1772024965374460400,5.80146044921875,9.960808296054601,3.9228000514447685,1.380449564781785
1772024965384457500,5.81145751953125,9.897582901334761,4.10437476221323,1.3029136128976941
1772024965394454300,5.821454345703125,9.668336923331022,4.36429995611906,1.1084808818608523
1772024965404451300,5.831451416015625,9.162163178694248,4.5967163808524605,0.9540895807679742
1772024965414448400,5.841448486328125,8.62274475158155,5.049067349886894,0.9636395724669098
1772024965424445400,5.851445556640625,8.13836432107985,5.588999571740627,0.8864644167192279
1772024965434442200,5.861442138671875,7.961551710146665,5.885539216816425,0.6467728133510798
1772024965444439300,5.871439208984375,8.025394944503903,6.093730131831765,0.4825149288907647
1772024965454437400,5.881437255859375,7.876116821706295,6.195779470464587,0.4099785388596356
1772024965464434000,5.891433837890625,7.4929498635351655,6.3012020849227905,0.7772087269041686
1772024965474430700,5.9014306640625,7.1143567891508335,6.260816883042454,0.9323465355154127
1772024965484428000,5.911427978515625,6.697625999552011,6.481948528173565,0.8572139184460044
1772024965494424800,5.9214248046875,5.921653317248821,7.065161088827252,0.2772643051110208
1772024965504422000,5.931421875,4.1346833912372585,7.245804656225443,-0.05085705766454339
1772024965514419000,5.9414189453125,2.7798943374127147,5.876665590009093,0.06094086397923529
1772024965524416000,5.951416015625,1.8282734117805957,3.6938995258778333,-0.5353721473965793
1772024965534413800,5.961413818359375,-0.047450902482867235,1.787712853333354,-1.385246151408553
1772024965544411000,5.971410888671875,-2.6045021146714684,-0.19706804797649383,-1.2408067008137702
1772024965554408700,5.98140869140625,-5.508952806079387,-3.6252205419272183,0.3174849640794098
1772024965564406000,5.991406005859375,-8.895832209399343,-8.085093334141373,2.2385899504229423
1772024965574402800,6.00140283203125,-11.706741278278827,-10.893175655162334,2.2960347159147263
1772024965584400000,6.01139990234375,-13.734136747956276,-11.28140340385437,1.320684393518418
1772024965594397000,6.02139697265625,-14.42295020224452,-11.805118650400638,1.222759295208752
1772024965604394000,6.03139404296875,-13.514160118079184,-9.660963179692626,-0.4446316998939961
1772024965614390800,6.041390869140625,-12.303639834457636,-8.09668148060441,-2.248537782333046
1772024965624387800,6.051387939453125,-10.6241938790977,-9.83574516158104,-2.661025965926051
1772024965634386000,6.061385986328125,-8.798366691425443,-11.33755491466522,-2.95158682885319
1772024965644383000,6.071383056640625,-10.078817420363425,-12.555214548647402,-5.2454959309160705
1772024965654379800,6.0813798828125,-12.7774182069242,-10.39162664771676,-3.7638214956268667
1772024965664377000,6.091377197265625,-9.303722689938544,-7.668940052169561,1.1958845130909233
1772024965674374000,6.101373779296875,-3.6256472429066893,-5.0970793933838605,1.6689502803087233
1772024965684370700,6.11137060546875,-1.7616572055786848,-3.1063182486206293,1.2912759282045065
1772024965694368000,6.121367919921875,-1.859675681260228,-1.2778309018284082,1.0671821453321724
1772024965704364800,6.13136474609375,-2.003514243352413,1.1383224778950214,1.6347399676710366
1772024965714363000,6.14136279296875,-1.8376818761169909,2.6964491614848374,0.6006270021174103
1772024965724359700,6.151359619140625,-1.463175194263458,3.0274165613412856,-1.4494002052806316
1772024965734357000,6.16135693359375,-1.1586299373865128,2.3113088574141263,-0.5199392716715112
1772024965744353800,6.171353759765625,-0.8417524376809596,1.142504439754784,0.4393817069439217
1772024965754350800,6.181350830078125,0.7633505166172981,0.13779928192794322,-0.04649013115931302
1772024965764348000,6.191347900390625,2.19940214163363,0.10884382107853889,-0.847996373571828
1772024965774345000,6.201344970703125,4.478813055005669,1.1732751333326101,-2.134404622674733
1772024965784341800,6.211341796875,8.170859646493197,2.390809095108509,-1.3881746060758828
1772024965794339800,6.22133984375,8.279509990826249,1.8229145150959492,-1.0377233380705118
1772024965804337000,6.2313369140625,7.267761636489629,2.1891005278497935,-0.9215853413958102
1772024965814334000,6.241333984375,7.222025721231103,2.9062025035113095,-0.5138435851449147
1772024965824330800,6.251330810546875,7.2864791964411735,3.54063963996768,-0.294247077159211
1772024965834328000,6.261328125,7.531869669038057,3.7814480454713104,-0.7376110952049494
1772024965844324900,6.271324951171875,8.540293847388028,4.057598397991061,-1.6630853337980807
1772024965854322000,6.281322021484375,9.099676035121083,4.243080637592077,-1.8765984667494893
1772024965864318700,6.291318603515625,9.772329212725161,4.4995653356552126,-1.4620876912876963
1772024965874317000,6.301317138671875,9.70591817370653,5.518881494897603,-0.7763698649272323
1772024965884313900,6.31131396484375,9.510361699336766,6.26463030385077,-0.5328737547095864
1772024965894311000,6.321310791015625,8.5204475756675,6.318388782045245,-1.1534159290652721
1772024965904308000,6.331307861328125,7.792209288963675,5.972749882757664,-1.5112971278756857
1772024965914305000,6.341304931640625,7.07669019857943,6.04785977653861,-0.9936655851572751
1772024965924301800,6.3513017578125,6.8666463491737835,6.51543520271182,-0.7246477148659527
1772024965934299000,6.361298828125,7.21251905721724,6.883700359827279,-0.7095797634631394
1772024965944297000,6.371296875,6.289290113332867,7.2749343045979735,-1.079754553592205
1772024965954294000,6.3812939453125,4.670220593002438,6.9095835736244915,-1.485846752537787
1772024965964290800,6.391290771484375,4.17278194348514,5.328379381307959,-1.7135175901792943
1772024965974288000,6.401287841796875,4.117959050929546,3.730193074530363,-1.8727920602038501
1772024965984285000,6.411284912109375,3.6535236763477323,2.8429490517407654,-1.5886946942023932
1772024965994281700,6.42128173828125,3.0819290727734563,1.0155711274951695,-1.1238801110446452
1772024966004278800,6.43127880859375,1.8509429242283104,-2.0246756893247366,-1.4004875596821307
1772024966014275800,6.44127587890625,-1.0938538060933352,-6.084225805905461,-1.924883481968939
1772024966024274000,6.45127392578125,-4.421768979269266,-9.747593999919294,-0.41032501420974726
1772024966034270700,6.461270751953125,-10.107043982416391,-8.894215421852468,3.1274820326805113
1772024966044267800,6.471267822265625,-16.378378167819974,-6.282236103168129,5.771768460729718
1772024966054264800,6.481264892578125,-19.001136070150135,-9.650833415344357,6.119347388169169
1772024966064262000,6.491261962890625,-19.2823694250226,-9.354520564761756,3.717775491505861
1772024966074258700,6.5012587890625,-16.89881775369644,-6.121543436908722,2.2648631864510476
1772024966084256000,6.511256103515625,-16.720270866316557,-5.74667961218059,2.792742420808971
1772024966094252800,6.521252685546875,-16.126624589931964,-6.133223353308439,3.0081080497592687
1772024966104251000,6.5312509765625,-14.168328959965706,-6.62660717447698,2.634947814078629
1772024966114247700,6.54124755859375,-12.571805617964268,-6.695189127793908,2.0773859736405313
1772024966124245000,6.551244873046875,-10.740482170963286,-6.130888188359141,1.589056805513054
1772024966134241800,6.56124169921875,-8.561582134610415,-6.032910044687986,1.1331592499129473
1772024966144238800,6.57123876953125,-6.361952613961696,-5.538082454451918,0.7439706933647394
1772024966154236000,6.58123583984375,-3.8210061488777396,-4.0626565581634635,0.754739924660325
1772024966164233000,6.59123291015625,-1.9689684151500462,-2.334515545478463,1.1106525268115102
1772024966174229800,6.601229736328125,-1.2054366967469452,-0.757524294681847,1.6024008557327092
1772024966184227800,6.611227783203125,-0.8783926078140735,0.3586497720301151,1.910665717654675
1772024966194225000,6.621224853515625,-0.4369412184566259,0.7793547259569168,1.327739572726935
1772024966204222000,6.631221923828125,1.1857102520138025,0.968385890211165,0.17460531014725564
1772024966214218800,6.64121875,3.0968922486275434,1.073847959896922,-0.6936743383228778
1772024966224215800,6.6512158203125,4.066677191981673,1.3525351374179124,-0.9459456564746797
1772024966234212900,6.661212890625,5.048798469817638,1.8009882222309708,-1.475108939293772
1772024966244209700,6.671209716796875,5.923384086564183,1.9845660895153878,-1.7532199243620037
1772024966254207000,6.68120703125,6.643070233500003,2.163285703113675,-1.939557611748576
1772024966264204800,6.691204833984375,7.609296607589721,2.572496326340735,-1.692545090907812
1772024966274201900,6.701201904296875,6.937041489392518,3.061041475306451,-0.9743703714482486
1772024966284198700,6.71119873046875,7.571176428031921,2.9442858581900593,-0.5616891495011747
1772024966294196000,6.721196044921875,9.305403774893284,2.7237930954843756,-0.38090295876190067
1772024966304192800,6.73119287109375,9.05689838514626,3.255045167276263,-0.37614071279615163
1772024966314189800,6.74118994140625,9.318238122025132,3.5106180111914873,-0.722299471239373
1772024966324187000,6.751186767578125,9.019597120755911,3.265954099303484,-1.202336831035465
1772024966334184000,6.761183837890625,7.8472180594801895,3.172209063157439,-1.1368738865219057
1772024966344181800,6.771181640625,6.701046621650457,3.8822424156069752,-0.4843502545591443
1772024966354178800,6.7811787109375,5.926739826732874,4.029364821675419,-0.6755201113425194
1772024966364176000,6.79117578125,5.952750466302037,4.047485000255704,-0.9256791135154664
1772024966374173000,6.8011728515625,6.492358278506994,4.692172897091508,-0.5389671762138605
1772024966384169700,6.811169677734375,7.714286675849556,5.241107925090193,-0.14876622775271534
1772024966394167000,6.8211669921875,8.407737142288685,5.354088992103934,-0.11652831116653978
1772024966404163800,6.831163818359375,8.567380591756105,5.2452539388537405,-0.06461498591471464
1772024966414161000,6.841160888671875,8.482069621956349,5.083422039431333,0.15243790200278162
1772024966424158700,6.85115869140625,8.368652501612901,4.992609549605846,0.2587517296796664
1772024966434156000,6.861156005859375,8.423910862976312,4.867509882514178,0.20266411441788076
1772024966444152800,6.87115283203125,8.077330298924446,4.536286169809102,0.08278846558481455
1772024966454150000,6.88114990234375,6.57586190662384,3.7043805878818032,-0.3719308034835383
1772024966464147500,6.8911474609375,3.703322018739581,2.0097446621745823,-0.8787452206440269
1772024966474144800,6.901144775390625,0.451930113273859,-0.5283832383573055,-0.8161750018972903
1772024966484141600,6.9111416015625,-1.7497212685912846,-4.519642493522167,-0.2785928868336603
1772024966494138600,6.921138671875,-3.6993104450106618,-9.515936284598707,0.20719560210136695
1772024966504136400,6.931136474609375,-6.568617342323065,-11.535179427480697,0.746777421348542
1772024966514133800,6.9411337890625,-12.777718651175498,-8.198971642255783,1.8427318529829382
1772024966524130600,6.951130615234375,-20.75663650666475,-8.323083175092934,2.5572990494698287
1772024966534127600,6.961127685546875,-21.798350375676154,-7.121716504263877,0.9469960423104464
1772024966544124700,6.971124755859375,-19.072974979436395,-1.7506658559650181,-0.04028842697497457
1772024966554121500,6.98112158203125,-16.834648940646648,-3.429584280319512,-0.4086973764752969
1772024966564118500,6.991118408203125,-15.541754325199125,-6.915175694543123,-0.3190729273905977
1772024966574115600,7.001115478515625,-14.87243350688815,-7.057058446392417,0.2842859473761171
1772024966584113700,7.01111376953125,-13.724662817168236,-7.762792640343308,0.5737949631627649
1772024966594110500,7.0211103515625,-11.983840894347429,-7.306108026018738,0.005623758165910839
1772024966604107500,7.031107421875,-9.683638537359236,-5.51111086089611,-0.4780223667118698
1772024966614104600,7.0411044921875,-7.3099687931001185,-4.757865558707714,-0.6046211863201111
1772024966624101600,7.0511015625,-5.23102433797121,-3.9695635561853644,-0.6029677930898965
1772024966634098400,7.061098388671875,-3.285575330096483,-2.6512071672230957,-0.38216260343417524
1772024966644095700,7.071095703125,-1.586778777578473,-1.4363149521276355,-0.10631547164469957
1772024966654092500,7.081092529296875,-0.7060398988991975,-0.2969049712568521,0.07975128984600305
1772024966664090600,7.091090576171875,-0.3571031271100044,0.807107533018291,0.06970788860693573
1772024966674087400,7.10108740234375,0.5793921255826949,1.5447203817889092,-0.23359438247159123
1772024966684084700,7.111084716796875,1.799447130268812,1.8454016567140816,-0.7703091035835444
1772024966694081500,7.12108154296875,3.1833477122873064,2.1186638865768908,-1.2282507322318852
1772024966704078600,7.13107861328125,4.608742334210873,2.498800098749995,-1.5195035229459404
1772024966714075600,7.14107568359375,5.957384555843472,2.5625430876031516,-1.4249841414265334
1772024966724072700,7.15107275390625,7.3654188776433465,2.3506375359788536,-1.2317062795132399
1772024966734069500,7.161069580078125,8.539634506696462,2.4250404505342242,-1.2720377053797245
1772024966744067600,7.171067626953125,9.36523894265294,2.7711852535173294,-1.2303728389523922
1772024966754064600,7.181064697265625,9.742588738977908,2.817953726693988,-0.9859645092606544
1772024966764061700,7.191061767578125,9.77604443385601,2.636351835657656,-0.9005271366022527
1772024966774058500,7.20105859375,9.499822769665718,2.6870029954865573,-0.8689834128253161
1772024966784055800,7.211055908203125,9.006886692264676,2.936235822725296,-0.6774635004952549
1772024966794052600,7.221052490234375,8.65480110105574,3.2257448385119436,-0.5029568284168839
1772024966804049400,7.23104931640625,8.246226729905604,3.3594910456568,-0.7876013069070875
1772024966814047500,7.241047607421875,7.709768906164169,3.479209604232013,-0.9167338827766478
1772024966824044800,7.251044921875,7.304067460101843,3.812157656511664,-0.9654244100570678
1772024966834041600,7.26104150390625,6.840624603688717,4.207722323963046,-0.9586138532593845
1772024966844038700,7.27103857421875,6.630307782560586,4.55884053144455,-0.8814287606395781
1772024966854035700,7.28103564453125,6.639542059373855,4.91947533981204,-0.7669390426285565
1772024966864032500,7.291032470703125,7.0412366078823805,5.12803976431489,-0.6929167248886078
1772024966874029600,7.301029541015625,7.4915020028144115,5.311514171224832,-0.5633934692010283
1772024966884026600,7.311026611328125,7.675835072380304,5.673282952058315,-0.3301915931783616
1772024966894024700,7.321024658203125,7.707894344463944,5.869563064527512,-0.3504406735461205
1772024966904021500,7.331021484375,7.499578341764211,5.715762495869398,-0.5110469766963273
1772024966914018600,7.3410185546875,6.807818312630057,4.92482722223401,-0.8096632819157094
1772024966924015600,7.351015625,5.601413647633791,3.7006349716126916,-1.1928236642155796
1772024966934012700,7.3610126953125,3.639624914854765,2.3215187012612817,-1.5182729582376777
1772024966944009500,7.371009521484375,0.9640332479596138,0.12161620889008044,-1.556607657328993
1772024966954006800,7.3810068359375,-2.192653836417198,-3.5919676761448383,-0.5626549988586456
1772024966964003600,7.391003662109375,-5.192645799738169,-8.182374143198132,1.1693448812115936
1772024966974001700,7.401001708984375,-7.499184374010563,-10.759756195753813,2.5443720556184646
1772024966983998500,7.41099853515625,-11.224440576660632,-8.550111477047205,3.160072927422821
1772024966993995800,7.420995849609375,-18.391378032398222,-7.324175013107061,3.7749779726743697
1772024967003992600,7.43099267578125,-20.724920348930358,-8.971184095242618,2.211015568668395
1772024967013989600,7.44098974609375,-18.25271891877055,-5.417684389179945,0.08776749610640108
1772024967023986700,7.450986572265625,-16.998415607523917,-4.21247039527297,0.8081594532240182
1772024967033983700,7.460983642578125,-14.460468324255942,-7.118713815316558,0.3870750715255737
1772024967043980500,7.47098046875,-12.050825933861733,-8.247886772072315,0.28792145433425903
1772024967053978600,7.480978515625,-10.489714096981286,-9.61513140284419,0.1790362783320248
1772024967063975700,7.4909755859375,-9.441523725432157,-10.810406186538934,-0.5652881969064474
1772024967073972700,7.50097265625,-8.18426156437993,-8.220711180377005,-1.2072535369105637
1772024967083969500,7.510969482421875,-6.849423411694168,-5.676881268811226,-0.9819311620913446
1772024967093966800,7.520966796875,-6.172098150625825,-3.5849084052830933,-0.6510916263982653
1772024967103963600,7.530963623046875,-4.902032037580013,-1.659748736721277,-0.3936827992275357
1772024967113960400,7.54096044921875,-3.5993022568166255,-0.4725716270253062,-0.3107448421694338
1772024967123958500,7.55095849609375,-2.5422785904705525,0.45155192761123175,-0.22663374967873096
1772024967133955800,7.560955810546875,-1.4076239874333143,1.2044924016341567,-0.045090749222785234
1772024967143952600,7.57095263671875,-0.12836509862840176,1.7776403721302747,-0.12158727505654096
1772024967153949400,7.580949462890625,1.4629361248105763,2.1184300778210163,-0.36315848162621256
1772024967163946800,7.59094677734375,3.0541181057840583,2.4676512195095417,-0.422934904935956
1772024967173943600,7.600943603515625,4.497921660101413,2.8590269108384847,-0.42129780525341626
1772024967183940600,7.610940673828125,5.999995032557845,2.902223663008213,-0.38507016144394873
1772024967193937700,7.620937744140625,7.576807127395272,2.7950542048826814,-0.4623702587455511
1772024967203935700,7.630935791015625,9.019553866136073,2.9047645796626806,-0.585025309164077
1772024967213932500,7.6409326171875,9.985048418819904,2.9692125019147992,-0.5612361450366675
1772024967223929600,7.6509296875,10.275069475781917,2.731073315620422,-0.6893810250431299
1772024967233926700,7.6609267578125,10.06163247680664,2.560406952357292,-0.9621860126577317
1772024967243923700,7.670923828125,9.6709509052217,2.832000372225046,-1.0565445045270025
1772024967253920500,7.68092041015625,9.029803457471727,3.3832775794357057,-0.9698961486436426
1772024967263917600,7.69091748046875,8.297645366975665,3.9460459024757144,-0.9385147758215665
1772024967273914600,7.70091455078125,7.622744118183851,4.466065801635384,-0.9041757222376763
1772024967283912700,7.71091259765625,7.2063897606819864,4.820318800011277,-1.0131589517869055
1772024967293909500,7.720909423828125,7.280020814082026,5.001935596355795,-1.1940411502465604
1772024967303906600,7.730906494140625,7.632447766074538,5.186764340484142,-1.3078325107298792
1772024967313903600,7.740903564453125,7.967345491117238,5.380862432739138,-1.3978979815803467
1772024967323900700,7.750900634765625,8.009687087762355,5.551271021848916,-1.3734316488437355
1772024967333897500,7.7608974609375,8.12752903881073,5.6065182772964235,-1.4617638661608099
1772024967343894800,7.770894775390625,8.323004849159718,5.631480284595489,-1.599075510702282
1772024967353891600,7.7808916015625,8.21234842570126,5.787518987569213,-1.6013000548839569
1772024967363889700,7.7908896484375,7.903920774433017,6.0388014408141375,-1.3422161341078578
1772024967373886500,7.800886474609375,7.430958979046344,6.178983233964443,-1.0538502970069645
1772024967383883800,7.8108837890625,6.969983974051475,5.742655178970098,-0.9876198752522468
1772024967393880600,7.820880615234375,6.3625137549757955,4.6730911800026895,-1.1010253051578998
1772024967403877400,7.83087744140625,5.1983396274656055,2.9590169788539407,-1.2631173168212175
1772024967413874700,7.840874755859375,3.5526048030495643,0.7367524325489997,-1.0506336730480192
1772024967423871500,7.85087158203125,1.0603443352013826,-1.981260910490155,0.2687780701860785
1772024967433869600,7.86086962890625,-2.8262106829077003,-5.26562043505609,1.8644602851882577
1772024967443866400,7.870866455078125,-6.689495884588361,-9.213907978978753,2.728260888548195
1772024967453863700,7.88086376953125,-10.623266827380657,-10.549377415305376,2.930436781057715
1772024967463859700,7.890859619140625,-16.991420049548147,-8.853597580260038,3.0535598873794076
1772024967473856800,7.900856689453125,-24.25875030888319,-9.974840328538416,3.0194097804963587
1772024967483853800,7.910853759765625,-23.422528617322442,-7.57869454857707,1.0066830337710677
1772024967493850600,7.9208505859375,-20.400676704370973,-2.3574051304176447,0.8402182138510048
1772024967503848000,7.930847900390625,-18.384820865839718,-3.741802556042373,1.0717400278322398
1772024967513845800,7.940845703125,-15.833968508291244,-6.956368121153115,1.549677273543924
1772024967523842800,7.9508427734375,-13.928418964606523,-7.938207659438252,2.0414882924377915
1772024967533839600,7.960839599609375,-12.420066073489188,-10.021763407754898,2.2350683521680534
1772024967543837000,7.9708369140625,-11.077496449768542,-10.500512554371356,1.5905024742767213
1772024967553833700,7.980833740234375,-9.745479784244298,-8.451457041549682,0.9955937767408788
1772024967563830800,7.990830810546875,-8.413588790926337,-6.655024875187873,1.0092641363054513
1772024967573827800,8.000827880859376,-7.222555882585048,-4.731217205756902,0.7926525989472866
1772024967583825000,8.010824951171875,-5.724025297302007,-2.662561504930258,0.6636477411106229
1772024967593822700,8.02082275390625,-3.618154841324687,-1.4079384602099656,0.36282939580231904
1772024967603819800,8.03081982421875,-1.3164707213461397,-0.7528501653909683,0.07919336370229721
1772024967613816800,8.04081689453125,0.3063064213305712,0.2511936059176922,-0.10083543279841542
1772024967623814000,8.05081396484375,1.4812094481259583,1.6067720565542578,-0.27541882337480783
1772024967633810700,8.060810791015625,2.6998417265325783,2.4286098334535957,-0.4616318614684045
1772024967643808000,8.07080810546875,4.1421646869033575,2.9862317335158584,-0.5876552192762494
1772024967653804800,8.0808046875,5.744300023567676,3.6830367710798977,-0.6231976573005318
1772024967663803000,8.090802978515624,7.140589547038078,4.192518909612298,-0.539235617891699
1772024967673799700,8.100799560546875,8.253017120698093,4.112622950598597,-0.2409668109357357
1772024967683797000,8.110796875,9.433806282922625,3.6348242365747687,-0.1745833905763924
1772024967693793800,8.120793701171875,10.460641147232055,3.32681627202332,-0.4384251734040677
1772024967703790600,8.13079052734375,10.991889711892604,3.21698577799499,-0.6494052807465195
1772024967713788000,8.140787841796875,11.055485693490505,3.0815655001580713,-0.7793307605594396
1772024967723784700,8.15078466796875,10.789979484581947,3.0312101084053515,-0.8463054248102009
1772024967733781800,8.16078173828125,9.990021531057357,3.419960419666767,-0.8998154812015593
1772024967743779600,8.170779541015625,9.005314912903309,3.956923270320892,-0.8440934478491544
1772024967753777000,8.18077685546875,8.14951699873507,4.419446673801541,-0.69594096808061
1772024967763773700,8.190773681640625,7.726454668027162,4.691722230714559,-0.7461962604597211
1772024967773770800,8.200770751953126,7.84322694401741,4.837752749893069,-0.8589373812377452
1772024967783767800,8.210767822265625,8.041326088607311,5.051792390936613,-0.93815412581563
1772024967793764900,8.220764892578124,8.074418210870027,5.304530303686857,-0.9109002081871033
1772024967803761700,8.23076171875,7.939314743897318,5.506176911625266,-0.9737724055550991
1772024967813759700,8.240759765625,7.867706720757484,5.608496883893013,-1.1716314577788114
1772024967823756800,8.2507568359375,7.916827602279186,5.810478422874212,-1.118502655790001
1772024967833753900,8.26075390625,7.731879615685343,6.260459155645966,-0.9150696028262376
1772024967843750700,8.270750732421876,7.328682845920324,6.625945495697856,-0.9327113502398132
1772024967853748000,8.280748046875,7.066706564703583,6.408799120810627,-1.0908405957520007
1772024967863744800,8.290744873046876,7.049059848853945,5.668382320535183,-1.25415586559996
1772024967873741800,8.300741943359375,6.546041937899589,4.56268259382546,-1.6634433534555135
1772024967883739600,8.31073974609375,4.981254627376795,3.1516163569837805,-1.6697845391757786
1772024967893737000,8.320737060546875,2.033470405676961,1.336356740555167,-1.2402188179232179
1772024967903733800,8.330733642578124,-2.293699550965428,-0.6984031204104423,-0.2224100675690919
1772024967913730800,8.340730712890625,-6.74110156866312,-3.7830093034386634,1.0244006228998304
1772024967923728000,8.350727783203125,-9.418357953900099,-8.475525314879416,1.4017458891801535
1772024967933725000,8.360724853515626,-10.162607464206218,-11.39632508354187,1.4954064619131386
1772024967943721700,8.3707216796875,-12.317315308588743,-10.315151310801506,1.8304834890455006
1772024967953718800,8.38071875,-17.21221267198324,-10.887989776957035,2.014534234538674
1772024967963716900,8.390716796875,-17.502998283576964,-10.292939478993416,0.2430832185678184
1772024967973714000,8.4007138671875,-15.852002177631855,-4.879173724561929,0.3007594547279179
1772024967983710700,8.410710693359375,-14.52311738039255,-4.428001736178994,2.7268448842704296
1772024967993707800,8.420707763671874,-11.628436387848854,-7.342165427827835,3.549395777875185
1772024968003704800,8.430704833984375,-10.005544094359875,-8.486420802903174,3.7327006734371184
1772024968013701600,8.44070166015625,-10.861419749939442,-10.002315195441245,3.121735890243947
1772024968023698700,8.45069873046875,-11.252166787976027,-10.065788427442312,1.4055214621961116
1772024968033696800,8.46069677734375,-9.608391865456104,-7.174723871830105,1.1597566033288835
1772024968043693800,8.47069384765625,-8.392075462776422,-4.8955128649443385,1.145923016026616
1772024968053690600,8.480690673828125,-7.405102653256058,-3.3613311205655334,0.4100013352133333
1772024968063687700,8.490687744140626,-6.128601538726687,-1.4194436045646666,0.23577727946862578
1772024968073684700,8.500684814453125,-5.2030742547720665,0.3479050906538963,0.4125441515639424
1772024968083681800,8.510681884765624,-4.222676731988788,1.613103305402398,0.7498236571766436
1772024968093678600,8.5206787109375,-2.7765473650723695,2.660081963074207,0.8676153393425047
1772024968103676000,8.530676025390624,-0.9897826062440872,3.4501702644914385,0.7713787786416709
1772024968113673700,8.540673828125,0.6427981375664472,3.989518548977375,0.27916853129714725
1772024968123670800,8.5506708984375,2.5329116271883247,4.323443629595637,-0.4419238291747868
1772024968133667600,8.56066748046875,4.529661198711395,4.498298676720261,-0.9391248705439269
1772024968143665000,8.570664794921875,6.191215523549914,4.255870561060309,-1.2628919836327432
1772024968153661700,8.58066162109375,7.876371673250198,3.647829848620295,-1.2608026101380585
1772024968163658800,8.59065869140625,9.23147987602651,3.3576638302296398,-1.0835133216038346
1772024968173655800,8.60065576171875,9.94249522525072,3.3794062909603118,-0.8006915284961461
1772024968183654000,8.61065380859375,10.038667780804634,3.274247295874357,-0.5812731170237064
1772024968193650700,8.620650634765624,9.58514192277193,3.32405615966022,-0.45732817292511463
1772024968203647700,8.630647705078125,8.780663276952504,3.8261125321060416,-0.3241094967857003
1772024968213644800,8.640644775390625,8.016640560162067,4.408227945172786,-0.3219625478848815
1772024968223641900,8.650641845703126,7.6363260688126084,4.739367194464802,-0.31561390951052304
1772024968233638700,8.660638671875,7.576985991093516,4.889627898558974,-0.2878619792319834
1772024968243636000,8.670635986328126,7.783923106655478,5.042058932429552,-0.34403979352787134
1772024968253633800,8.6806337890625,8.035477947100997,5.191962493649124,-0.44859147037044167
1772024968263630800,8.690630859375,8.201479241162538,5.339560700535774,-0.6217879366330802
1772024968273627600,8.700627685546875,8.422453065383435,5.591998169034719,-0.6932420843854546
1772024968283625000,8.710625,8.669524622935056,5.894627947679162,-0.7641807568963617
1772024968293621800,8.720621826171875,8.880534102502464,6.156909349322318,-0.9065703622892498
1772024968303618600,8.73061865234375,8.777026966276765,6.586372194722294,-0.9335756389189511
1772024968313616000,8.740615966796875,8.339161618712543,6.986095735418796,-0.954661681567505
1772024968323612700,8.75061279296875,7.949208361402153,7.001479182511567,-1.1176541492018848
1772024968333610800,8.76061083984375,7.82875418202877,6.67530369310677,-1.18748391062282
1772024968343607600,8.770607666015625,7.678235119259357,6.108476450064778,-1.359313545511663
1772024968353604900,8.78060498046875,6.932641208606958,5.122496158713102,-1.7655102277450263
1772024968363601700,8.7906015625,5.34355883026123,3.686533381024003,-1.8520602378204465
1772024968373598700,8.8005986328125,2.4832512319624422,1.5283143136501312,-0.8616860223587602
1772024968383595800,8.810595703125,-1.2343792981147765,-2.3288410069733856,0.7292890378657728
1772024968393592800,8.8205927734375,-4.047552220273018,-7.569422277840972,2.323893467568606
1772024968403590700,8.830590576171875,-6.361888316553831,-11.092900939649343,2.955753593143821
1772024968413587700,8.840587646484375,-10.814742169916629,-10.208845483767986,2.237248180425167
1772024968423584800,8.850584716796876,-17.9978334725976,-10.365530083429812,1.3635190343774855
1772024968433581800,8.860581787109375,-20.315186870872974,-10.210917029345035,-0.22867643448747693
1772024968443578600,8.87057861328125,-19.022393962234258,-5.072903568026423,-0.16426467952728271
1772024968453576000,8.880575927734375,-18.157018656903503,-4.686166350153088,2.2849799456760285
1772024968463574000,8.890573974609374,-15.561324118065833,-7.739142884686589,3.426291960775852
1772024968473571800,8.90057177734375,-13.529867390298843,-9.615918753829598,3.581159866404533
1772024968483569000,8.91056884765625,-13.677954842007159,-11.455775635898112,3.4508307742267843
1772024968493565700,8.920565673828126,-13.481197759675979,-12.479924622124432,1.9713542873732743
1772024968503563000,8.93056298828125,-11.612462573647498,-10.407877525293827,1.5472802954047917
1772024968513559800,8.940559814453126,-10.128520485687256,-8.474466161215306,1.6968537478871644
1772024968523556900,8.950556884765625,-8.842569405767321,-7.008250868603587,1.1302303568542003
1772024968533554000,8.960553955078124,-6.778118170893192,-4.964756497040391,0.8682894392117857
1772024968543551000,8.970551025390625,-4.509969825291633,-3.4366824218869207,0.6560340512365103
1772024968553548800,8.980548828125,-2.435347325015068,-2.391909457565844,0.2663616566941142
1772024968563545900,8.9905458984375,-1.0629904657959937,-1.0073349218085408,-0.05121215471252799
1772024968573543000,9.00054296875,-0.2349544187784195,0.5600067493721842,-0.12149272864088416
1772024968583540000,9.0105400390625,0.9151321466684341,1.9254235801950097,-0.19344927295744418
1772024968593536800,9.020536865234375,2.0147616135537625,2.9633889103278515,-0.4104560932435095
1772024968603533800,9.030533935546876,2.971217119735479,4.111363890448213,-0.5566463330283761
1772024968613531000,9.04053076171875,4.463936388391256,5.021564425933361,-0.769702077601105
1772024968623529000,9.050529052734374,6.42393765323162,5.132483884242177,-1.1165231724105775
1772024968633525800,9.06052587890625,8.446603756299615,4.71712146038711,-1.3337860132843256
1772024968643522800,9.070522705078124,10.124261659198998,4.237556905734539,-1.450703104572743
1772024968653520000,9.080519775390625,11.039232477825879,3.942186888960004,-1.368366328278184
1772024968663516700,9.0905166015625,11.131406903654335,3.695690500947833,-1.1579381557300685
1772024968673514000,9.100513916015625,10.698348664110899,3.4565894838839766,-0.949277723506838
1772024968683510800,9.1105107421875,10.286889677435159,3.5868437572598455,-0.708154845226556
1772024968693508900,9.1205087890625,9.491618420422077,4.084584604594111,-0.3998416141182184
1772024968703505700,9.130505615234375,8.434401861852407,4.593754608437418,-0.17018435189984737
1772024968713503000,9.1405029296875,7.923151544603705,4.868053780132532,-0.19930494018308817
1772024968723499800,9.150499755859375,7.876569241648912,5.064077872014045,-0.43889629804715513
1772024968733496800,9.160496826171874,8.169412954816222,5.2533834692955015,-0.7285941144041717
1772024968743494000,9.170493896484375,8.613238087567687,5.533970342957973,-0.9467749469056725
1772024968753491000,9.180490966796874,8.929577242612838,5.831832176548242,-1.1800074372623115
1772024968763488800,9.19048876953125,8.889609973883628,6.112452367958426,-1.3998406400807202
1772024968773485800,9.20048583984375,8.671996566006541,6.387206297683716,-1.4912594252362847
1772024968783483000,9.21048291015625,8.425339434474706,6.7866241334319115,-1.3655590157724915
1772024968793480000,9.22047998046875,8.248024134716392,7.170981762692332,-1.1553288500145078
1772024968803476700,9.230476806640626,7.862960403013229,7.342199914619326,-0.9544750729542225
1772024968813474000,9.24047412109375,7.281015670338273,7.1670496839404105,-0.8480112788800149
1772024968823470800,9.250470947265624,6.627703153020143,6.735813983649015,-0.8306370963614433
1772024968833468000,9.260468017578125,5.537209763270616,5.737527752953768,-0.7074470622833818
1772024968843465700,9.2704658203125,3.7345799113124607,4.230563101324439,-0.4402484433084726
1772024968853463000,9.280463134765625,1.137670735988021,2.1025983024388553,-0.04768186169452965
1772024968863459800,9.2904599609375,-1.6005670644342898,-1.845275984507799,0.8315800762999802
1772024968873457000,9.300456787109376,-3.4538059906452894,-7.430336463233828,1.8103262516796588
1772024968883454000,9.310453857421875,-4.846748541775345,-11.167695191609859,2.174315631172061
1772024968893451000,9.320450927734376,-9.057502196258305,-10.131762244087456,2.478407006801665
1772024968903447800,9.33044775390625,-17.130911522346732,-10.039226583731175,3.122888859671354
1772024968913444900,9.34044482421875,-21.63218249287605,-9.578105448263884,2.2656578439600765
1772024968923442000,9.35044189453125,-20.824831506490707,-2.759028074994683,2.3661798268951473
1772024968933438700,9.360438720703126,-19.554822092068193,-2.8901398419827222,3.4291163705468177
1772024968943436000,9.37043603515625,-16.125816780680417,-7.196551672756671,3.7006893321484324
1772024968953432800,9.380432861328124,-14.172315399253367,-7.4955959941297765,3.5487890441536902
1772024968963431000,9.390430908203125,-14.585415723395347,-8.54014070265293,3.5231799711227416
1772024968973427700,9.400427734375,-14.359415010923147,-10.722827271807192,2.4154833715073765
1772024968983425000,9.410425048828126,-13.62508132995367,-9.318849531921744,1.2910333516202865
1772024968993421800,9.420421875,-12.542523409378528,-7.206292730048299,0.8652145618110895
1772024969003419000,9.4304189453125,-10.477207666629551,-6.4147548143446445,0.4398671889059245
1772024969013416000,9.440416015625,-8.104273250907658,-4.839423313453794,0.20299875319972632
1772024969023413000,9.4504130859375,-5.716323636883497,-3.19856895455569,0.177063663084805
1772024969033410800,9.460410888671875,-2.9668261913001537,-2.4911732571333647,0.15944222780689596
1772024969043408000,9.470407958984374,-0.7444774738430976,-1.8161460438743233,0.2094477832086384
1772024969053405000,9.480405029296875,-0.2424257775723934,-0.2829503879234195,0.43689694092348214
1772024969063402000,9.490402099609375,-0.36862931425273415,1.4116983972653745,0.4542363443896174
1772024969073398800,9.500398681640625,-0.01371814422905445,2.3670494493365286,0.2885824024610221
1772024969083395800,9.510395751953125,0.8334861291170119,3.3803608152061697,0.1619159244440496
1772024969093393000,9.520392822265626,2.249441307044029,4.379001850688457,0.0008938800998032092
1772024969103391000,9.530390869140625,3.9265123499661683,4.97773814368844,-0.4342481799803674
1772024969113387800,9.5403876953125,5.775339889475703,5.1313423129916185,-0.8944447479486465
1772024969123384800,9.550384765625,7.69728936381936,4.84680611718148,-1.2057827337056397
1772024969133382000,9.5603818359375,9.469449843233823,4.380497057682276,-1.39323846533671
1772024969143379000,9.57037890625,10.439375071841479,4.132228399300575,-1.3899147277414798
1772024969153375700,9.580375732421874,10.69483802564144,3.830938929349184,-1.1893167520731687
1772024969163372800,9.590372802734375,10.587663599079846,3.437380925545096,-1.0023229388654231
1772024969173371000,9.600370849609375,10.05228714083433,3.2916678017526864,-0.7552065192587674
1772024969183368000,9.610367919921876,9.385254725721477,3.481160446038842,-0.6553698882393538
1772024969193364700,9.62036474609375,8.751557009455562,3.862541689836979,-0.8788172629669309
1772024969203361800,9.63036181640625,8.343955282729864,4.325665397298335,-0.8712950507685542
1772024969213358800,9.64035888671875,7.977184748086333,4.756012624317408,-1.0507022082395852
1772024969223355600,9.650355712890626,8.024435159561037,5.0012096201688045,-1.3189753976434468
1772024969233353000,9.66035302734375,8.318813242688774,5.257722959804535,-1.487611570253223
1772024969243349800,9.670349853515624,8.486098731341958,5.5562458876520395,-1.6207017977073788
1772024969253347800,9.680347900390625,8.399926760798692,5.779163247156143,-1.6649042197883128
1772024969263344600,9.6903447265625,8.41309954610467,5.972522503742575,-1.7002109493605793
1772024969273342000,9.700342041015626,8.183097196775675,6.314767084416746,-1.7202949753597379
1772024969283338800,9.7103388671875,7.821905923569202,6.644402943408489,-1.5961726288676261
1772024969293335800,9.720335693359376,7.82121969487071,6.643931234243512,-1.4041419905364512
1772024969303332900,9.730332763671875,7.652990787887573,6.399508145374059,-1.1716184521667659
1772024969313330000,9.740329833984376,6.770296683487295,5.91602378692925,-1.0740315728355199
1772024969323327700,9.75032763671875,5.677462283569574,5.064799172025919,-1.1486216805260627
1772024969333324800,9.76032470703125,4.930287825727462,3.82949165315032,-1.031212421806529
1772024969343321900,9.77032177734375,3.768732940804958,1.9049556694447993,-0.8883104099120944
1772024969353319000,9.78031884765625,1.9371569803476332,-1.125652381414175,-0.23068901641890405
1772024969363315700,9.790315673828125,-0.8446914137423038,-5.459439710369706,0.7588886418376117
1772024969373313000,9.80031298828125,-4.316021370640397,-9.006760435536503,1.2225140152107923
1772024969383309800,9.810309814453126,-8.722796778917312,-9.016911242672801,2.124398630836606
1772024969393308000,9.820307861328125,-14.84188405484557,-9.022157326632737,3.246650556157529
1772024969403304700,9.8303046875,-19.98333976557255,-10.493390739667415,2.664087983845174
1772024969413302000,9.840302001953125,-19.1140762206316,-7.632531937226653,1.5633832889437675
1772024969423298800,9.850298828125,-16.906169870024918,-6.215472597450018,2.065466987787932
1772024969433296000,9.8602958984375,-15.39400238905549,-8.240762034758925,1.9709607580110429
1772024969443293000,9.87029296875,-14.401231706911325,-9.300606603744626,1.645394048154354
1772024969453289700,9.880289794921875,-15.06993994628191,-9.840928701698779,1.0560749142538755
1772024969463286800,9.890286865234375,-15.147260501849651,-9.999390247905254,0.08357508591786027
1772024969473284900,9.900284912109376,-13.38225690845251,-8.403975743928552,-0.033859745634347196
1772024969483282000,9.910281982421875,-11.834536468064785,-7.263480598169565,0.11631503374204039
1772024969493279000,9.920279052734376,-10.899351713448763,-5.953217499291896,0.5947216505311429
1772024969503275800,9.93027587890625,-9.567207037630677,-4.263866235989332,1.3788205022752285
1772024969513273000,9.940273193359374,-6.889321122318506,-3.630096331270039,1.6495533597908913
1772024969523271700,9.950271728515625,-4.249738926437497,-3.161808372913301,1.8943617947161198
1772024969533269000,9.96026904296875,-2.6229548862069842,-1.9392524913221596,2.1333418157488104
1772024969543265800,9.970265869140626,-1.3187784137666225,-0.9184013775974511,1.8842524886339902
1772024969553262800,9.980262939453125,-0.0671685793876648,-0.07585311336368322,1.4149937855489552
1772024969563260000,9.990260009765626,0.9276064283162355,0.9685875502631067,0.7197356851659715
1772024969573257000,10.000257080078125,1.8743454271256923,1.9247148474037645,-0.07812368864417076
1772024969583253800,10.010253662109376,3.6512948943823575,2.8360277280449866,-0.9023593204654753
1772024969593251800,10.020251953125,5.818149688154459,3.6869741105288263,-1.2940731577076017
1772024969603249000,10.030248779296874,8.166908278518914,3.945795142585039,-1.561251391481608
1772024969613246000,10.040245849609375,10.355347712111472,3.9595080261170863,-1.7201577588461339
1772024969623242800,10.05024267578125,11.727663654798269,4.16731783286035,-1.606628264169395
1772024969633240000,10.060239990234376,11.860592115819454,4.276965371537209,-1.4369713702097535
1772024969643236900,10.07023681640625,11.19238422718644,4.339215199223161,-1.3146576805748045
1772024969653234000,10.08023388671875,10.255629446774721,4.647897702035308,-1.284933135049045
1772024969663231700,10.090231689453125,8.89697611873746,5.405228227710723,-1.2298643049083648
1772024969673229000,10.10022900390625,7.448991479343175,6.0648863146632905,-1.1664330123528837
1772024969683225900,10.110225830078125,6.541129615938663,6.1395765217274425,-1.2723654760293661
1772024969693223000,10.120222900390624,6.381828111776709,6.1043713528335095,-1.4855284803688524
1772024969703220000,10.130219970703125,6.998558911150694,6.156107969811559,-1.4561512869760393
1772024969713216800,10.140216796875,7.70532887789011,6.318242651572823,-1.3899819477587938
1772024969723213800,10.1502138671875,7.85704737957716,6.655947250729799,-1.462889947581291
1772024969733211000,10.1602109375,8.10988699913621,6.9146747592836615,-1.4914625465929507
1772024969743209000,10.170208984375,8.489976449558139,7.152485736536979,-1.470672856542468
1772024969753206000,10.1802060546875,8.732467109060288,7.340476159566641,-1.742954550935328
1772024969763202800,10.190202880859376,8.806215651360153,7.493689868247508,-1.915115244409442
1772024969773200000,10.200199951171875,8.731988385632633,7.574888142031431,-1.8780982037879526
1772024969783197000,10.210197021484374,8.535688399419188,7.425103823277354,-1.777979394826293
1772024969793193700,10.22019384765625,8.296067742395401,6.619488866904377,-1.6643534540377556
1772024969803191000,10.23019091796875,7.361202721253037,5.186687183594703,-1.4726657839253543
1772024969813188900,10.24018896484375,5.793213984340429,3.445495258417725,-1.6439526171743868
1772024969823186000,10.25018603515625,3.540878124898672,1.212692366963625,-1.4830179588526486
1772024969833182700,10.2601826171875,0.10635434235036373,-2.011442698264122,-0.4901134211957454
1772024969843180000,10.270179931640625,-3.43282282384932,-7.093333290344476,0.7100888089638203
1772024969853176800,10.2801767578125,-5.979038169246912,-10.706357783043384,1.9450012641072272
1772024969863174000,10.290173828125,-9.891913039004802,-8.796275856626034,3.154366240213811
1772024969873171000,10.3001708984375,-17.3553387018919,-7.687529601827263,3.5588927972778674
1772024969883169000,10.3101689453125,-22.247854723107814,-8.950131370341778,2.537398417213559
1772024969893165800,10.320165771484374,-19.688090744829175,-5.049227508884668,1.173374575119093
1772024969903163000,10.330162841796875,-17.260395980393884,-3.2783003706574436,1.1863995494522153
1772024969913160000,10.340159912109375,-15.468925235831737,-6.655499506962299,1.0653672048646956
1772024969923157000,10.350156982421876,-13.74872992145419,-8.069867123436927,1.018952732757479
1772024969933153800,10.36015380859375,-13.704722437423467,-8.240819902426004,1.5053035865493118
1772024969943151000,10.370151123046876,-14.131251567459106,-9.544071076714992,1.353964585699141
1772024969953148000,10.38014794921875,-13.092303656029701,-9.062674045938254,0.4327675860337913
1772024969963146000,10.39014599609375,-11.593787099272012,-7.485945537731051,-0.07637363010644913
1772024969973142800,10.400142822265625,-10.054530535846949,-6.196549285793304,-0.05532704268544912
1772024969983140000,10.41014013671875,-8.106538273230194,-4.4852369505733245,0.3281125949472189
1772024969993137000,10.420136962890625,-5.901782495608925,-3.2215900569200513,0.5598530201151967
1772024970003134000,10.430134033203124,-3.5678929730743167,-2.6630390593141318,0.6729922003000974
1772024970013131000,10.440131103515625,-1.5451900451272724,-1.8165706990271806,0.613070523300767
1772024970023127800,10.4501279296875,-0.30495968289673325,-0.6577928776025772,0.36410686839222905
1772024970033124900,10.460124755859376,0.6620119566023349,0.5453495707273482,0.2556621296338737
1772024970043123000,10.470123046875,1.4415046297252176,1.6551041257858274,0.04887143680527806
1772024970053120000,10.4801201171875,2.089260097438097,2.6874843492627143,-0.27182152953520416
1772024970063116800,10.49011669921875,3.257399036926031,3.8665088399022816,-0.5692264131382108
1772024970073113900,10.50011376953125,4.589586967363953,4.969731362843513,-0.7312992817096412
1772024970083111000,10.51011083984375,6.025949558025598,5.27539305652976,-0.8912157028995453
1772024970093108000,10.52010791015625,7.728102435234189,4.691911615806818,-1.1983441081374884
1772024970103104800,10.530104736328125,9.42751273573637,4.30372653721273,-1.4196750752329825
1772024970113102800,10.540102783203125,10.38664535217285,4.449880390509962,-1.4522503340147435
1772024970123100000,10.550099853515626,10.406870978599786,4.566697090163827,-1.3404765969641506
1772024970133097000,10.560096923828125,9.943228215700387,4.469056215623021,-1.1314498156465589
1772024970143093800,10.57009375,9.025018561282753,4.6598464985042805,-0.9187848239570856
1772024970153091000,10.580091064453125,8.015435860547424,5.137315542182326,-0.7378921041034162
1772024970163088000,10.590087890625,7.341049575540423,5.556015001505613,-0.6380018432006239
1772024970173085000,10.6000849609375,6.986084629502892,5.8221203453511,-0.6449750432141125
1772024970183082800,10.610082763671874,6.978865784165262,5.974157995989918,-0.7277208387009799
1772024970193080000,10.620080078125,7.1298249919176095,6.28458588116467,-0.7541752765148878
1772024970203076900,10.630076904296875,7.545498381417989,6.600128332874179,-0.739264123108983
1772024970213074000,10.640073974609376,8.013005418530106,6.895519392436742,-0.7724578060500323
1772024970223071000,10.650071044921875,8.459314184790848,7.158223987928032,-0.7319117145195603
1772024970233068000,10.660068115234376,8.766446535551548,7.401415489175915,-0.5230475764177739
1772024970243064800,10.67006494140625,8.761552918291091,7.500311916735768,-0.4322465578343719
1772024970253063000,10.68006298828125,8.581569276106357,7.346472185111045,-0.4667676899868995
1772024970263060000,10.69006005859375,8.23508282007873,6.908986192253232,-0.4215515608187765
1772024970273057000,10.70005712890625,7.389613407701254,5.923218666869402,-0.4034107778418809
1772024970283053800,10.7100537109375,6.14638912435174,4.120045794075727,-0.5464890230860561
1772024970293051000,10.72005078125,4.6317941239744425,1.2332464946925639,-0.6837189076282083
1772024970303048000,10.7300478515625,2.3178186776995657,-2.647094471207261,-0.40967400295510886
1772024970313044700,10.740044677734375,-1.1450433105826376,-7.2774302130669355,0.08056976662203669
1772024970323041800,10.750041748046876,-5.201879492029548,-11.422308250582217,0.80417659413293
1772024970333039900,10.760039794921875,-9.622624973469971,-11.61393556880951,1.9523603946983814
1772024970343037000,10.770036865234376,-16.4539428196311,-9.474586037078499,3.1949177385717626
1772024970353033700,10.78003369140625,-23.789157113146782,-11.641557735228538,2.59027923579067
1772024970363030800,10.79003076171875,-22.57703640859127,-10.240117404866218,0.7100250960778445
1772024970373027800,10.80002783203125,-18.962519046986102,-5.949651915764808,1.3530591612920164
1772024970383025000,10.81002490234375,-16.81323205860853,-7.203689269551634,1.7691731341667472
1772024970393021700,10.820021728515625,-14.994620793664454,-8.342727786761522,2.3584926333934066
1772024970403020000,10.83002001953125,-14.753941567498444,-9.277351400363445,1.7973112872838972
1772024970413016800,10.840016845703126,-13.272406540679931,-10.45830072158575,0.982215531990677
1772024970423014000,10.850013916015625,-9.949438176256418,-8.817362483796476,0.9321448023982345
1772024970433011000,10.860010986328126,-8.53342805327177,-6.583607990705967,0.9836651462770998
1772024970443008000,10.870008056640625,-8.059838481375575,-5.613709650105237,0.770267018007487
1772024970453004800,10.8800048828125,-6.391866690710186,-4.487648103368282,0.6899629165843129
1772024970463000800,10.890000732421875,-4.5690486217260355,-3.2621652284145353,0.7715738628223537
1772024970472997600,10.89999755859375,-3.3396453584581614,-1.9711580341488122,0.49000206977576016
1772024970482995700,10.90999560546875,-2.0623335120677946,-0.27577742755413054,0.42175475524067874
1772024970492992500,10.919992431640624,-0.7525017903447151,1.5096856010258197,0.4316794985361397
1772024970502989800,10.92998974609375,0.37183307873010635,2.830045731025934,0.1712815725520253
1772024970512986600,10.939986572265624,1.7386095074683428,3.827154150113463,-0.386830156853795
1772024970522983700,10.949983642578125,3.460125256794691,4.613261272940039,-1.0613736782491205
1772024970532980700,10.959980712890625,4.972594935581088,5.217588517814875,-1.5254967720113695
1772024970542977800,10.969977783203126,6.446525917136669,5.3397407332777975,-1.9514147844113408
1772024970552975600,10.9799755859375,8.284671319112181,4.973227972787618,-2.200241661197692
1772024970562972700,10.98997265625,10.392221691000461,4.575149276688695,-2.232657199373096
1772024970572969700,10.9999697265625,11.143799936759471,4.830325814762711,-1.9757573446378112
1772024970582966800,11.009966796875,8.68598475934863,4.804420973655581,-2.3542959123559295
1772024970592963600,11.019963623046875,7.578242713156342,4.900799280914664,-2.2566958082169295
1772024970602961000,11.0299609375,7.547998381540179,5.451779551005363,-1.7187106287777423
1772024970612957700,11.039957763671875,7.159284310635924,6.111226625555753,-1.4267450136192141
1772024970622954800,11.049954833984375,6.360749667912721,6.84895462513864,-1.0318249276816844
1772024970632952600,11.05995263671875,6.3891258675694464,7.279410573229193,-0.6679600513517856
1772024970642950000,11.069949951171875,7.00501846255362,7.270501290586591,-0.7531605465143919
1772024970652946700,11.07994677734375,6.657184099048376,7.433133984997868,-0.853525585322082
