time,seconds_elapsed,z,y,x
1772459204070396000,0.08539599609375,0.37861528621613977,-0.6318529651820659,-0.3495084341973066
1772459204080393000,0.09539306640625,0.3993324955523014,-0.5686041895866394,-0.39213396235033865
1772459204090390000,0.10539013671875,0.42305356287956236,-0.5399743074297905,-0.46133916213214393
1772459204100386800,0.11538671875,0.4705161558002233,-0.48245443087518214,-0.509699726805836
1772459204110383900,0.1253837890625,0.5522995359957218,-0.37644495643973347,-0.5626198544800282
1772459204120381000,0.135380859375,0.6098971539616584,-0.345553851352632,-0.5634698954381049
1772459204130377700,0.145377685546875,0.6777285811722278,-0.3118120330095291,-0.603518339644745
1772459204140374800,0.155374755859375,0.6774819129347801,-0.27889497505277394,-0.6794083509527147
1772459204150371800,0.165371826171875,0.8335930966228247,-0.20605185716003177,-0.7819349517084657
1772459204160369000,0.175368896484375,0.984057214334607,-0.16567688441276548,-0.8859498182605952
1772459204170365700,0.18536572265625,1.030332058775425,-0.11785188792049885,-0.8854599889170378
1772459204180363000,0.195363037109375,0.9890864406734704,-0.18920389047265052,-0.8434702744495123
1772459204190359800,0.20535986328125,0.9336527227431535,-0.38459056123346086,-0.7792170710518955
1772459204200356900,0.21535693359375,0.9573585925012826,-0.528046553748846,-0.6848214620426297
1772459204210354000,0.22535400390625,1.1454174045920371,-0.5640858353793621,-0.5647028712991625
1772459204220351000,0.23535107421875,1.3499199864834546,-0.4961024324774742,-0.4165622280988842
1772459204230347800,0.24534765625,1.5736813955962656,-0.3636734454110265,-0.315771584290266
1772459204240344800,0.2553447265625,1.8006003919571638,-0.15868746391683816,-0.10317428754214197
1772459204250342000,0.265341796875,1.9764128859370946,0.0739262369543314,-0.0572455165926367
1772459204260338700,0.275338623046875,2.1564695933580396,0.24183482594192027,-0.30343024483975023
1772459204270336000,0.2853359375,2.110298793813586,0.4102987107247114,-0.5724910774899646
1772459204280332800,0.295332763671875,2.3699130220741034,0.5924369005948305,-0.6862965030312538
1772459204290329900,0.305329833984375,2.932671992763877,0.7487152575433254,-0.6614945085994899
1772459204300327000,0.315326904296875,3.0245781230449675,0.7974556153148412,-0.6132360160607844
1772459204310324000,0.325323974609375,3.0565649144142863,0.9622563014149665,-0.7004213283650577
1772459204320320800,0.33532080078125,3.337277460283041,1.3887497756153344,-0.7327803140476346
1772459204330318000,0.345318115234375,3.305763547122478,2.236992744359374,-0.7880249391466378
1772459204340315000,0.35531494140625,3.0375790589153766,2.953537670660019,-0.6628283875517547
1772459204350311700,0.365311767578125,2.8957226105511187,3.0746704799473283,-0.48623088067397474
1772459204360309000,0.37530908203125,3.0507939297974107,3.096527506968379,-0.5029585089173167
1772459204370305800,0.385305908203125,3.2489889359772204,3.307330650308728,-0.5227525389939546
1772459204380302800,0.395302734375,3.288897167995572,3.2842928890705108,-0.35532113906405866
1772459204390300000,0.4052998046875,3.1090777764618394,3.093785807044804,-0.016793934945203363
1772459204400297000,0.415296875,2.589265967094898,3.0026813485354182,0.19295714205894618
1772459204410293800,0.425293701171875,1.8512679183989762,3.1273510997772216,-0.07304748135842383
1772459204420291000,0.435291015625,1.058756189227104,3.2009611103892324,-0.5508884270887822
1772459204430288000,0.445287841796875,-0.07266893036961555,2.7684190036743876,-0.9938182184357196
1772459204440285000,0.455284912109375,-1.9489958867013453,1.78839148324728,-1.4715524158559738
1772459204450282800,0.46528271484375,-5.037924024581909,-0.31734219460785384,-1.10843368171826
1772459204460280000,0.475280029296875,-10.599281556159257,-3.3752292975366114,-0.8480163203813135
1772459204470276900,0.48527685546875,-14.823804792797565,-5.542846307852864,-1.1348238221243023
1772459204480274000,0.49527392578125,-17.010025381296874,-6.641197425365448,-2.1339187388539314
1772459204490271000,0.50527099609375,-18.153253166890142,-6.324324017313122,-3.806346632145345
1772459204500272400,0.5152724609375,-17.749498178720472,-5.060628023821115,-5.6015124318331475
1772459204510269200,0.525269287109375,-15.773636496925352,-3.4549838022530075,-5.638262492081522
1772459204520266200,0.535266357421875,-14.693330154669283,-2.5435765213266013,-3.465139870086312
1772459204530263300,0.54526318359375,-14.467758481264113,-3.162781601859629,-0.8474718382410704
1772459204540260400,0.55526025390625,-13.87626207638979,-4.232722909706831,0.8238952208857983
1772459204550257200,0.565257080078125,-12.882497707033156,-4.879800916549563,1.857693275271356
1772459204560254200,0.575254150390625,-11.34796408047676,-5.1402703003346915,2.3157538541242477
1772459204570251300,0.585251220703125,-9.146544169279933,-4.94782348241806,2.2774987961404025
1772459204580248300,0.595248291015625,-7.00572631856203,-4.330009856243431,2.1123273770317432
1772459204590245000,0.6052451171875,-4.886951957347989,-3.368378116467595,1.8643807902112601
1772459204600242200,0.6152421875,-2.948896566855907,-2.3133190281927583,1.645016593144089
1772459204610239200,0.6252392578125,-0.9925438876509666,-1.3142445697292684,1.5921291986957191
1772459204620236000,0.635236083984375,0.9471218606472015,-0.18921908804178236,1.4000620277464388
1772459204630233300,0.6452333984375,2.497328857153654,1.0574310781031846,1.1506226450849324
1772459204640230100,0.655230224609375,3.7862931474149226,2.191572470921278,0.8807149132817983
1772459204650227200,0.665227294921875,4.925853058150411,3.1092753448605537,0.6049553136453032
1772459204660224300,0.675224365234375,5.891289158645272,3.874156724306941,0.16175898031666874
1772459204670221300,0.68522119140625,6.841244196891784,4.48575922088176,-0.4348275873035192
1772459204680218000,0.695218017578125,7.803490561434626,4.914534960800409,-0.8844358335010707
1772459204690215400,0.70521533203125,8.535857910767197,5.044656547707319,-1.2867395999491213
1772459204700212200,0.715212158203125,9.026270022648573,4.996263980460166,-1.549613852918893
1772459204710209000,0.725208984375,9.427796228852868,4.805616320919991,-1.6973431388393043
1772459204720206300,0.735206298828125,9.73432359945774,4.527594037048519,-1.7187911466680466
1772459204730203100,0.745203125,9.807975695645808,4.357404351386427,-1.642859853501618
1772459204740200200,0.7552001953125,9.801494516932964,4.2991169975906605,-1.5813941619306802
1772459204750197200,0.765197265625,9.9093750459373,4.391869515568017,-1.5554301379822193
1772459204760194300,0.7751943359375,9.978113651120662,4.658050262737274,-1.6884217273674904
1772459204770191000,0.785191162109375,10.130044918775559,4.930035896793007,-1.6886933839157223
1772459204780188400,0.7951884765625,10.016907199895382,5.148222136121988,-1.5897278366424141
1772459204790185200,0.805185302734375,9.75802830017209,5.293839982846379,-1.6852512806378304
1772459204800182300,0.815182373046875,9.623595279806851,5.383370616167784,-1.7487654291711747
1772459204810179300,0.825179443359375,9.446762210607528,5.48923571369648,-1.9709521363131701
1772459204820176400,0.83517626953125,9.344190893927216,5.708699717876315,-2.1379310432352123
1772459204830173200,0.845173095703125,9.374602983325719,5.949075577181578,-2.333247863630205
1772459204840170200,0.855170166015625,9.546653494423627,6.192050220808387,-2.440168461561203
1772459204850167300,0.865167236328125,9.493636774507165,6.576803571388125,-2.2051950458213687
1772459204860164000,0.8751640625,9.331624257820843,6.792515529558062,-2.127140184629708
1772459204870161400,0.885161376953125,9.156613727873562,6.552274694809317,-2.133733445414901
1772459204880158200,0.895158203125,8.44638572963476,5.566118462368846,-2.078716783852875
1772459204890155300,0.9051552734375,7.459162744745612,4.742755083337426,-2.4839672712773084
1772459204900152300,0.91515234375,6.567136163854599,4.26220970095396,-2.1416844044193626
1772459204910149400,0.9251494140625,4.365803930941224,3.38097631675601,-0.9910518955275416
1772459204920147200,0.935147216796875,0.7826935149908065,1.1343272707790135,0.5188691216893494
1772459204930144300,0.945144287109375,-3.9705484755694864,-2.6790450222194195,2.73325942748785
1772459204940141300,0.955141357421875,-9.119355133581161,-6.583034574732184,4.473108121362328
1772459204950138400,0.965138427734375,-13.453286839443445,-9.320863794353604,5.4049669464260335
1772459204960135200,0.97513525390625,-17.791754435169697,-11.237522176551819,5.27929240205586
1772459204970132200,0.98513232421875,-21.393683533358573,-12.783634012699126,4.08627358059436
1772459204980129300,0.99512939453125,-23.71606615797281,-10.690486844694615,0.5369322363201529
1772459204990126000,1.0051259765625,-22.628813357579705,-8.382171323877573,-2.797425317928195
1772459205000123100,1.015123046875,-21.193358529412745,-7.911510791170596,-3.5785198732897636
1772459205010120200,1.0251201171875,-20.111597896695137,-8.069704626351594,-2.6508772046163678
1772459205020117200,1.0351171875,-18.92164693837166,-8.970234247171879,-1.3395192962393163
1772459205030114000,1.045114013671875,-17.443679833167792,-9.669083942306042,-0.1852335986021906
1772459205040111400,1.055111328125,-14.909351909440755,-9.525850944891571,0.2531549691185355
1772459205050108200,1.065108154296875,-12.077713940787314,-8.95532893898487,0.3821443371251225
1772459205060105200,1.075105224609375,-9.19763021339476,-8.053631443428992,0.3071960636466741
1772459205070102300,1.085102294921875,-6.230334066495299,-6.610071050217747,0.29402386286258697
1772459205080099300,1.095099365234375,-3.3858453840970992,-4.967929281857609,0.34897819977812466
1772459205090096000,1.10509619140625,-0.7831634705901146,-3.1978350873231887,0.3056074792809784
1772459205100093200,1.11509326171875,1.228412498664856,-1.2505313914924858,0.05029723182469606
1772459205110090200,1.12509033203125,2.672604175516963,0.5361199700891971,-0.39638562844544645
1772459205120087000,1.135087158203125,3.962567413687706,1.9673779310882091,-0.9034379094824194
1772459205130084400,1.14508447265625,5.153505629482865,3.1391186944603917,-1.2373814025402068
1772459205140081200,1.1550810546875,6.154441497904062,4.084219278413057,-1.288036654022336
1772459205150078200,1.165078125,7.06637747887969,4.783718377366662,-0.9761252522915601
1772459205160075300,1.1750751953125,7.945645700484514,5.276390250873566,-0.47323900489285586
1772459205170072300,1.185072265625,8.724263928860426,5.581858467814326,0.09796922971233725
1772459205180069000,1.195069091796875,9.303781142127514,5.677950359347462,0.5720630978688598
1772459205190066400,1.20506640625,9.722028181508183,5.472767978498339,0.9801409907389431
1772459205200063200,1.215063232421875,9.897284795171021,5.1670133458316325,1.288258187818527
1772459205210060300,1.225060302734375,9.92072996816635,5.006733936548232,1.3234459671862422
1772459205220057300,1.235057373046875,10.068040005761384,5.180270886811614,1.0781597586814313
1772459205230054100,1.24505419921875,10.302245067477225,5.5211541160047055,0.7818475656859576
1772459205240051200,1.25505126953125,10.15997477761507,5.589181942570209,0.5582950866160914
1772459205250048300,1.26504833984375,9.821916542714833,5.540572517701984,0.3287270735837519
1772459205260045300,1.27504541015625,9.752552499109505,5.649000159195065,0.06046491703055799
1772459205270042000,1.2850419921875,9.7940395247519,5.936810554370283,-0.23755546812228856
1772459205280039400,1.295039306640625,9.696866267722845,6.295334069672227,-0.45150991510041055
1772459205290036200,1.3050361328125,9.630327802932262,6.664191347461938,-0.6336644715834409
1772459205300033300,1.315033203125,9.647788640820979,6.820892898258567,-0.7437447025891393
1772459205310030300,1.3250302734375,9.563903904432058,6.97258626550436,-0.8725878670580685
1772459205320027400,1.33502734375,9.615767362660169,7.186274024370312,-1.1106587373565882
1772459205330024200,1.345024169921875,9.624219549185037,7.173022913131118,-1.2752546215996146
1772459205340021200,1.355021240234375,9.360631156596542,6.967276468658447,-1.2157108380019663
1772459205350018300,1.365018310546875,8.888705133998393,6.538999618172645,-1.1253521563585847
1772459205360015000,1.37501513671875,8.271794886404276,5.823349010363221,-1.3445493993610143
1772459205370012200,1.38501220703125,7.105241754803061,4.8769805984318255,-1.8089096628800034
1772459205380009200,1.39500927734375,5.659500510421395,3.9040661248803135,-1.451918179450929
1772459205390007300,1.40500732421875,3.0917759285271167,1.9151169979751108,-0.09325020183380693
1772459205400004000,1.415004150390625,-0.7647451858460903,-1.6365765354484318,1.5158755417071281
1772459205410001200,1.425001220703125,-5.671417158186435,-6.4287611278653145,2.437547611538321
1772459205419998200,1.434998291015625,-12.012757192230223,-10.254297905910015,2.1423013672739266
1772459205429995300,1.444995361328125,-18.398967464613914,-11.982967618644237,1.2469450574383139
1772459205439992000,1.454991943359375,-22.586306925761697,-11.98842705309391,-1.0417736363746226
1772459205449989400,1.4649892578125,-25.197976447844503,-8.306037347745894,-4.508305106949806
1772459205459986200,1.474986083984375,-23.773318908023832,-4.310366705879569,-6.859351515990495
1772459205469983200,1.484983154296875,-22.166912469911573,-2.9823043309390544,-7.253415131229162
1772459205479980300,1.494980224609375,-21.522479424619675,-2.8190488284543154,-5.181707641616463
1772459205489977300,1.504977294921875,-21.008039371418953,-3.232965437415242,-2.213569783195853
1772459205499974100,1.51497412109375,-20.274791732120512,-3.920188115380704,0.6591914923541248
1772459205509967400,1.52496728515625,-18.689306501483916,-3.9182311360940334,2.724256913603842
1772459205519964400,1.53496435546875,-16.016977635776996,-3.7563276327401396,3.4512656585127113
1772459205529961500,1.54496142578125,-13.297107266694306,-3.7088954349577423,2.966977874730527
1772459205539958500,1.55495849609375,-10.384940886342525,-3.155103030055761,2.1445327795878053
1772459205549955300,1.564955322265625,-7.228498132115602,-2.1365096321299673,1.2699218822695315
1772459205559952400,1.574952392578125,-4.429533183529973,-1.1819199198201298,0.5730608767345547
1772459205569949400,1.584949462890625,-2.1960604299902915,-0.34668139407783743,0.0636075259052217
1772459205579946200,1.5949462890625,-0.4778168342024088,0.3249155524715781,-0.5621662654936314
1772459205589943300,1.604943359375,1.2303233007222414,0.90882661678344,-1.123764960232377
1772459205599940400,1.6149404296875,2.913721208578348,1.4908309706911445,-1.3048628472693264
1772459205609937400,1.6249375,4.332344728931784,2.0375386780291795,-1.295074882096052
1772459205619934200,1.634934326171875,5.8495642325937744,2.3459379799857736,-1.013232601545006
1772459205629931500,1.644931640625,7.257268299525975,2.363244796356559,-0.5065604789320379
1772459205639928300,1.65492822265625,8.503654846298694,2.08210175011605,0.13821677668765187
1772459205649925400,1.66492529296875,9.40793183695376,1.7029986803829669,0.6865352802231908
1772459205659922400,1.67492236328125,10.086051463270186,1.5339654712796211,1.0755923193462191
1772459205669919200,1.684919189453125,10.664510691916941,1.5096698189347981,1.2329995341941713
1772459205679916300,1.694916259765625,11.014939748090505,1.3616001951441168,1.2837383723065257
1772459205689913300,1.704913330078125,11.091233883219957,1.2554159486636518,1.2284483006305993
1772459205699910400,1.714910400390625,11.111592780637741,1.3143766716763376,1.1036292040459812
1772459205709907200,1.7249072265625,11.086558877146244,1.633780474989116,0.8544238493360579
1772459205719904500,1.734904541015625,11.082008958756923,2.1130191586881875,0.6355633640073239
1772459205729901300,1.7449013671875,10.971375331652164,2.5176117667257785,0.4729664715617895
1772459205739898400,1.7548984375,10.65742628661394,2.802939989696443,0.4299621366916224
1772459205749895400,1.7648955078125,10.293690005099773,3.0552573389470576,0.3896078048735857
1772459205759892500,1.774892578125,9.981098219889402,3.348869698399305,0.24164569657798854
1772459205769889300,1.78488916015625,9.638348612302542,3.6661911424800753,0.08098934374097734
1772459205779886600,1.794886474609375,9.246552357473968,3.952183090056479,-0.010895414958521723
1772459205789883400,1.80488330078125,8.886219746923446,4.089878034827113,-0.1082721221378073
1772459205799880200,1.814880126953125,8.60468887040913,4.132300587753951,-0.28536848191581665
1772459205809877500,1.82487744140625,8.344401272931695,4.133636220271885,-0.5077485927380622
1772459205819874300,1.834874267578125,7.8855416526556015,4.101953088024258,-0.7297566553775221
1772459205829871400,1.844871337890625,7.289121235382557,4.058849274834991,-1.1160519016370176
1772459205839869200,1.854869140625,6.744499978929758,3.9916336414352056,-1.7033644449554384
1772459205849866500,1.864866455078125,5.51931754822731,3.8442128369420763,-1.5093641139864922
1772459205859863300,1.87486328125,3.107711748805642,3.160221103721857,-0.6457093488380312
1772459205869860400,1.8848603515625,-0.5428682753056288,1.416973415058851,0.7043783223625272
1772459205879857400,1.894857421875,-4.899480015009641,-1.515975641080737,2.4551453736796973
1772459205889854500,1.9048544921875,-9.145611272343993,-5.038639479374885,3.6645863376319405
1772459205899851300,1.914851318359375,-13.789497985172272,-6.800916862678528,2.8246596540734172
1772459205909848600,1.9248486328125,-19.02908089265227,-5.803367129564285,-0.2516150462001562
1772459205919845400,1.934845458984375,-23.220017501509187,-5.633502730333805,-1.1528686704460531
1772459205929842400,1.944842529296875,-24.569893648850915,-4.27701797850728,-2.2812448508009315
1772459205939839500,1.954839599609375,-22.155855653846263,1.6507931307189165,-4.9186815590858455
1772459205949836300,1.964836181640625,-20.326989536869526,3.618019816768169,-4.0825104286685585
1772459205959833300,1.974833251953125,-21.119781252026556,1.9043612106829881,-1.291179043701291
1772459205969830400,1.984830322265625,-21.42929494496584,-0.3090603962138295,0.7745053131643682
1772459205979827500,1.994827392578125,-20.709926193416116,-1.9912194099247453,0.98286047883071
1772459205989824300,2.00482421875,-18.46835021291971,-2.25783153424859,0.32873609714042396
1772459205999821300,2.0148212890625,-15.119447781294584,-2.596884917666018,-0.5102271482134237
1772459206009818400,2.024818359375,-12.37481940305233,-3.3927363126546144,-0.38093149073664095
1772459206019815400,2.0348154296875,-9.700758598986267,-3.35700127466768,0.4201810761831701
1772459206029812200,2.044812255859375,-6.455820399704575,-2.675880712969601,0.7412413414660841
1772459206039809500,2.0548095703125,-3.2829841445595025,-1.8542939882218836,0.5789642555594444
1772459206049806300,2.064806396484375,-0.5830243446052074,-0.8835060053050517,0.3529382625155151
1772459206059803400,2.074803466796875,1.7705775941371917,0.2824950453713536,-0.27022695382013917
1772459206069800400,2.084800537109375,4.07343368050456,1.234930502256751,-1.2994303008265793
1772459206079797200,2.09479736328125,5.932367603486776,2.052362737673521,-2.293159160478413
1772459206089794300,2.104794189453125,7.517001770251989,2.7837568580597636,-3.042221916285157
1772459206099791400,2.114791259765625,8.893239854818582,3.284072232057154,-3.517697740319371
1772459206109788400,2.124788330078125,9.951669880831242,3.375903543536365,-3.5790444816857576
1772459206119785200,2.13478515625,10.584430023986101,3.0937127418085932,-3.276895180034637
1772459206129782500,2.144782470703125,10.92669447840452,2.8874183080643414,-2.8544296461760994
1772459206139779300,2.154779296875,11.144931571137905,3.016520781056583,-2.455624097107351
1772459206149776400,2.1647763671875,11.199441744482517,3.3400574463903903,-2.2175042000353336
1772459206159773400,2.1747734375,10.985572199308871,3.6778397869586943,-2.0496683840230108
1772459206169770500,2.1847705078125,10.596247887551783,3.9454502746701237,-1.9310382052063941
1772459206179767300,2.194767333984375,10.18621747237444,4.207909370967745,-1.9605914858184754
1772459206189764400,2.204764404296875,9.782554254141449,4.491021379193663,-2.1395557218275965
1772459206199761400,2.214761474609375,9.397156175917386,4.873645901051163,-2.430625411059707
1772459206209758200,2.22475830078125,9.14138108742833,5.282855062973499,-2.648368436665833
1772459206219755500,2.234755615234375,8.903198938775063,5.636207313117384,-2.8456735082685944
1772459206229752300,2.24475244140625,8.734451560875772,5.987110416543484,-2.9590283770307897
1772459206239749400,2.254749267578125,8.661026259180902,6.195930277112126,-2.9767390980273483
1772459206249746400,2.264746337890625,8.602585760650038,6.274947115203738,-2.9212375755578277
1772459206259744500,2.27474462890625,8.516163614737987,6.340459159556031,-2.938427195289731
1772459206269741300,2.2847412109375,8.549284963095188,6.401571507644653,-2.9718527872905134
1772459206279738400,2.29473828125,8.620992939478159,6.305039471128582,-2.8661797052025793
1772459206289735400,2.3047353515625,8.509995155236124,5.996760288420319,-2.803266445171833
1772459206299732500,2.314732421875,7.9376184613734475,5.625809837743639,-2.638308522683382
1772459206309729300,2.324729248046875,7.076684937882423,5.244563618502021,-2.23031428950876
1772459206319726600,2.3347265625,6.28273937651515,4.668382271659374,-2.0253912902481854
1772459206329723400,2.344723388671875,5.017473941749334,3.9128450591415165,-1.6891089789792895
1772459206339720400,2.354720458984375,2.412410686063766,2.4640374129265545,-0.3503597903296351
1772459206349717500,2.364717529296875,-1.1828829196333885,-0.12862521086931228,1.394140528742969
1772459206359714300,2.37471435546875,-5.277747510701418,-3.64376537566036,3.353360580077767
1772459206369711400,2.38471142578125,-9.452392909970879,-7.7120070404797785,4.667089893761277
1772459206379708400,2.39470849609375,-13.130115208029746,-9.36197380337715,3.6147032395660874
1772459206389705500,2.40470556640625,-16.161771891158818,-7.374815651541948,1.6039952853173016
1772459206399702300,2.414702392578125,-18.455979391646384,-7.930198540505766,2.3150847226910294
1772459206409699300,2.42469921875,-19.945285052466392,-6.865618175169825,2.284940928839892
1772459206419696400,2.4346962890625,-17.62262419543266,-3.0637843442738055,0.9326825625367462
1772459206429693400,2.444693359375,-15.654574064171314,-2.338460191451013,1.6863171563036738
1772459206439690200,2.454690185546875,-15.718387487912176,-3.475183417455852,4.0256536921978
1772459206449687600,2.4646875,-15.636404785752296,-5.152306775087117,5.544325148233771
1772459206459684400,2.474684326171875,-14.565222830194234,-6.406429469069838,5.689764131259918
1772459206469681200,2.48468115234375,-12.617951283067464,-7.137785011011362,5.022773217201233
1772459206479678500,2.494678466796875,-10.3991623039186,-7.6506164599716655,4.339416859275103
1772459206489675300,2.50467529296875,-7.717604422095418,-7.390266903173923,3.744388480882346
1772459206499672300,2.51467236328125,-5.048191151574254,-6.148195881512761,2.9306863719046112
1772459206509670000,2.524669921875,-2.502844990226626,-4.29297279574722,1.8364441510155796
1772459206519666700,2.534666748046875,-0.3263356484025717,-2.503584118156135,0.746189684588462
1772459206529663700,2.544663818359375,1.276862933579087,-0.9811875041171908,-0.2941704317264259
1772459206539660800,2.554660888671875,2.348666820427775,0.10137889202535152,-0.9550830487847327
1772459206549657900,2.564657958984375,3.194188255253434,0.8610226630792022,-1.3611546433337032
1772459206559654700,2.574654541015625,4.095222902986407,1.5447665590181945,-1.8585137978740036
1772459206569652000,2.58465185546875,5.049921920889616,2.0128271383598446,-2.0821328759066757
1772459206579648800,2.594648681640625,5.788755835887789,2.2031740613877773,-2.024085614477098
1772459206589645800,2.604645751953125,6.397751072573661,2.147438730162382,-1.9320957514353094
1772459206599643000,2.614642822265625,6.974943642285465,2.078731981422007,-1.7371129853002727
1772459206609639700,2.6246396484375,7.271441786307096,2.080546921889484,-1.513694106014818
1772459206619636700,2.63463671875,7.319912094965576,2.205750049355626,-1.3242591832652688
1772459206629633800,2.6446337890625,7.324417589691281,2.325536120209098,-1.1501311352409422
1772459206639630800,2.654630859375,7.217503275370597,2.3758763143926855,-1.0477214388631284
1772459206649627600,2.664627685546875,6.962952175718545,2.5145675767242905,-0.9562916939221322
1772459206659625700,2.674625732421875,6.762988406300544,2.713046076020598,-1.0214837125398217
1772459206669622800,2.684622802734375,6.766181649383902,3.0566651599183676,-1.200012041349709
1772459206679619800,2.694619873046875,6.757081228083372,3.5426132781282065,-1.3394402396537364
1772459206689616600,2.70461669921875,6.679496468621492,4.117749207571149,-1.4967222206868231
1772459206699613700,2.71461376953125,6.815970639425515,4.660775888308883,-1.7130341905765234
1772459206709610800,2.72461083984375,6.986039036795496,4.990257433521747,-1.8279266441695392
1772459206719607800,2.73460791015625,6.953328607326745,5.232178184181452,-1.7986704468078911
1772459206729604600,2.7446044921875,7.017824168112874,5.478735362470149,-1.8334869086451828
1772459206739602000,2.754601806640625,7.167083586210012,5.710564927226304,-1.8828253784403204
1772459206749598700,2.7645986328125,7.200305472332238,5.88319879117012,-1.882500822661072
1772459206759595500,2.774595458984375,7.16259270453155,6.026957858285307,-1.8474467526756226
1772459206769592800,2.7845927734375,7.036071772465109,6.087471655958891,-1.9399591782867907
1772459206779589600,2.794589599609375,6.758586956471205,6.006938568085432,-2.071463013332337
1772459206789586700,2.804586669921875,6.193799694824218,5.934141042900085,-2.214981257428974
1772459206799583700,2.814583740234375,5.501773708230257,5.71954376797378,-2.4002103990517556
1772459206809580800,2.824580810546875,4.449256121131778,5.027817641109228,-2.2337749513566494
1772459206819577600,2.83457763671875,2.591512869238853,3.19471783208549,-1.6896343180276452
1772459206829575000,2.844574951171875,0.4657394429177046,-0.12917407692372798,-0.7979825617983937
1772459206839571700,2.85457177734375,-3.0868373030811544,-4.3406928705602885,1.0183043518513442
1772459206849568800,2.86456884765625,-8.132874491491913,-7.992381148174404,2.98524944448024
1772459206859565800,2.87456591796875,-12.94124215694666,-9.556864507314563,3.095941816034913
1772459206869562600,2.884562744140625,-15.935634400564432,-8.474204879930616,0.9912691915400326
1772459206879559700,2.8945595703125,-16.854641927361488,-7.88951640150547,0.18699980455711482
1772459206889556700,2.904556640625,-17.160540936934947,-6.586966653484105,0.22192761781439183
1772459206899553800,2.9145537109375,-15.731349845337867,-3.8430361943781373,-0.22179946139007806
1772459206909550600,2.924550537109375,-15.072057084566353,-4.019979738214611,1.2311134281866252
1772459206919548000,2.9345478515625,-15.925242770409582,-5.750061071312428,3.452804704648256
1772459206929544700,2.944544677734375,-15.583596740150451,-7.264672438302636,4.894675829598308
1772459206939541800,2.954541748046875,-14.596004921948909,-8.410625849467515,5.533350165233015
1772459206949538800,2.964538818359375,-13.144120352506636,-8.501836983221768,5.362200986889005
1772459206959535900,2.974535888671875,-11.147826123535632,-8.322525541210174,4.384668498148024
1772459206969532700,2.98453271484375,-8.850038426473736,-7.623991487896442,3.0933897934645413
1772459206979530000,2.994530029296875,-6.894196034878492,-6.241992940106988,2.035328162372857
1772459206989526800,3.00452685546875,-4.946996968466043,-4.457239521101116,1.064215331415832
1772459206999523600,3.014523681640625,-2.618440039131045,-2.6292092704266308,0.14800561864376066
1772459207009521000,3.02452099609375,-0.4049737163096666,-0.956576502212882,-0.6013583120666444
1772459207019517700,3.034517578125,1.4167489586532116,0.4242465720564127,-1.191129062192142
1772459207029515800,3.044515869140625,2.974117517352104,1.5654665249586104,-1.6625423129625618
1772459207039512600,3.0545126953125,4.279053868249059,2.7659932378321885,-2.213198904056847
1772459207049510000,3.064510009765625,5.474160894161463,4.0413247240602965,-2.791285499998927
1772459207059506700,3.074506591796875,6.511507215613126,4.962954416054487,-2.970951162275672
1772459207069503700,3.084503662109375,7.5115481810212135,5.070369665634632,-2.61420663934499
1772459207079500800,3.094500732421875,8.132869815316797,4.661061719512939,-2.2364657978758213
1772459207089497900,3.104497802734375,8.404775954395532,4.590045232525467,-1.9380854933694003
1772459207099494700,3.11449462890625,8.564187933194637,4.879685765737295,-1.5103766520299016
1772459207109491700,3.12449169921875,8.499320031964778,4.947914083310962,-1.1429836015738546
1772459207119488800,3.13448876953125,8.047288796404004,4.821653263485431,-0.9315526817239821
1772459207129485800,3.14448583984375,7.580509489044546,4.800554945877194,-0.9594919512681662
1772459207139482600,3.154482666015625,7.2593667331099505,4.99497101804018,-1.1864118244118989
1772459207149479700,3.164479736328125,7.039488887432217,5.375085018381476,-1.5388544123649597
1772459207159476700,3.174476806640625,6.963374785044789,5.802197501263022,-1.9585117569349706
1772459207169473500,3.1844736328125,6.972365900751948,6.181918118372559,-2.2859936527632176
1772459207179470800,3.194470947265625,6.989919093099236,6.443923625683784,-2.398335691221058
1772459207189467600,3.204467529296875,7.020103218960761,6.633889148178696,-2.316414802251011
1772459207199464700,3.214464599609375,7.077537170797586,6.715445733880997,-2.127301220410317
1772459207209461800,3.224461669921875,7.162951016449928,6.731061236163973,-1.9556470151536165
1772459207219458800,3.234458740234375,7.281800098714232,6.748202925100922,-1.857906771891564
1772459207229455600,3.24445556640625,7.407097041943669,6.737647628816962,-1.8405270364150403
1772459207239453000,3.254452880859375,7.5252107956707475,6.696447603422403,-1.8861355259016155
1772459207249449700,3.26444970703125,7.547947528135776,6.613914281642437,-2.0410459554977716
1772459207259446800,3.27444677734375,7.484303031221032,6.3928481029629705,-2.264520510493219
1772459207269443800,3.28444384765625,7.157610239943861,5.873099421960115,-2.435337534273416
1772459207279440600,3.294440673828125,5.951686636462807,4.967455234605073,-2.5319082953646777
1772459207289437700,3.304437744140625,3.9831408306390044,3.523172956860065,-2.226039680929482
1772459207299434800,3.314434814453125,1.608136622905731,1.462321207782626,-1.0394780727833508
1772459207309431800,3.324431884765625,-0.7593126394033431,-1.5524509760409593,0.03817483235448599
1772459207319428600,3.3344287109375,-2.9684061539679765,-6.085284375047683,1.3889664871059357
1772459207329426000,3.344426025390625,-6.427350092023611,-10.016833550137282,2.00374878276065
1772459207339422700,3.354422607421875,-10.335131438034772,-10.678700545310974,1.2854793707549572
1772459207349419800,3.364419677734375,-12.853014422917365,-9.712460142695903,0.8031098416842519
1772459207359417600,3.37441748046875,-14.549498022317886,-10.327363142120838,1.3378233059763907
1772459207369415000,3.384414794921875,-15.536962414747476,-8.727993763038516,0.6236626444637775
1772459207379411700,3.39441162109375,-14.008920488297939,-6.29773353202939,0.02121156872436404
1772459207389408800,3.40440869140625,-13.141700431883335,-5.732950946557522,0.8299756367780268
1772459207399405800,3.41440576171875,-13.6287918749094,-5.80576425383389,2.763176719106734
1772459207409403000,3.42440283203125,-14.302119006252289,-6.158610892543196,4.4798605182319875
1772459207419399700,3.434399658203125,-14.011062176501751,-5.964077916002273,4.84992834085524
1772459207429396700,3.444396728515625,-12.389492071527242,-5.2874423907637595,3.9781019596889613
1772459207439393800,3.454393798828125,-10.753463233089446,-4.764958147317171,3.219911894574761
1772459207449390600,3.464390625,-9.233940128660201,-3.935421632608771,2.674838218179345
1772459207459388000,3.474387939453125,-7.6665686468631025,-2.610082545152306,1.6968223298355936
1772459207469384700,3.484384765625,-6.079148064249754,-0.8467366558343171,0.5575812027256936
1772459207479381800,3.4943818359375,-4.891232995668053,0.9481851059645414,-0.723958855818957
1772459207489378800,3.50437890625,-4.5383846033930775,2.3365777387052775,-1.5343286055035887
1772459207499375900,3.5143759765625,-3.988397435992956,3.3949589571401475,-1.7842720652297137
1772459207509375700,3.524375732421875,-2.495754739704728,4.114255812497436,-2.368870819544792
1772459207519373000,3.534373046875,-0.8013391787499189,4.784967208383977,-2.654589503137767
1772459207529369900,3.544369873046875,0.9345236603587865,5.382248334139585,-2.3898517943836746
1772459207539367000,3.554366943359375,2.589864517509937,5.422496173375845,-1.6807611296117304
1772459207549364000,3.564364013671875,3.9310026471227406,5.1262867831677195,-0.8709561011377721
1772459207559361000,3.574361083984375,5.219067942717671,4.812735797536373,-0.06093874508738517
1772459207569357800,3.58435791015625,6.291828107377887,4.451695038716495,0.6651035659421235
1772459207579355000,3.59435498046875,6.851542888066172,3.8610757089376446,1.0168816986370832
1772459207589352000,3.60435205078125,7.396515442174673,3.28089973950088,1.1082453926045448
1772459207599349000,3.614348876953125,7.869554978972673,3.173129100611806,0.7892353378497063
1772459207609345800,3.624345703125,8.244572532957791,3.219454798457026,0.04396737121604383
1772459207619342800,3.6343427734375,8.531890176180005,3.328709538424015,-0.8287939527127891
1772459207629340000,3.64433984375,8.807830685341358,3.6366987982749936,-1.3979440126791596
1772459207639338000,3.654337890625,9.065420129776001,4.041749671474099,-1.5271670433111488
1772459207649334800,3.664334716796875,9.182291189965605,4.399710292196273,-1.3811445613086222
1772459207659331800,3.674331787109375,9.178995071029663,4.753709608072042,-1.2012692018039524
1772459207669329000,3.684328857421875,9.214521142441034,5.106936770531535,-1.096844366211444
1772459207679325700,3.69432568359375,9.284418270009756,5.483625472599267,-1.115784190611541
1772459207689323000,3.704322998046875,9.304901086068153,5.829011858430505,-1.262168637794256
1772459207699319800,3.71431982421875,9.323168564164638,6.1356111252278085,-1.4677946707576512
1772459207709316900,3.72431689453125,9.280775529593228,6.332806598976254,-1.6097338289692997
1772459207719314000,3.73431396484375,9.060019147515296,6.411241837787628,-1.877891429169476
1772459207729311000,3.74431103515625,8.723188408583402,6.529952388364077,-2.1422316630385816
1772459207739307800,3.754307861328125,8.356202185362577,6.265298412370681,-2.318062423327565
1772459207749305000,3.76430517578125,7.791866174614429,5.420062808749079,-2.4237033567115662
1772459207759302000,3.774302001953125,6.481300877919793,3.9816877092212435,-1.7585872966140508
1772459207769299000,3.784298828125,4.336428783375024,1.5412719949007034,-0.16275836661756038
1772459207779296000,3.7942958984375,1.8392665149599312,-2.2451152605384586,2.2084663225769994
1772459207789292800,3.804292724609375,-1.437373229008913,-7.131494386434555,4.53494995276928
1772459207799289900,3.814289794921875,-6.705828010708093,-11.048698225307463,5.897545296430588
1772459207809287000,3.824286865234375,-11.384608926784992,-12.176334474015235,5.721435865330696
1772459207819284000,3.834283935546875,-13.489965588021278,-13.275088327109813,6.163356625765561
1772459207829280800,3.84428076171875,-16.386749690324066,-13.749080634588003,5.9029684905231
1772459207839278000,3.854278076171875,-17.14844717903733,-10.76140337843895,3.57527197740972
1772459207849275000,3.86427490234375,-16.823243749535084,-8.641491537627576,2.2713782674334944
1772459207859272000,3.87427197265625,-17.24940229269266,-7.933908500939607,2.408488398053497
1772459207869269000,3.88426904296875,-16.687751575505732,-7.745800589010119,2.9804665941178796
1772459207879266000,3.89426611328125,-16.276086837124822,-8.31576320746839,3.2748017148867246
1772459207889262800,3.904262939453125,-15.280573578274248,-8.726982540169358,3.6148397254273292
1772459207899260000,3.914260009765625,-13.231113576304912,-8.890518905422091,3.634308688268065
1772459207909258000,3.924258056640625,-10.993306592953205,-8.553112412428856,3.387660324564576
1772459207919255000,3.934255126953125,-8.700593130415678,-7.142258357033133,2.736073315864801
1772459207929251800,3.944251953125,-5.66294159078598,-5.155901000186801,2.1093800715334714
1772459207939249000,3.954248779296875,-2.8975357974529263,-3.333256534203887,1.3537297540299593
1772459207949246000,3.964245849609375,-1.3903098645389078,-1.7413526686966418,0.42338505985625086
1772459207959242800,3.97424267578125,0.05527472797632217,-0.23960370588898658,-0.3589485357809812
1772459207969240000,3.984239990234375,1.602280882614851,1.4412702364474534,-0.948318742281571
1772459207979236900,3.99423681640625,3.2236715393692252,2.8766590136408805,-1.4950830751776694
1772459207989234000,4.00423388671875,4.50357983199358,4.066395452430844,-1.9241773795261978
1772459207999231000,4.01423095703125,5.437496174108982,4.9954982567846775,-2.0882982666686174
1772459208009228000,4.02422802734375,6.370161639380455,5.5691509619325394,-2.07893130338639
1772459208019224800,4.034224853515625,7.243298810884356,5.916304941958189,-1.9379625976420938
1772459208029222000,4.044221923828125,7.938892719092965,6.022298634302616,-1.5905004284501074
1772459208039219000,4.054218994140625,8.46214677786827,5.905758998024464,-1.214717735311389
1772459208049215700,4.0642158203125,8.735342372235655,5.772039678886532,-0.8471487437665463
1772459208059212800,4.074212890625,8.801917077383399,5.7143824396878475,-0.4961920104570687
1772459208069209900,4.0842099609375,8.845886567491293,5.581991738805175,-0.2798264106839895
1772459208079207000,4.09420703125,8.628334534412621,5.469699238577485,-0.1831779081813991
1772459208089203700,4.10420361328125,8.294665474382043,5.496407212761044,-0.22408435745686292
1772459208099201000,4.114200927734375,8.006260620445012,5.656223096185922,-0.448349332177639
1772459208109197800,4.12419775390625,7.894640904912352,5.908002393037081,-0.7938777568280696
1772459208119195000,4.13419482421875,7.909431646808981,6.199423379924893,-1.175156270904094
1772459208129192000,4.14419189453125,7.863311116147041,6.52974020691812,-1.5160690184526144
1772459208139189000,4.15418896484375,7.7573396356344215,6.788744194325805,-1.7682134953543542
1772459208149186800,4.164186767578125,7.708287727695703,6.974711002573371,-1.9366431856065986
1772459208159184000,4.174183837890625,7.689535096430778,7.104927282026409,-2.0898913810789583
1772459208169181000,4.184180908203125,7.673953496417403,7.150774840965867,-2.132039939370006
1772459208179178000,4.194177978515625,7.525608855077624,7.075427046775817,-2.1224946969114242
1772459208189174800,4.2041748046875,7.279574823880195,6.943550140634179,-2.1588940440259874
1772459208199172000,4.214172119140625,7.056330132117867,6.808283007532358,-2.280041027969122
1772459208209169000,4.2241689453125,6.7840989988684655,6.541385636526345,-2.4351569170095027
1772459208219165700,4.234165771484375,6.094785193842649,5.719309959217906,-2.2496900211080906
1772459208229163000,4.2441630859375,4.520809783735871,4.284137455123663,-1.5888393633700906
1772459208239159800,4.254159912109375,2.0845850913643837,2.430333880767226,-0.9260926627524196
1772459208249156900,4.264156982421875,-0.8620558055192231,-0.1049263553738594,0.1503578077930957
1772459208259154000,4.27415380859375,-3.6541257338941096,-3.6093694773226974,1.5619911039330063
1772459208269151000,4.28415087890625,-6.856062995839118,-7.291646369946003,2.6953064211905002
1772459208279147800,4.294147705078125,-10.965224992328881,-9.317409269985555,3.099611444458365
1772459208289145000,4.30414501953125,-14.008145412272214,-10.048501777076721,3.442998765426874
1772459208299142000,4.314141845703125,-15.745397075390814,-9.382596320167183,2.6558739899903534
1772459208309139000,4.324138916015625,-16.354922473430634,-6.702379916080832,0.313648819982633
1772459208319136000,4.334135986328125,-15.816199042844772,-6.069063892608881,-0.40014366580471394
1772459208329132800,4.3441328125,-15.588329029369353,-6.883882146134972,-0.2509564361609518
1772459208339129900,4.3541298828125,-15.076444505870342,-7.3224892519772045,1.0838788669805972
1772459208349127000,4.364126953125,-14.932677839970587,-8.11430481557846,3.2056109820216894
1772459208359124000,4.3741240234375,-15.00440218296647,-8.161180548521877,3.785248022276163
1772459208369122000,4.3841220703125,-13.951618638408183,-7.473737798064946,3.239416220989823
1772459208379118800,4.394118896484375,-11.900392211288214,-6.958204688930511,2.803850090278685
1772459208389116000,4.404115966796875,-9.907976869577169,-5.84110503180623,2.079234962508082
1772459208399113000,4.414113037109375,-7.701932805711031,-4.262915511135756,1.2350948990382253
1772459208409109800,4.42410986328125,-5.390342208746075,-2.715055077755451,0.29320735884793103
1772459208419107000,4.434107177734375,-3.5411809072375298,-1.4410522097826004,-0.5395154212137684
1772459208429103900,4.444103759765625,-2.0330174012124536,-0.5415209523499012,-1.218788199620694
1772459208439101000,4.454100830078125,-0.6900947262704372,0.0067751932233572005,-1.8559391250804065
1772459208449098000,4.464097900390625,0.4710129994064569,0.5488341979727148,-2.239339307485521
1772459208459095000,4.474094970703125,1.7370546792417763,1.2550161356911063,-2.4225008490540088
1772459208469091800,4.484091796875,3.1776918784826993,2.031496767516434,-2.457751464524865
1772459208479089000,4.4940888671875,4.609159682840109,2.7595103055536745,-2.278271826339513
1772459208489086000,4.5040859375,5.929608075645565,3.2760666202560067,-1.9747548895969986
1772459208499082800,4.514082763671875,7.072895482471585,3.53745896410495,-1.5991459455899892
1772459208509076700,4.52407666015625,7.9178522691518065,3.6606998515874145,-1.208982333464548
1772459208519073800,4.53407373046875,8.389943126922846,3.7365737154781815,-0.8556850283782929
1772459208529070800,4.54407080078125,8.632761118683218,3.917760303711891,-0.6101859808403999
1772459208539067600,4.554067626953125,8.745791870057582,4.183752834832668,-0.4622840417668223
1772459208549065000,4.56406494140625,8.740812912601232,4.50421286920011,-0.5246767850548029
1772459208559061800,4.574061767578125,8.777528486058115,4.828104631581902,-0.6572853664718568
1772459208569058800,4.584058837890625,8.716430166494845,5.076673734214902,-0.8687253464110195
1772459208579055900,4.594055908203125,8.585477389460802,5.383038023212552,-1.2666256172031163
1772459208589054000,4.604053955078125,8.550104462784528,5.819492919456958,-1.7270142006121574
1772459208599050800,4.61405078125,8.640969559580087,6.305270941796898,-2.1766905436098574
1772459208609047800,4.6240478515625,8.753042279577254,6.714310007849336,-2.5443781930983067
1772459208619044900,4.634044921875,8.81584564949274,6.994995081189274,-2.840195369118452
1772459208629041700,4.644041748046875,8.822230966615676,7.202300445541739,-3.0112191675171256
1772459208639038700,4.654038818359375,8.750994114875793,7.249605217552185,-3.062420070183277
1772459208649035800,4.664035888671875,8.564806357353925,7.105489592084288,-3.0795828019082543
1772459208659032800,4.67403271484375,8.396091128158568,6.807073631742596,-3.111583037281036
1772459208669029600,4.684029541015625,8.124723918262124,6.318787425974011,-3.099287619331479
1772459208679027000,4.69402685546875,7.4588856813699005,5.707001097264886,-2.998016863855719
1772459208689023700,4.704023681640625,6.461320750686526,4.693364737224578,-2.546714819352329
1772459208699020800,4.714020751953125,4.775290740761161,2.9283360093861814,-1.3905499569050968
1772459208709017900,4.724017822265625,1.4968839871197939,0.09314590120911598,1.154295853704959
1772459208719015000,4.734014892578125,-3.764294081574678,-4.1230964138180015,4.482389744448661
1772459208729011700,4.74401171875,-9.305435339075327,-9.040286273041367,6.915095030522346
1772459208739009000,4.754009033203125,-12.608090398788452,-10.554967782658338,7.0980988973110914
1772459208749005800,4.764005859375,-15.305170259392261,-8.919107286524772,5.466379738765955
1772459208759002600,4.774002685546875,-17.693935865974424,-10.578624552577732,5.268689759498835
1772459208769000000,4.784,-19.343180744338035,-9.96813936959505,3.597995850393176
1772459208778996700,4.793996826171875,-17.54573852415085,-7.458163212314248,0.9115487352237105
1772459208788993800,4.803993896484375,-15.734370654463767,-6.9574974174439905,0.5645600287623703
1772459208798991600,4.81399169921875,-15.518717148482798,-7.364896315073967,2.12856437221393
1772459208808989000,4.823989013671875,-15.49624111278057,-8.400815234071016,3.5721196508586406
1772459208818985700,4.83398583984375,-14.58473533991575,-9.253407630196213,4.656002390296757
1772459208828982800,4.843982666015625,-12.582815672278404,-9.580727028939128,5.199169648548961
1772459208838979800,4.853979736328125,-10.111099395287036,-8.954447479975222,5.133747036045789
1772459208848977000,4.863976806640625,-8.157001217010617,-7.4045754145115605,4.648991634751856
1772459208858973700,4.8739736328125,-6.813989694741368,-5.656925106975436,3.723180565419793
1772459208868970800,4.883970703125,-5.384130494624376,-3.6728596604585646,2.3481518566429616
1772459208878967800,4.8939677734375,-3.6757618116408586,-1.3835405165344477,0.9479828613907099
1772459208888964900,4.90396484375,-2.0346254209309813,0.7257990768581628,-0.26240897354558107
1772459208898961700,4.913961669921875,-0.5300993946254253,2.4026129301488397,-1.1874977199524641
1772459208908958700,4.923958740234375,1.0292845955491066,3.599920096454024,-1.7065052271991967
1772459208918955800,4.933955810546875,2.475532035887241,4.703325574746728,-1.8258713190749287
1772459208928952600,4.94395263671875,3.8685605117350814,5.598569364118576,-1.9909573979876933
1772459208938950000,4.953949951171875,5.230037080499529,6.220040051496029,-2.040798994999379
1772459208948946700,4.96394677734375,6.520035974505543,6.586608341565728,-1.9338515090614556
1772459208958943700,4.97394384765625,7.672706711226701,6.581467471545935,-1.6356915693074463
1772459208968940800,4.98394091796875,8.453862933647633,6.266620016363262,-1.3720759964510798
1772459208978937900,4.993937744140625,8.921625406825543,5.8619227789074175,-1.0599448144897818
1772459208988934700,5.0039345703125,9.080108580341935,5.55654340929389,-0.7007941072002053
1772459208998932700,5.0139326171875,9.0045275619179,5.3967468150913716,-0.6097752811476588
1772459209008929800,5.0239296875,9.021268268838524,5.294013001325726,-0.74123717674762
1772459209018926800,5.0339267578125,9.063864717027544,5.271423568376899,-0.961487070608139
1772459209028923600,5.043923583984375,8.891213901948928,5.410332272851467,-1.3050593927547336
1772459209038921000,5.0539208984375,8.714939635676146,5.672567497265338,-1.7459914344131946
1772459209048917800,5.063917724609375,8.672168415442108,6.082030926209688,-2.2473995720833537
1772459209058914800,5.073914794921875,8.656865632370113,6.579173807650804,-2.7387045411512254
1772459209068911900,5.083911865234375,8.640434722051024,6.9176113972574464,-3.0364684673249718
1772459209078908700,5.09390869140625,8.546003457206487,7.061283955132961,-3.231880272527039
1772459209088905700,5.10390576171875,8.510751526561378,7.120290855374932,-3.2950194502681494
1772459209098902800,5.11390283203125,8.481786713361739,7.1178522300511595,-3.280898278196156
1772459209108899800,5.12389990234375,8.34291834089756,6.990082174706458,-3.2421053139433265
1772459209118896600,5.133896728515625,8.181969069528579,6.8249529873043295,-3.2414538642972706
1772459209128894000,5.14389404296875,7.9548478285938495,6.675597707617283,-3.356274421697855
1772459209138890800,5.153890869140625,7.475283273941278,6.401269894349575,-3.4471479940608143
1772459209148887800,5.1638876953125,6.743387049251794,5.756425930169224,-3.226372907282412
1772459209158884900,5.173884765625,5.402038491758704,4.712776124659181,-2.696546192118525
1772459209168882000,5.1838818359375,3.3291415001004934,3.0872604969292876,-1.4863494413629172
1772459209178879700,5.193879638671875,0.8808359093129634,0.3602332418292761,0.280931449316442
1772459209188876800,5.203876708984375,-2.844105820560455,-3.4225124422371387,2.296325515554845
1772459209198873900,5.213873779296875,-7.54068425913453,-7.715746227008104,4.1881379180490965
1772459209208871000,5.223870849609375,-12.083885322898626,-11.078721607649326,4.603906584617495
1772459209218867700,5.23386767578125,-15.501153434741497,-12.275677476298808,3.945881067302823
1772459209228864800,5.24386474609375,-17.30884115461111,-13.154597322857379,4.090298598326743
1772459209238861800,5.25386181640625,-18.86140143624544,-11.737954747188091,3.0341926313474774
1772459209248858600,5.263858642578125,-18.292783218133447,-9.02386822220385,1.585489906811714
1772459209258856000,5.27385595703125,-17.32189469745159,-8.750370430019498,1.8436019138157367
1772459209268852700,5.283852783203125,-17.68518206615448,-9.075913466739655,3.3033687609404323
1772459209278849800,5.293849853515625,-17.40496461032629,-9.821266554373501,5.051644506898522
1772459209288846800,5.303846923828125,-16.502160030311344,-9.699743284463882,6.554940114626288
1772459209298844000,5.313843994140625,-15.137506000554561,-8.86323751526475,7.040068148624896
1772459209308840700,5.3238408203125,-13.3047306011796,-7.929401837170124,6.111710609680414
1772459209318837800,5.333837646484375,-10.868576635956764,-6.741377462995052,4.789659165592491
1772459209328834800,5.343834716796875,-8.204301897367834,-5.015115980446338,3.5412162708118555
1772459209338832000,5.353831787109375,-5.395658435332775,-3.3276322645813226,2.446255380259454
1772459209348828700,5.36382861328125,-2.891426959183812,-1.6016308942735193,1.4707646264791487
1772459209358825700,5.37382568359375,-0.7240566171050071,0.11945055528879164,0.46556554765552277
1772459209368823800,5.38382373046875,1.078064700809121,1.48773388145864,-0.6189996210888028
1772459209378820900,5.39382080078125,2.228053066578507,2.566818572965264,-1.4590525613754988
1772459209388817700,5.403817626953125,3.1210417704999447,3.7257588914752002,-2.0417647712916134
1772459209398814700,5.413814697265625,4.058246632766723,5.058469969004392,-2.502062607677281
1772459209408811800,5.423811767578125,5.0894975599527355,6.116348790875077,-2.8266917444229125
1772459209418808600,5.43380859375,6.118403385317325,6.671649846774339,-2.909568180552125
1772459209428806000,5.443805908203125,7.067698498350381,7.018146239674091,-2.6984868047922848
1772459209438802700,5.453802734375,7.668940636691451,7.150730417302251,-2.066227012374997
1772459209448799700,5.4637998046875,7.980310771152377,7.148864038908481,-1.3685782174631953
1772459209458796800,5.473796875,8.346616026371716,7.064432774552703,-0.751474200862646
1772459209468793900,5.4837939453125,8.578594059687852,6.936357014259696,-0.34470454104691745
1772459209478790700,5.493790771484375,8.640321324804425,6.847205735644698,-0.22083178540170192
1772459209488788000,5.5037880859375,8.563744865602255,6.842585674628615,-0.40745764207988977
1772459209498784800,5.51378466796875,8.396252456200122,6.968182477587461,-1.0040687596194446
1772459209508781000,5.523781005859375,8.362747076961398,7.220424715775251,-1.7071425021894275
1772459209518778000,5.533778076171875,8.263570663416385,7.533985638278723,-2.265037958496064
1772459209528775000,5.54377490234375,8.065468011695145,7.829484834390878,-2.7440722056642173
1772459209538773000,5.55377294921875,8.074851341590286,8.034342221069336,-3.0950135952740907
1772459209548770000,5.56377001953125,8.167508582499623,8.243191892254352,-3.357112626087665
1772459209558767000,5.57376708984375,8.245443470573425,8.345340015086531,-3.4049683099791404
1772459209568764000,5.583763916015625,8.252021679919958,8.245332411414385,-3.2842654165416953
1772459209578761200,5.59376123046875,8.134747884148359,8.105644539260863,-3.1640950225457547
1772459209588758000,5.603758056640625,7.9347174792349335,7.959231742766499,-3.094406277030706
1772459209598755000,5.613755126953125,7.786690817803144,7.736604890641569,-3.0498475888580083
1772459209608752000,5.623752197265625,7.466320799806714,7.466376913908124,-3.1598189526617526
1772459209618749200,5.633749267578125,6.791435333105921,7.149834929767251,-3.4060093434646723
1772459209628746000,5.64374609375,5.666963685908914,6.692696141934395,-3.439949314728379
1772459209638743000,5.653742919921875,3.878744636619091,5.790262733319401,-3.068350629276037
1772459209648740000,5.663739990234375,1.7092027957201004,3.8394191729247567,-2.101914411827922
1772459209658737000,5.67373681640625,-1.3306886317908764,0.42468730156123635,-0.13342077458277343
1772459209668734000,5.68373388671875,-6.186505446162819,-3.4841567052453755,2.1788386615544555
1772459209678731000,5.69373095703125,-11.189095707035063,-6.90257281807959,4.069147966009378
1772459209688728000,5.70372802734375,-15.643956808567046,-8.867568822467327,3.922703897593915
1772459209698724900,5.713724853515625,-18.450164567887782,-10.703133560299873,3.573745206233859
1772459209708723000,5.723722900390625,-19.642773931765554,-11.041247909301518,2.7473785537332294
1772459209718720000,5.733719970703125,-18.990002097195386,-8.311904778474569,0.040030981615185736
1772459209728717000,5.743717041015625,-17.85776566121578,-9.748605807310343,0.43862829476073384
1772459209738713900,5.7537138671875,-18.51430649293065,-10.837711542093754,2.1325537341110405
1772459209748711200,5.763711181640625,-16.97914508986473,-12.142593532454967,3.6402877626776693
1772459209758708000,5.7737080078125,-15.154040955770014,-13.33678695065379,4.658833814330399
1772459209768705000,5.783705078125,-13.679111026304959,-13.263423608279227,5.238443674317002
1772459209778702000,5.7937021484375,-11.589497877645492,-12.268305486226081,4.6599189792186015
1772459209788699100,5.80369921875,-8.79141555711329,-10.888657300955057,3.7742207245662804
1772459209798696000,5.813696044921875,-6.349254460430145,-9.316891968113183,3.186602914690971
1772459209808693000,5.82369287109375,-4.570139339572191,-7.649467289936542,2.6318969020754097
1772459209818690000,5.83368994140625,-3.0640280899018046,-5.887335452583432,1.7982310324773192
1772459209828686800,5.843686767578125,-1.5855425137817858,-4.052046609082818,0.5500071872748434
1772459209838684200,5.85368408203125,-0.2110381211400032,-2.0963667145729064,-0.7759009322412311
1772459209848681000,5.863680908203125,1.1755296342611312,-0.1176660099595785,-1.7216292927034198
1772459209858679000,5.873678955078125,2.4869980172753334,1.74130006172657,-2.269233656620234
1772459209868675800,5.88367578125,3.6707968827098605,3.326366774690151,-2.4799270559757947
1772459209878673200,5.893673095703125,4.745107199421525,4.413925280031561,-2.4032125034771856
1772459209888670000,5.903669921875,5.785502387049794,5.10138790423274,-1.9744317951224744
1772459209898667000,5.9136669921875,6.753744192615151,5.4646244195312255,-1.3937009682819246
1772459209908664000,5.9236640625,7.49159844892621,5.452106883263587,-0.8736747855119407
1772459209918661000,5.9336611328125,8.048568314820528,5.282329577794671,-0.4050209164522588
1772459209928658000,5.943657958984375,8.457296999749541,5.146635743713379,-0.04187748626470566
1772459209938655200,5.9536552734375,8.63482681904137,5.079166720074415,0.02686813318133354
1772459209948652000,5.963652099609375,8.740165846869349,4.978505620929599,-0.07899594143405556
1772459209958648800,5.97364892578125,8.765745109283923,4.945016608303785,-0.2728552564971149
1772459209968646100,5.983646240234375,8.68303759998083,5.117140184637904,-0.5802585331536829
1772459209978643000,5.993642822265625,8.688784619200229,5.518752315559983,-1.0449604497171938
1772459209988640000,6.003639892578125,8.622236802059412,6.006670272538066,-1.4422218380838632
1772459209998637000,6.013636962890625,8.427530222517252,6.374918478518724,-1.7307094018682836
1772459210008634000,6.023634033203125,8.295634611675142,6.661638155847787,-1.9780127223491668
1772459210018632000,6.0336318359375,8.200439376720785,6.88700173946023,-2.194479882800579
1772459210028629000,6.04362890625,8.073975143277645,7.0439604798883195,-2.313141041277349
1772459210038626000,6.0536259765625,7.928403473782539,7.089844279184937,-2.2945282568745315
1772459210048623000,6.063623046875,7.780880670219659,7.046059497994184,-2.261524835808575
1772459210058620000,6.073619873046875,7.684976994735002,6.932577495720982,-2.334432397239655
1772459210068617200,6.0836171875,7.544318231722712,6.63013417955935,-2.5164438919901846
1772459210078614000,6.093614013671875,7.185097381806373,6.179909116637706,-2.7341967083379624
1772459210088611000,6.103611083984375,6.500782407981157,5.6706414976388215,-2.844546257804334
1772459210098610000,6.11360986328125,5.312310290038585,4.9567047080099575,-2.6725749494224784
1772459210108607000,6.12360693359375,3.4267794520318504,3.6578766108602285,-2.1830847746916113
1772459210118604000,6.13360400390625,1.5248095203995704,1.251012453007698,-1.439310919073224
1772459210128601000,6.14360107421875,-1.1111749432504177,-2.1198452053159476,0.08101984847709535
1772459210138598000,6.153597900390625,-5.3837376959145065,-6.168850547006726,2.6267297285705804
1772459210148595200,6.16359521484375,-10.514574981993436,-10.023451506972313,4.411739168164134
1772459210158592000,6.173592041015625,-15.019523764252662,-11.567421654915808,3.5469916393429037
1772459210168589000,6.183589111328125,-17.413138564431666,-11.801809087461232,2.4622341628968716
1772459210178587000,6.1935869140625,-18.171581435263157,-12.108117262357473,2.4960019924640653
1772459210188584200,6.203584228515625,-18.271208515185116,-8.90344268440306,0.8738611018642782
1772459210198581000,6.2135810546875,-17.026467982053756,-8.189283191934228,0.8219106960050762
1772459210208578000,6.223578125,-16.63829517841935,-8.588808579710125,2.2832335404001176
1772459210218575000,6.2335751953125,-15.73732833522558,-8.96732099007368,4.088307424509525
1772459210228572200,6.243572265625,-14.545872817558049,-9.171357708019018,5.4253913102954625
1772459210238569000,6.25356884765625,-13.382429926931858,-8.721102834481,5.876584341466427
1772459210248566300,6.263566162109375,-11.608660843276978,-8.149426982364059,5.131722252219915
1772459210258563000,6.27356298828125,-9.0097134401232,-7.332578684315085,4.006094128464162
1772459210268560000,6.283559814453125,-6.314684082308411,-5.801669093474746,2.779297540563345
1772459210278557200,6.29355712890625,-3.80817472435534,-3.952157078832388,1.582549177184701
1772459210288554000,6.303553955078125,-1.5652707101255654,-2.1530793663978574,0.5505740273773669
1772459210298551000,6.313551025390625,0.2712304317742586,-0.520172459372878,-0.36628596599698066
1772459210308548000,6.323548095703125,1.721732606947422,0.8592576992332935,-1.262170975881815
1772459210318545200,6.333545166015625,2.985997340238094,1.999411484208703,-2.0606144331902265
1772459210328543000,6.34354296875,4.120744882255792,2.796162750646472,-2.6799975006386636
1772459210338540000,6.3535400390625,4.8955344922542565,3.453130867862701,-3.1809257458373903
1772459210348537000,6.363537109375,5.521627578735351,3.993604356986284,-3.4789047760665412
1772459210358534100,6.3735341796875,6.340065191802382,4.275912063091993,-3.492393787714839
1772459210368531000,6.383531005859375,7.053335041955113,4.390908561581373,-3.3009970633730292
1772459210378528000,6.393528076171875,7.379184368145466,4.529718481856584,-3.145690181805193
1772459210388525000,6.403525146484375,7.506819398933649,4.711729245954752,-2.954796438549459
1772459210398522000,6.413522216796875,7.490898776224255,4.842199207907915,-2.590984169189632
1772459210408519000,6.423518798828125,7.273481767702102,4.891025490397214,-2.26793119571954
1772459210418516000,6.433515869140625,6.843778683805465,4.9193233641207215,-2.130523251196742
1772459210428513000,6.443512939453125,6.453072562301158,5.065072143748402,-2.2286422646433115
1772459210438509800,6.453509765625,6.211698924130201,5.312962616467476,-2.506031219047308
1772459210448507100,6.463507080078125,5.980360357761382,5.55702739341855,-2.927193561352789
1772459210458504000,6.47350390625,5.802919385796785,5.852075923153758,-3.348983095645904
1772459210468502000,6.483501953125,5.789041082569956,6.218226280072331,-3.6023245272472497
1772459210478498800,6.493498779296875,5.865914478892088,6.597791414359212,-3.719671095994115
1772459210488496000,6.50349609375,6.047554656112194,6.913381212341785,-3.699015553717315
1772459210498493000,6.513492919921875,6.328542511790991,7.225747372102737,-3.5678576094999905
1772459210508491000,6.523490966796875,6.556302635151147,7.475240019321441,-3.4066607931107282
1772459210518487800,6.53348779296875,6.86283059027791,7.590470911088586,-3.3529701194554566
1772459210528485000,6.543485107421875,7.182500935572385,7.652057890951633,-3.5116368328452108
1772459210538482000,6.55348193359375,7.447516146093607,7.715003884208202,-3.7041345041662455
1772459210548479000,6.56347900390625,7.607669883170724,7.675819290289282,-3.7048870760992165
1772459210558476000,6.57347607421875,7.235722822672129,7.38896634196937,-3.6198227745369076
1772459210568473000,6.58347314453125,6.405683034616708,6.7801271726280445,-3.5081343776822087
1772459210578470000,6.593469970703125,5.15426083176434,5.832345386767387,-3.2272239711537956
1772459210588467000,6.603467041015625,3.073646982118487,4.255577715593576,-2.2500670377269385
1772459210598464000,6.613464111328125,0.06643091276288032,1.651149835202098,0.08531418467015027
1772459210608462000,6.623462158203125,-3.113200409349799,-2.25639594848752,2.8241397218525406
1772459210618459000,6.633458984375,-5.975264495927095,-7.000881216618418,4.742922256597876
1772459210628456000,6.6434560546875,-8.723092546993493,-10.918791742455959,5.136258726605773
1772459210638453000,6.653452880859375,-12.196997322815657,-12.944741104978322,4.531434053602815
1772459210648449800,6.66344970703125,-14.256435113441944,-15.226376708662508,5.504032300812006
1772459210658447000,6.673447021484375,-14.540543146967886,-14.348765022093056,4.550980465593934
1772459210668444000,6.68344384765625,-13.515477630418538,-12.169065359795093,3.339865723210573
1772459210678441000,6.69344091796875,-12.598776626998186,-12.406671169865131,3.9770457286342977
1772459210688438000,6.70343798828125,-12.44617082108259,-12.69328797134161,5.219544328057766
1772459210698435000,6.71343505859375,-12.30243688840866,-12.520247280162572,7.153059737032652
1772459210708432000,6.723431884765625,-11.923965979099274,-12.015699675422907,8.793566013145446
1772459210718429200,6.73342919921875,-11.280690287148952,-11.087697525787354,9.000130203741788
1772459210728426000,6.743426025390625,-9.805638777130842,-9.64549263883829,8.208417515993117
1772459210738423000,6.753423095703125,-8.483100134047865,-8.03220579356253,7.243692194116115
1772459210748420900,6.7634208984375,-7.614429878824949,-6.302977862423658,5.942088202512264
1772459210758418200,6.773418212890625,-6.651671473106742,-4.415152775999903,4.144627862146496
1772459210768415000,6.7834150390625,-5.2715398882329465,-2.3578818080186843,2.1954881830602884
1772459210778412000,6.793412109375,-3.6680817785322666,-0.35838965978920456,0.5098880889847874
1772459210788409000,6.8034091796875,-2.223036699721217,1.4468600192785261,-0.7938239808142185
1772459210798406000,6.813406005859375,-0.8576023332417011,3.2589205474048852,-1.7539552528992295
1772459210808403000,6.82340283203125,0.62082303712368,4.939153269228339,-2.461482760007679
1772459210818400000,6.83339990234375,2.110785700547695,6.137841076236963,-2.7879575246199964
1772459210828397000,6.84339697265625,3.458830540809035,6.79729399600625,-2.7905738445982333
1772459210838393900,6.853393798828125,4.83687479801476,6.81607409979999,-2.514136491830647
1772459210848391200,6.86339111328125,6.3442871934115885,6.193658825048804,-2.5475699748769403
1772459210858388000,6.873387939453125,7.2569637636214495,5.832290441709756,-2.219929381355643
1772459210868385000,6.883385009765625,7.861180533859133,5.4529012485116715,-1.8036738080531358
1772459210878382800,6.8933828125,8.320203235742449,5.006790050649642,-1.7910393674075602
1772459210888380200,6.903380126953125,8.441267655968666,4.958610833892226,-2.258829313114285
1772459210898377000,6.913376953125,8.399885844266414,4.952964352437854,-2.587898770394921
1772459210908374000,6.9233740234375,8.049022488328815,5.116055312010646,-2.787667017240822
1772459210918371000,6.93337109375,7.657757563897967,5.677903013074397,-3.148369337886572
1772459210928368000,6.9433681640625,7.440799405059218,6.341301455599069,-3.3773066883325575
1772459210938365000,6.953364990234375,7.42149381608665,6.806943867883086,-3.761023389340937
1772459210948362200,6.9633623046875,7.411351776778697,7.005960711839795,-4.455878754141927
1772459210958359000,6.973359130859375,7.166989478185773,7.19036333951056,-4.859223407945037
1772459210968355800,6.98335595703125,7.275429394638538,7.243996145498752,-5.049828397387266
1772459210978353000,6.993352783203125,7.444107214432955,7.4089113978892565,-5.2631952537357805
1772459210988350000,7.003349853515625,7.156206218364835,7.731900073951483,-5.155693494915962
1772459210998347000,7.013346923828125,7.290316582646965,7.845988225424289,-5.220746105062961
1772459211008344800,7.0233447265625,7.562948113390803,7.702824786114692,-5.220855410656332
1772459211018342100,7.033342041015625,7.514899245014786,7.467190568378567,-4.7565769802019
1772459211028339000,7.0433388671875,7.374264447399973,7.073943530219793,-4.290989512975513
1772459211038336000,7.0533359375,7.2680094737708565,6.711325439080595,-3.7921442115306854
1772459211048333000,7.0633330078125,7.023750635552406,6.268237972953915,-3.175743082502484
1772459211058330000,7.073330078125,6.160446291276812,5.724850642210245,-2.451317047563195
1772459211068327000,7.083326904296875,4.599111751556396,4.927143682482838,-1.4715721434697508
1772459211078324000,7.093323974609375,2.928143117162585,3.0992174767047165,-0.020368249768018723
1772459211088321000,7.103321044921875,0.7561562211990356,-0.6028256081402301,2.263206797546148
1772459211098318000,7.113318115234375,-2.7770471312880516,-5.864999117612839,5.1814539591163395
1772459211108315000,7.12331494140625,-7.092482226473092,-10.726702651935815,7.41554279872775
1772459211118312000,7.13331201171875,-11.190976698476076,-13.119513149994612,6.517495057851075
1772459211128309000,7.14330908203125,-14.659381123316287,-13.591078522586821,5.135845469629764
1772459211138307000,7.15330712890625,-16.450250979375838,-14.608064777576923,5.063998961558938
1772459211148304000,7.163303955078125,-16.879881582558156,-13.039018640565871,3.163209179621935
1772459211158301000,7.173301025390625,-16.090475418186188,-10.891192956912517,1.5895549642935394
1772459211168298000,7.183298095703125,-15.409488712000845,-10.868011987811327,2.081977539214492
1772459211178294800,7.193294677734375,-15.13649828481674,-11.463080990475415,3.9702556301027534
1772459211188292000,7.2032919921875,-14.170132794517277,-11.881291204977035,6.135594174093008
1772459211198289000,7.213288818359375,-13.151981002879142,-11.744933938550949,7.555254051756858
1772459211208286000,7.223285888671875,-11.892338668692112,-11.404462797290087,8.064152252921462
1772459211218283000,7.233282958984375,-10.10301662659645,-10.545256535983086,7.73341457016766
1772459211228280000,7.243280029296875,-8.208575921425222,-9.19375191065669,6.363459511393308
1772459211238276900,7.25327685546875,-6.670411829411983,-7.61157507391572,4.2115109025910495
1772459211248274200,7.263274169921875,-5.374773468214273,-5.56045853691101,1.997348706459999
1772459211258271000,7.27327099609375,-4.121220098552108,-3.254669904223084,-0.22005144867897034
1772459211268269000,7.28326904296875,-2.856583609339595,-1.1995908933281898,-1.8387211560368537
1772459211278265900,7.293265869140625,-1.6475608707994223,0.562508210799098,-2.714682737311721
1772459211288263200,7.30326318359375,-0.384540000090003,2.1215572699308396,-3.1108892097979783
1772459211298260000,7.313260009765625,0.8862281237453222,3.697110889139771,-3.2015514774978158
1772459211308257000,7.323257080078125,2.200081940591335,5.318565258780121,-3.3259280910119413
1772459211318254000,7.333254150390625,3.565753038436174,6.597655805280804,-3.4877868784412738
1772459211328251000,7.3432509765625,4.83178185878992,7.327526077100634,-3.49917102676481
1772459211338248000,7.353248046875,6.00843377507925,7.524507031315565,-3.464446042603254
1772459211348245000,7.363244873046875,6.821032598990201,7.404623929828405,-3.2772569990843534
1772459211358242000,7.373241943359375,7.1065487457484,7.156012741619348,-2.779902812980115
1772459211368238800,7.38323876953125,7.227045595219731,6.819587660878896,-2.209686804282665
1772459211378236200,7.393236083984375,7.277098204633593,6.456224888852239,-1.8243834186047314
1772459211388234000,7.40323388671875,7.246599605995416,6.283327990058064,-1.629785852394998
1772459211398231000,7.41323095703125,7.221432431513071,6.345951911753415,-1.6066306022569536
1772459211408227800,7.423227783203125,7.107541848438978,6.496051287806034,-1.7405086190879344
1772459211418225200,7.43322509765625,7.030707615083456,6.843748288667202,-2.2229051822960377
1772459211428222000,7.443221923828125,7.241057169437408,7.334648476326465,-2.9454139854371544
1772459211438219000,7.453218994140625,7.560990549582242,7.691063621172309,-3.6276220501109955
1772459211448216000,7.463216064453125,7.541887205183506,7.993357299730182,-4.035038775658607
1772459211458213000,7.473213134765625,7.440614696142077,8.2806463013798,-4.193911240753531
1772459211468210000,7.4832099609375,7.5275792783677575,8.491939858585596,-4.28561512646079
1772459211478207200,7.493207275390625,7.646930464935302,8.663684664735198,-4.306569943945109
1772459211488204000,7.5032041015625,7.76982034702301,8.80924230570495,-4.254507163752615
1772459211498200800,7.513200927734375,7.947593327420949,8.905207940509914,-4.149282409954071
1772459211508198400,7.523198486328125,8.028085498762131,8.91105491297245,-4.032408427155017
1772459211518195500,7.533195556640625,7.974538032969832,8.758136387845873,-3.83905910744071
1772459211528192500,7.543192626953125,7.830804100295901,8.359941371890901,-3.5995372346162795
1772459211538189300,7.553189208984375,7.170124269080161,7.411475110897421,-3.1552918306261297
1772459211548186600,7.5631865234375,5.741949076527357,5.770604677647352,-2.0235534072965384
1772459211558183400,7.573183349609375,3.6691321643680332,3.754282390648126,-0.7335436996355652
1772459211568180500,7.583180419921875,0.9899065248847008,1.4197966557860373,0.7001707146048546
1772459211578177500,7.593177490234375,-2.1180676742494104,-2.2820985450208187,2.6782819288924333
1772459211588174600,7.603174560546875,-5.308932338038087,-7.36815385556519,4.329570880304277
1772459211598171400,7.61317138671875,-8.549880006378888,-11.570131498396396,4.718579842501878
1772459211608168700,7.623168701171875,-12.27888299434185,-12.178949624949693,4.174031943546235
1772459211618165500,7.63316552734375,-14.525481186914442,-12.892432241070269,4.189050356718898
1772459211628163600,7.64316357421875,-15.793205120748281,-12.576587007021903,2.9603508578062057
1772459211638160400,7.653160400390625,-15.39997035754919,-10.036476992762088,1.289444474993646
1772459211648157700,7.66315771484375,-14.071122969710826,-9.530984800648689,1.5606030105754731
1772459211658154500,7.673154541015625,-13.507832084101437,-10.757210018402338,3.6639281659841534
1772459211668151300,7.6831513671875,-13.54966163957119,-12.435769838577508,6.169340376350283
1772459211678148600,7.693148681640625,-13.145280043935776,-13.6810867102921,8.451038523876667
1772459211688145400,7.7031455078125,-12.46327276253104,-14.078950886857509,9.229358646088839
1772459211698142500,7.713142578125,-11.823852576965093,-13.602138845783472,8.513121762824058
1772459211708139500,7.723139404296875,-11.112136385995148,-12.211560101175307,6.947649392646551
1772459211718136600,7.733136474609375,-10.534174000954627,-10.304966601395606,4.5535956165283915
1772459211728133400,7.74313330078125,-9.551139115405082,-8.14509567516148,1.7218777145065367
1772459211738130700,7.753130615234375,-7.943840112367272,-5.611275700956583,-0.3747995273202657
1772459211748128500,7.76312841796875,-5.99759849281013,-3.0207547653645275,-1.658853541447222
1772459211758125600,7.77312548828125,-3.8931636225938795,-0.719099871480465,-1.941229052092135
1772459211768122400,7.783122314453125,-1.8787404472142457,1.5107178666830061,-1.8814044057264923
1772459211778119700,7.79311962890625,0.15386603510975838,3.519018759790063,-2.2424854965567587
1772459211788116500,7.803116455078125,2.1882103010118006,5.42966650339663,-2.7880966408297416
1772459211798113500,7.813113525390625,4.089731904354691,6.999685284832119,-3.2466257139772177
1772459211808110600,7.823110595703125,5.795213633725047,7.755622310322523,-3.4005127918750047
1772459211818107600,7.833107666015625,7.02986005834341,7.5450506376504896,-3.1276237792387604
1772459211828104400,7.8431044921875,7.742554154434799,6.968904362121224,-2.7540701603263615
1772459211838101500,7.8531015625,8.427130994066596,6.5382923466861245,-2.4617191991120575
1772459211848098600,7.8630986328125,8.856658136874437,6.2765206481307745,-2.199677743704617
1772459211858096600,7.8730966796875,8.904111961966752,6.060744977074862,-1.9389643220305441
1772459211868093400,7.883093505859375,8.972609744131564,5.746062941586971,-1.8211486744672059
1772459211878090500,7.893090576171875,8.94835442379713,5.596097421047091,-1.9030594804346561
1772459211888087600,7.903087646484375,8.824812215280533,5.630616945764422,-2.2462457258731123
1772459211898084400,7.91308447265625,8.912754118105768,6.314473069906234,-2.9315494184747335
1772459211908081400,7.923081298828125,9.194505943894386,7.244637366011738,-3.457871924909949
1772459211918078500,7.933078369140625,9.003755408501625,7.560134225013852,-3.741112820212543
1772459211928075500,7.943075439453125,8.759390187299251,7.490843831166624,-3.8814272998318073
1772459211938072300,7.953072265625,8.627619079619645,7.34825380783081,-4.0214050948426125
1772459211948069600,7.963069580078125,8.486955055910348,7.311735802772641,-3.839968623501062
1772459211958066400,7.97306640625,8.383249182242155,7.108938855755329,-3.529264551733434
1772459211968064500,7.983064453125,8.44028858180344,7.24017687947154,-3.5149025566428898
1772459211978061300,7.993061279296875,8.262802017131447,7.43894822423458,-3.1677912467151876
1772459211988058600,8.00305859375,8.229392499482632,7.138578791737556,-3.1101039046391845
1772459211998055400,8.013055419921875,8.095303762510419,6.792690301603079,-3.1379566649436947
1772459212008052500,8.023052490234376,7.740569118097424,6.566900601533055,-3.1106270517304537
1772459212018049500,8.033049560546875,7.212865678697824,6.013118133503198,-2.9330118922427295
1772459212028046600,8.043046630859376,6.576314911088347,5.205023635274172,-2.976053453850746
1772459212038043400,8.05304345703125,5.476271018183231,4.423797854748368,-2.860779307463765
1772459212048040400,8.06304052734375,3.4688521686077114,3.31247385841608,-2.0293416353091596
1772459212058037500,8.07303759765625,0.5809896239072084,1.0458867707818746,-0.7341491181828081
1772459212068034300,8.083034423828124,-2.014309193611145,-2.928568064576387,0.9270679375253618
1772459212078032400,8.093032470703125,-4.962086401048302,-7.942620215183496,2.882443442261219
1772459212088029400,8.103029541015625,-8.763395331287384,-11.935158404242992,4.096688883885741
1772459212098026500,8.113026611328126,-12.716660663622617,-12.484109798854588,3.8435155023276804
1772459212108023300,8.123023193359375,-15.071625707411766,-12.938286814272402,4.168420533405244
1772459212118020600,8.1330205078125,-17.13041350969672,-12.218242355418205,3.1604078584656117
1772459212128017400,8.143017333984375,-16.993492764168977,-8.342988483524323,0.9187431767724454
1772459212138014500,8.153014404296876,-15.503510227000712,-7.506607802009582,0.9160795105211437
1772459212148011500,8.163011474609375,-15.621705229270457,-8.608041103446483,2.6570801509097217
1772459212158008600,8.173008544921874,-15.65124345844388,-9.574803484109044,5.405913287365436
1772459212168005400,8.18300537109375,-15.408541786539553,-11.109368090325594,7.991645819637179
1772459212178002700,8.193002685546874,-15.392935052084923,-12.071761169862746,8.608856511482596
1772459212188000500,8.20300048828125,-14.725086059892178,-11.485306850808858,7.239484805554151
1772459212197997600,8.21299755859375,-14.091851284962893,-10.573571945363282,5.460134122374654
1772459212207994400,8.222994384765625,-13.763999971300363,-9.266714271014928,3.08411313881427
1772459212217991700,8.23299169921875,-12.423351086509227,-7.289171504265069,-0.14781404159441588
1772459212227988500,8.242988525390626,-10.397290664827823,-4.96970038318336,-3.2622076062515375
1772459212237985500,8.252985595703125,-7.788326894572377,-2.5404244870364665,-4.873993983836471
1772459212247982600,8.262982666015626,-5.026895265567302,-0.398969507458806,-4.444014421086013
1772459212257979400,8.2729794921875,-2.1758172679066656,1.497090615607798,-3.5502374893963333
1772459212267976400,8.2829765625,1.0904717624396085,3.581138239094615,-2.9739485905259846
1772459212277973500,8.292973388671875,4.228377573978901,5.397606062269211,-2.7273779682338235
1772459212287970600,8.302970458984374,6.784666569623351,6.269351487153768,-2.6771158077225086
1772459212297968400,8.312968505859375,8.66884599302113,6.388247915691137,-2.4272695247605443
1772459212307965400,8.32296533203125,10.060423685538769,6.340163976001739,-2.0212588666185733
1772459212317962500,8.33296240234375,11.055070682948827,6.29517858684957,-1.6369149736225603
1772459212327959600,8.34295947265625,11.626528508400916,6.141752112200856,-1.4174261272624133
1772459212337956400,8.352956298828126,11.634884833335876,5.869636714285612,-1.2902256884992123
1772459212347953700,8.36295361328125,11.33054766625166,5.511249977105855,-1.3203063539862632
1772459212357950500,8.372950439453126,10.793719255632162,5.232179353225231,-1.5648516079306602
1772459212367947500,8.382947509765625,10.282200642836093,5.182956180372834,-2.0559724526032803
1772459212377944600,8.392944580078124,9.886718977493047,5.271170470398665,-2.4390821276292205
1772459212387941600,8.402941650390625,9.454857254257798,5.799587611025571,-2.739331733138859
1772459212397938400,8.4129384765625,9.267599821677804,6.606864363130927,-3.006141425861418
1772459212407936500,8.4229365234375,9.09132497088313,6.760507110878825,-3.0738685159146786
1772459212417933600,8.43293359375,8.714940804719925,6.525268029940128,-3.0812907748699185
1772459212427930600,8.4429306640625,8.445499594449997,6.582544160866737,-3.0529429245248436
1772459212437927400,8.452927490234375,8.469956574836372,6.812900730460882,-2.9001334127306935
1772459212447924700,8.4629248046875,8.430352294200658,6.8831053165435785,-2.66795634971112
1772459212457921500,8.472921630859375,8.276035592713951,6.795370334467291,-2.523729665084183
1772459212467918300,8.48291845703125,8.217110525536537,6.703900842037797,-2.49276724832654
1772459212477915600,8.49291552734375,8.146296867644786,6.560919189035892,-2.4830682766109704
1772459212487912400,8.502912353515624,7.856870853966474,6.097756318607926,-2.5261849492818116
1772459212497909500,8.512909423828125,7.215732174044847,5.41713435408175,-2.6390812606215475
1772459212507907300,8.5229072265625,6.089667704698443,4.8248669648349285,-2.3941547522746025
1772459212517904400,8.532904296875,4.742997075399757,3.999064960479736,-1.890446374838054
1772459212527901200,8.542901123046875,3.194967422932386,2.684842310321331,-1.1638248756811023
1772459212537898200,8.552898193359376,1.218078151655197,0.5884054531216621,0.08471227325424552
1772459212547895300,8.562895263671875,-1.6648966210037468,-2.7786504748314615,2.1226649389117953
1772459212557892400,8.572892333984376,-5.225718632778525,-7.299872346499562,4.136933215990663
1772459212567889200,8.58288916015625,-9.147685740530491,-11.541647746711968,4.962223179170489
1772459212577886500,8.592886474609376,-13.18458563388586,-11.877561955320834,2.7290532079696654
1772459212587883300,8.60288330078125,-15.415275478708743,-9.903206001913547,0.1746878738641739
1772459212597880300,8.61288037109375,-17.02623417329788,-10.287985071456431,0.1342271225295961
1772459212607877400,8.62287744140625,-18.123128077739477,-7.695844425708055,-0.9424687741443514
1772459212617875500,8.63287548828125,-16.5438703433156,-4.837960839685797,-0.6710984955079853
1772459212627872300,8.642872314453125,-16.181346360200642,-5.529278970271348,1.453386206176877
1772459212637869300,8.652869384765625,-16.26578288525343,-7.075616431868076,3.9746301919251676
1772459212647866400,8.662866455078126,-15.94087756191492,-8.324814528930187,6.04500789423883
1772459212657863400,8.672863525390625,-15.43980669337511,-9.317015886753797,6.620607641801238
1772459212667860200,8.682860107421876,-14.051920256590842,-9.922918418121338,5.916785418951511
1772459212677857300,8.692857177734375,-12.162974641704558,-9.946270067614316,4.687397060991823
1772459212687854300,8.702854248046876,-10.555380455112457,-8.99652604176998,3.3609587801218033
1772459212697851100,8.71285107421875,-8.839593020305037,-7.274116558474302,1.9798190411187708
1772459212707848200,8.72284814453125,-6.669911478674411,-5.241230090165138,0.5682131444424391
1772459212717846300,8.73284619140625,-4.21761769503355,-3.154403941875696,-0.6205678933188319
1772459212727843300,8.74284326171875,-1.8623153821140526,-1.5419447795957326,-1.4290727259144187
1772459212737840000,8.752840087890625,0.14006898042559623,-0.09377017058730125,-1.774991318926215
1772459212747837200,8.762837158203125,2.1140537624329325,1.6556494847089052,-2.0220437333859502
1772459212757834200,8.772834228515626,4.046027787184715,3.265760038036108,-2.3087186947904526
1772459212767831300,8.782831298828125,5.663027515503764,4.556111398741603,-2.4198713773332536
1772459212777828000,8.792828125,6.980692415070533,5.418819530689716,-2.381856850107014
1772459212787825400,8.802825439453125,7.991464033329486,5.675826791322231,-2.134120983427763
1772459212797822200,8.812822265625,8.60851222808957,5.692327259746193,-1.6180951223403215
1772459212807819300,8.8228193359375,9.09367591792345,5.726483211848139,-1.0133272940911353
1772459212817817000,8.832817138671874,9.260133723580836,5.588338477483392,-0.39671106100752945
1772459212827814400,8.842814453125,9.058898619052767,5.412165918019413,0.010807517479360103
1772459212837811200,8.852811279296875,8.792294678035377,5.3933583416968585,-0.0020706687942147256
1772459212847808300,8.862808349609375,8.634298995774984,5.475953622797131,-0.3554188272848725
1772459212857805300,8.872805419921875,8.45780261118412,5.6235056524544955,-0.8455626436188817
1772459212867802400,8.88280224609375,8.361631809195876,5.918779807639122,-1.4575016786716877
1772459212877799200,8.892799072265625,8.336938681966066,6.321772579264641,-2.107161957092583
1772459212887796500,8.90279638671875,8.25438607096374,6.750559717360138,-2.4908593688786027
1772459212897793300,8.912793212890625,8.150779566016793,7.052729477277397,-2.7018758627086874
1772459212907790000,8.9227900390625,7.966829358288646,7.220939679560065,-2.801513756285608
1772459212917788200,8.9327880859375,7.70131847320497,7.406034965670108,-2.7927783689051866
1772459212927785500,8.942785400390624,7.530871305650472,7.523264922299981,-2.8555566043794154
1772459212937782300,8.9527822265625,7.471471606698632,7.553556600189209,-3.05042217387557
1772459212947779000,8.962779052734374,7.430134218659997,7.495936770391464,-3.3234877121224997
1772459212957776400,8.9727763671875,7.3019094052851194,7.4656450925022355,-3.632966626009345
1772459212967773200,8.982773193359375,7.290024906224012,7.386216166478395,-3.8422342303454875
1772459212977770200,8.992770263671876,7.183980944997072,7.177548281601071,-3.878169467079639
1772459212987767300,9.002767333984375,6.64290890545845,6.907618411031365,-3.422964569918811
1772459212997764400,9.012764404296876,5.649245073866844,6.5277317897051566,-2.885771417640149
1772459213007762200,9.02276220703125,4.095260312387347,5.94084667801857,-2.10501778467074
1772459213017759200,9.03275927734375,1.6536872447252273,4.48466879529655,-0.4216869507014751
1772459213027756300,9.04275634765625,-1.1152525679528713,0.48204468103051185,2.0061549671195444
1772459213037753300,9.05275341796875,-4.514290611100196,-6.023685704746842,5.169661814513802
1772459213047750100,9.062750244140625,-8.61123551557362,-12.140194654619693,7.107131514072417
1772459213057747500,9.07274755859375,-11.792778224265575,-13.390900818157196,5.178717227628827
1772459213067744300,9.082744140625,-13.975747702014445,-10.107802691829203,0.5673246711701154
1772459213077741300,9.0927412109375,-15.169975022482872,-11.111749432504176,0.5477747520476579
1772459213087738400,9.10273828125,-16.59559117820263,-10.907982763671875,0.7159599660195409
1772459213097736400,9.112736328125,-15.136231742835044,-7.995424169132113,0.33393706331700085
1772459213107733200,9.122733154296874,-14.664375278341769,-7.488103592547774,1.6330967305086552
1772459213117730300,9.132730224609375,-14.608808289420605,-8.404826807799935,3.5473367995187637
1772459213127727400,9.142727294921874,-14.632378550100325,-9.033109513279795,5.210481316158175
1772459213137724400,9.152724365234375,-14.216004903376101,-8.748709803330899,4.964923085778952
1772459213147721200,9.16272119140625,-12.572574848771094,-8.733943611353634,3.6478184504434465
1772459213157718300,9.17271826171875,-11.00042139339447,-9.410414885941147,2.9616768457129594
1772459213167715300,9.18271533203125,-9.931606751489639,-9.35567207288444,2.6251865907818077
1772459213177712000,9.192712158203125,-8.583943604022265,-7.843657152128219,1.7076203488342463
1772459213187710200,9.202710205078125,-6.877529562237858,-5.866702414399385,0.6196821965254843
1772459213197707300,9.212707275390626,-5.438865124374628,-3.788174138855934,-0.14138488532975316
1772459213207704300,9.222704345703125,-3.6589731739252804,-1.9351053085148333,-0.8690696298040449
1772459213217701000,9.232701171875,-1.9360306066662072,-0.3019756986498833,-1.2973480877250432
1772459213227698400,9.242698486328125,-0.31943010679781436,1.5560668284505605,-1.401737705873698
1772459213237695200,9.2526953125,1.4650953486710785,3.271273248499632,-1.9378931856676935
1772459213247692300,9.2626923828125,3.1694349222689864,4.835743748158216,-2.675897956365347
1772459213257689300,9.272689453125,4.852916416755319,5.991017945376038,-3.214075443506241
1772459213267686400,9.282686279296875,6.30047552421391,6.426434146222472,-3.185412828123569
1772459213277684200,9.292684326171875,7.318131641289591,6.074874624714255,-2.6754315078973767
1772459213287681300,9.302681396484376,8.03939015210867,5.52990966939032,-2.0854238802760836
1772459213297678300,9.31267822265625,8.527382927888631,5.2588171847820275,-1.5846838511258363
1772459213307675400,9.32267529296875,8.739537485837936,5.054217572256922,-1.0614677862733601
1772459213317672200,9.332672119140625,8.592657656353712,4.815922610878944,-0.7344204824700951
1772459213327669500,9.34266943359375,8.344901623669266,4.865176178869604,-0.7744695842638611
1772459213337666300,9.352666259765625,8.250740992459654,5.2602065933138125,-1.0309221336230634
1772459213347663400,9.362663330078124,8.229968253543973,5.7897372481405736,-1.4517346395775674
1772459213357660400,9.372660400390625,8.218082000917196,6.170394853839277,-2.0104811597555874
1772459213367658500,9.382658447265625,8.12053289631307,6.37160540844798,-2.6258035536363717
1772459213377655300,9.3926552734375,8.164047628390788,6.578494593214988,-3.133066262553632
1772459213387652400,9.40265234375,8.197771034294366,6.717935212609172,-3.3908521063432095
1772459213397649400,9.4126494140625,8.13778681345284,6.689671241155266,-3.4210113900244234
1772459213407646200,9.422646240234375,8.162243209317326,6.677074794432521,-3.467042196576297
1772459213417643300,9.432643310546876,8.247256657475232,6.612865649372339,-3.541888470984995
1772459213427640300,9.442640380859375,8.196108069518209,6.448746515795588,-3.6711467190608382
1772459213437637400,9.452637451171874,8.186962640032172,6.463954021799564,-3.8643151292502878
1772459213447634200,9.46263427734375,8.094141732993721,6.546759730780124,-3.9513717736735936
1772459213457630500,9.47263037109375,7.665347580635547,6.339497036525607,-3.7641736700654027
1772459213467627300,9.482627197265625,6.8169520516782995,6.056845047026872,-3.4296801419094205
1772459213477624000,9.4926240234375,5.665578953552246,5.735384311184287,-2.795082554194331
1772459213487621400,9.502621337890625,3.9159389335036274,5.060464942213892,-1.677956885845959
1772459213497618200,9.5126181640625,1.5110884535610676,3.2649978214919564,-0.5992194003418088
1772459213507615200,9.522615234375,-1.1668582520276307,0.0674509034603834,0.7786942162215709
1772459213517612300,9.5326123046875,-4.405327547556162,-4.5059670193910595,3.422890335638821
1772459213527610400,9.5426103515625,-8.073384191647172,-9.378131157451868,5.9559156523346894
1772459213537607200,9.552607177734375,-11.37409220894575,-11.514592566525936,5.378982025820017
1772459213547604200,9.562604248046876,-14.079811303079127,-9.759261056837438,3.2691739381328224
1772459213557601300,9.572601318359375,-15.601249301218985,-9.531007597002386,4.078437480141222
1772459213567598300,9.582598388671874,-16.116552108728886,-8.29552705964744,3.820632347129285
1772459213577595100,9.59259521484375,-14.453790746188163,-6.071950846222043,2.9871161151349543
1772459213587592400,9.602592529296874,-13.61707805624008,-7.166753915864229,4.366251674708724
1772459213597589200,9.61258935546875,-14.52105051099062,-9.400215563488006,6.41679596478343
1772459213607587300,9.62258740234375,-14.106439782285689,-10.200414340031147,8.297658226457237
1772459213617584000,9.632584228515626,-12.852273249161243,-10.641190606606006,8.857166086396575
1772459213627581400,9.64258154296875,-11.786419795149564,-11.187875225329398,8.442531392294168
1772459213637578200,9.652578125,-10.408228238427638,-11.152789883422852,7.297550041031837
1772459213647575300,9.6625751953125,-8.894879438719153,-10.00104093772173,5.188960973745584
1772459213657572400,9.672572265625,-7.326693717929721,-7.819003772386908,2.8831472066164014
1772459213667569400,9.6825693359375,-5.729872854286432,-5.161743296474218,0.8038770266644656
1772459213677566200,9.692566162109374,-4.162833380922675,-2.5334967335999012,-0.6860710237123072
1772459213687564300,9.702564208984375,-2.61432851215899,-0.3175929544985294,-1.5613877312123774
1772459213697561300,9.712561279296875,-1.138850885683298,1.5757947344884276,-1.8424672106973825
1772459213707558400,9.722558349609375,0.3738502637714147,3.2724890540301796,-1.6882774965912102
1772459213717555200,9.73255517578125,2.012503605493903,4.618603218489885,-1.6841265143916009
1772459213727552300,9.74255224609375,3.6244682622551916,5.699423940008878,-2.0561470785178244
1772459213737549300,9.75254931640625,5.0434787360996,6.484250959897041,-2.319333320046216
1772459213747546000,9.762546142578126,6.1727569067955015,6.491764988788962,-2.299413983089477
1772459213757543400,9.77254345703125,6.989285471370816,5.9795829436481,-1.8889676805876194
1772459213767541200,9.782541259765624,7.742137974849343,5.654059196150302,-1.2531658316493033
1772459213777538300,9.792538330078125,8.29647924580574,5.513995476421713,-0.7349732940472662
1772459213787535000,9.80253515625,8.561623635664581,5.281135984095931,-0.4973259829230606
1772459213797532400,9.812532470703125,8.613171452072262,5.093848156377673,-0.5786125195123255
1772459213807529200,9.822529296875,8.62050603274405,5.160554378950596,-0.8524426123909652
1772459213817526300,9.8325263671875,8.570835700646043,5.4678270149648185,-1.298705493683368
1772459213827523300,9.8425234375,8.666592661136388,5.8169823979407544,-1.8089242759272455
1772459213837521400,9.852521484375,8.864552689516543,6.0567696437031024,-2.3347904168970883
1772459213847518200,9.862518310546875,8.834741488620638,6.267541222861409,-2.5759569881886244
1772459213857515300,9.872515380859374,8.905278667658568,6.483126924303174,-2.703873174005747
1772459213867512300,9.88251220703125,8.993350334343313,6.741469232931733,-2.7801585413068532
1772459213877509400,9.89250927734375,9.00881736806631,7.019497069761156,-2.812721671259403
1772459213887506200,9.902506103515625,9.049602967441082,7.205251696562766,-2.918888966605067
1772459213897503500,9.91250341796875,9.117387048378585,7.247658175137639,-3.0853578781783577
1772459213907501300,9.922501220703126,9.067102968296409,7.159013677000999,-3.237252905476093
1772459213917498400,9.932498291015625,8.989025456881523,7.023688091710209,-3.408817094361782
1772459213927495200,9.9424951171875,8.664757846924662,6.687640027588605,-3.4237843618690964
1772459213937492500,9.952492431640625,7.927653532198071,5.875254554167389,-3.0727105780512094
1772459213947489300,9.9624892578125,6.92946608570218,4.792297989663481,-2.545925130279362
1772459213957486300,9.972486328125,5.616812876817583,3.941854296004772,-1.9648628795273602
1772459213967483400,9.9824833984375,3.5989883685618635,2.962960748043656,-0.7960209063366055
1772459213977481500,9.9924814453125,1.1200526617109774,0.5926181023806333,0.8583801857464015
1772459213987478300,10.002478271484375,-1.6736515898674726,-3.566756662520766,3.1681834609031676
1772459213997475300,10.012475341796875,-5.36271244354248,-8.252524368745089,4.796182137620449
1772459214007472400,10.022472412109375,-9.134576668110489,-10.78087380258441,4.344346716892719
1772459214017469200,10.03246923828125,-12.439694318544865,-9.304361572363971,1.2697818892769515
1772459214027466200,10.04246630859375,-14.603762696468829,-8.080959595337509,-0.10305310884788632
1772459214037463300,10.05246337890625,-16.696638646316526,-8.598405260095,1.223838176486641
1772459214047461400,10.06246142578125,-17.552418440306187,-6.700797615325451,1.6184863136149943
1772459214057458400,10.07245849609375,-16.775869419419763,-5.5779719817697995,1.9661521886855362
1772459214067455200,10.082455322265625,-16.513664590144156,-6.642546501886844,3.4088378448888657
1772459214077452300,10.092452392578124,-17.06375930957198,-7.989869457614422,5.166369787231087
1772459214087449300,10.102449462890625,-17.569112385475634,-8.741025094047188,5.642884306663275
1772459214097446100,10.112446044921874,-16.973748783779143,-9.098994482597709,4.651889986541867
1772459214107443500,10.122443359375,-15.670847153580187,-9.545763852107525,3.4997464885652065
1772459214117441300,10.132441162109375,-14.166069198340177,-9.360597838848829,2.5133289748400447
1772459214127438300,10.142438232421876,-12.174372818553447,-8.124632732847333,1.4659715469837187
1772459214137435100,10.15243505859375,-9.657605685958266,-6.366618852207064,0.6027307694636285
1772459214147432400,10.162432373046874,-6.887776815485954,-4.533228243543207,0.06613865181803703
1772459214157429200,10.17242919921875,-4.195515168818831,-2.86186038069874,-0.15724398711025714
1772459214167426300,10.18242626953125,-1.848032589739561,-1.1531430304080248,-0.12658201460391283
1772459214177424100,10.192424072265625,0.41520752555429935,0.5701198548465967,-0.1426893920570612
1772459214187421400,10.20242138671875,2.5212165132194757,2.3765981989264486,-0.5752833750896156
1772459214197418200,10.212418212890626,4.373866241365671,3.9425633210569617,-1.3471340090267359
1772459214207415300,10.222415283203125,5.678519683668017,5.206324781000614,-1.943117203926295
1772459214217412400,10.232412353515626,6.492427252089977,6.070632164838909,-2.192193233168125
1772459214227409400,10.242409423828125,7.281477442631125,6.437586239355802,-2.1632620299771426
1772459214237406200,10.25240625,8.021032073119283,6.254789877837896,-1.815813889310509
1772459214247404300,10.262404296875,8.375078735268115,5.85962443883717,-1.1280310932442545
1772459214257401300,10.2724013671875,8.491146077859401,5.571677850061655,-0.40247064744755623
1772459214267398400,10.2823984375,8.545950850236416,5.374372486197948,-0.00040448914766311644
1772459214277395200,10.292395263671875,8.263647820305824,5.1286739705652,0.05894318735599517
1772459214287392300,10.302392333984375,7.985830411356687,4.975998606544732,-0.2794359500616789
1772459214297389300,10.312389404296875,7.795814619979262,5.285821511563658,-0.8472181557409465
1772459214307386400,10.322386474609376,7.648489384815097,5.570635063010454,-1.5448922312244773
1772459214317384200,10.33238427734375,7.382337279218435,5.729021205893159,-2.207603276006877
1772459214327381200,10.34238134765625,7.237059039711951,6.059726155421138,-2.614143510980904
1772459214337378300,10.35237841796875,7.194692308625578,6.432769194462895,-2.80183553558588
1772459214347375400,10.362375244140624,7.038274835467338,6.650236471867561,-2.9295749035313725
1772459214357372200,10.3723720703125,6.819457897019386,6.849974615836143,-2.953168545086682
1772459214367369200,10.382369140625,6.416148314529657,7.003080187967419,-2.9084458985239268
1772459214377367300,10.3923671875,5.984820844301581,7.05774175248146,-2.7981492482885715
1772459214387364400,10.4023642578125,5.607329009157419,6.869390094923973,-2.6339070728540417
1772459214397361200,10.412361083984376,5.292660417672991,6.573447831219434,-2.614874455603957
1772459214407358200,10.422358154296875,4.82463958581984,6.3608642342031,-2.44677531248033
1772459214417355300,10.432355224609376,4.371235892862082,5.647568080565333,-2.106807444566488
1772459214427352000,10.44235205078125,3.9138802474081515,4.4704561455488205,-1.6036951333269476
1772459214437349400,10.452349365234374,3.074240271836519,3.064190002465248,-0.9226197259448469
1772459214447347500,10.462347412109375,2.048065332740545,0.9406120403617619,0.022445202172547578
1772459214457344300,10.47234423828125,1.079405594024062,-2.0540473297595976,1.2333688058979808
1772459214467341300,10.48234130859375,-0.4141360969305038,-5.422942748099565,2.442078094574809
1772459214477338400,10.49233837890625,-2.1787603356212375,-7.2552096134305,2.4120460905350742
1772459214487335200,10.502335205078126,-3.5070296313107012,-6.474343898388743,0.7704249850481748
1772459214497332200,10.512332275390625,-4.00601317218244,-5.91697363499999,-0.18414792225733398
1772459214507330300,10.522330322265624,-4.85453612691164,-6.479879905205965,0.21665201549902557
1772459214517326800,10.532326904296875,-6.020223581594228,-5.956159397962689,0.039733752234280106
1772459214527323600,10.54232373046875,-6.160131818500161,-5.27203614731729,-0.9765839558444916
1772459214537321000,10.552321044921875,-5.963220422390103,-5.455847238835692,-0.9541106966212392
1772459214547317800,10.56231787109375,-6.252504397249221,-5.62717118922472,0.010593436337262391
1772459214557314800,10.572314697265625,-6.529032350909709,-5.697814751246571,1.0770002864480017
1772459214567312000,10.582311767578124,-6.700950175538659,-5.220173858132958,1.541759193895757
1772459214577310000,10.59231005859375,-6.661219638174772,-4.2244852427154775,1.305101186069846
1772459214587306800,10.602306640625,-6.581126110762358,-3.6130899591505528,0.8196380748979747
1772459214597303800,10.6123037109375,-6.373758787089586,-3.170993257626891,0.40076808131337166
1772459214607300900,10.62230078125,-5.918395192235708,-2.519731243097782,0.07723126984909176
1772459214617298000,10.6322978515625,-5.38390019299984,-1.7638941708505154,-0.14710750076025725
1772459214627294700,10.642294677734375,-4.986031340259314,-1.0448685336500405,-0.1477804315857589
1772459214637292800,10.652292724609374,-4.567303823885322,-0.42585108464360233,0.07013488184735178
1772459214647289900,10.662289794921875,-3.9037136581808327,0.09762275436222553,0.23964622985646128
1772459214657287000,10.672286865234375,-3.0014532680451866,0.5050783506155013,0.4457620921634137
1772459214667283700,10.68228369140625,-2.035472977671027,0.8556436003893614,0.6071357994895428
1772459214677281000,10.692281005859375,-1.152243451219797,1.326095458781719,0.7840040861327201
1772459214687277800,10.70227783203125,-0.22733576046824455,1.7358511486709116,1.004449429500103
1772459214697274600,10.712274658203125,0.6926701297163963,1.9990017343640327,1.1674323255885393
1772459214707272700,10.722272705078124,1.4752455712854862,2.147563817846775,1.0685443005308508
1772459214717270000,10.73227001953125,2.1086849288761615,2.2529805870860815,0.9463509493399411
1772459214727266800,10.742266845703124,2.528887778499722,2.3317326367616653,0.8132698550403118
1772459214737263600,10.752263671875,2.870951741909981,2.4448230093687773,0.5068703120661899
1772459214747261000,10.762260986328124,3.060882777613401,2.3420646456837653,0.2815087742803618
1772459214757257700,10.7722578125,3.1963264363259074,1.8593331514328717,0.40869887431263924
1772459214767255800,10.782255859375,3.1391584419488905,1.4241513438642024,0.6145919607143848
1772459214777252600,10.792252685546876,1.6337427733272314,1.3049603162944317,0.19392532950397579
1772459214787250000,10.80225,-0.28058687366247176,0.25529168888628484,0.08214584769918583
1772459214797246700,10.812246826171876,2.3103835592627524,-0.23248189118504523,0.3084587770588696
1772459214807243800,10.822243896484375,1.225598025766015,0.279614813759923,0.12817005098033696
1772459214817240800,10.83224072265625,0.44989422353208064,0.1773795971661806,-0.6215094850178807
1772459214827238000,10.84223779296875,0.7108791556239128,0.010333762487769127,-0.6467451216265558
1772459214837235700,10.852235595703124,0.9776783269524574,0.30055531045794487,0.26607323167417196
1772459214847232800,10.862232666015625,1.305489308604598,0.8290811721563339,0.345646023148112
1772459214857229800,10.872229736328125,1.471933670258522,1.0601350763648747,0.422781029548496
1772459214867227000,10.882226806640626,1.4895675266265869,1.023211413115263,0.5967137011311948
1772459214877223700,10.8922236328125,1.5840782864481209,0.7351970198005437,0.6891576646160334
1772459214887220700,10.902220703125,1.4721113649129867,0.3244131559073925,0.5548485994240269
1772459214897217800,10.9122177734375,1.1683166341423987,-0.08237433182597159,0.009727448891382664
1772459214907216000,10.9222158203125,0.5218950453817844,-0.46919747441709037,-0.9661022362533956
1772459214917212700,10.932212646484375,-0.0476268435716629,-0.7859668375730514,-1.303509386833757
1772459214927209700,10.942209716796874,-0.18727847536802292,-0.8849258089751004,-0.6521164394013583
1772459214937206800,10.952206787109375,-0.0573515342503786,-0.7133692188739776,-0.29171149426698684
1772459214947203800,10.962203857421875,0.01490413914322853,-0.3049585138529539,-0.0839263470409438
1772459214957200600,10.97220068359375,-0.15307342342734337,-0.019248890349268914,0.35321759091354904
1772459214967199000,10.982198974609375,-0.3583452361255884,0.07452069571614266,0.6239896844610572
1772459214977195800,10.99219580078125,-0.37110827158689497,0.11984276947677135,0.5893316645884886
1772459214987192800,11.00219287109375,-0.4181283814370632,0.10962123519182204,0.4674306839402765
1772459214997190000,11.01218994140625,-0.6538128680557013,0.020191724157333373,0.3063780069957487
1772459215007187000,11.02218701171875,-0.7771171761631965,-0.12831249165832995,0.23142768769068642
1772459215017183700,11.032183837890624,-0.5587269386947155,-0.18703239165246485,0.31784605247676373
1772459215027180500,11.0421806640625,-0.3226993377268314,-0.12555588642656804,0.4420968111215159
1772459215037179000,11.052178955078125,-0.177097273093462,-0.05688391673862934,0.5119497707549482
1772459215047176000,11.062176025390626,-0.08134323521256447,0.014398527708649635,0.4852039853116497
1772459215057172700,11.0721728515625,0.02354161910712719,0.03165127580463886,0.42354163865745065
1772459215067169800,11.082169677734376,0.07297054366469383,0.01759293983578682,0.29856307719480246
1772459215077166800,11.092166748046875,0.13152385492026805,0.0198462717205286,0.17262310508778317
1772459215087163600,11.10216357421875,0.09186287566125392,0.022007249146699905,0.0789806707996875
1772459215097161700,11.11216162109375,0.09960895974338053,0.005458849927783012,-0.08036180469347164
1772459215107158800,11.12215869140625,0.14904139143228531,-0.11404723494052886,-0.15997067212779073
1772459215117155800,11.13215576171875,0.09341828840970992,-0.3029489275962114,-0.18621508392021058
1772459215127152600,11.142152587890624,0.13913608348965645,-0.4031704662799835,-0.14972542817369103
1772459215137149700,11.152149658203125,0.19339958859682083,-0.4180968172550201,-0.03207262932213489
1772459215147146800,11.162146728515625,0.25555998443365097,-0.3958557593524456,0.017495616941154
1772459215157144800,11.172144775390626,0.3237164058148861,-0.35092706882357594,0.014842312253662384
1772459215167141600,11.1821416015625,0.42566696024835105,-0.3790454943269491,-0.1327559722648002
1772459215177138700,11.192138671875,0.2189467023074627,-0.41553310424685475,-0.3221525174990296
1772459215187135700,11.2021357421875,-0.03980944781899452,-0.4614280094593763,-0.3457115991976112
1772459215197132800,11.2121328125,0.02059095260798931,-0.6505068122476338,-0.48186987245287743
1772459215207129600,11.222129638671875,-0.228269241926074,-0.506681109637022,-0.3809559310581535
1772459215217127000,11.232126953125,-0.47179216708540916,-0.5139852951705456,-0.24945052511002866
1772459215227124700,11.242124755859376,-0.5696721110790968,-0.4732102171897888,-0.14872316492912357
1772459215237121800,11.252121826171875,-0.39323768580853935,-0.2537058809995651,-0.02086879230183549
1772459215247118600,11.26211865234375,-0.24243220731317996,-0.14185469479858875,0.0798192679151427
1772459215257116000,11.272115966796875,-0.04610007239580154,-0.012466682863235472,0.18263264058986678
1772459215267112700,11.28211279296875,0.04589958138763904,-0.0039174657046794886,0.10979268276859074
1772459215277109800,11.29210986328125,0.07658873416185379,0.038353988313674925,0.059741799520933996
1772459215287106800,11.30210693359375,-0.009534136542677879,0.00988134254515171,0.026879421760328114
