time,seconds_elapsed,z,y,x
1772025002213202200,0.0772021484375,0.7797513604164124,1.0324206352233887,-1.823165774345398
1772025002223200300,0.0872001953125,0.6621658802032471,1.214540719985962,-1.4611834287643433
1772025002233197300,0.097197265625,0.4485868811607361,1.3475338220596313,-1.185827612876892
1772025002243194400,0.1071943359375,0.2026122659444809,1.3582279682159424,-1.0640287399291992
1772025002253191200,0.117191162109375,0.006041551008820534,1.2583073377609253,-0.9310908913612366
1772025002263188500,0.1271884765625,-0.08518103510141373,1.1329888105392456,-0.7356034517288208
1772025002273185300,0.137185302734375,-0.08055419474840164,0.9537237286567688,-0.4850197434425354
1772025002283182300,0.147182373046875,-0.0675281435251236,0.7598122954368591,-0.2419964224100113
1772025002293179400,0.157179443359375,-0.07574798911809921,0.5979604125022888,-0.07430130243301392
1772025002303176400,0.167176513671875,-0.033325694501399994,0.5476780533790588,0.178977832198143
1772025002313173200,0.17717333984375,0.08939249813556671,0.6740416884422302,0.39951151609420776
1772025002323170300,0.18717041015625,0.24318580329418182,0.8774238228797913,0.46090003848075867
1772025002333167400,0.19716748046875,0.3409680128097534,0.9871243238449097,0.3966822028160095
1772025002343164200,0.2071640625,0.37584638595581055,0.923730731010437,0.19586706161499023
1772025002353161200,0.2171611328125,0.41875630617141724,0.753535807132721,-0.13955993950366974
1772025002363159300,0.2271591796875,0.5151163339614868,0.5391039848327637,-0.5519871711730957
1772025002373156400,0.23715625,0.6191152334213257,0.2989424467086792,-0.946871817111969
1772025002383153200,0.247153076171875,0.705385684967041,0.08023728430271149,-1.208009958267212
1772025002393150200,0.257150146484375,0.7497047781944275,-0.10137836635112762,-1.2709662914276123
1772025002403147300,0.267147216796875,0.724020779132843,-0.31301525235176086,-1.1439207792282104
1772025002413144300,0.277144287109375,0.6319568157196045,-0.47358906269073486,-0.8797357082366943
1772025002423141000,0.28714111328125,0.5126083493232727,-0.5444602966308594,-0.5687876343727112
1772025002433138400,0.297138427734375,0.39368394017219543,-0.5522146224975586,-0.3200124204158783
1772025002443135200,0.30713525390625,0.36851441860198975,-0.7292876839637756,-0.2779187560081482
1772025002453132300,0.31713232421875,0.2953316867351532,-0.17931804060935974,-0.5529786348342896
1772025002463129300,0.32712939453125,0.33553263545036316,0.28283920884132385,-1.0401530265808105
1772025002473126400,0.33712646484375,0.432381808757782,0.6353711485862732,-1.6131696701049805
1772025002483123200,0.347123291015625,0.6139457821846008,0.5925038456916809,-1.985672950744629
1772025002493120300,0.357120361328125,0.7835235595703125,0.052641186863183975,-1.9962170124053955
1772025002503118300,0.367118408203125,0.7995163798332214,-0.654614269733429,-1.7810930013656616
1772025002513115100,0.377115234375,0.4955366849899292,-0.9730995297431946,-1.3152145147323608
1772025002523112200,0.3871123046875,0.19754308462142944,-0.561897337436676,-0.47503986954689026
1772025002533109200,0.397109130859375,0.2915551960468292,-0.016163641586899757,0.6840917468070984
1772025002543106300,0.407106201171875,0.5245650410652161,0.38628020882606506,1.972851276397705
1772025002553103000,0.41710302734375,0.49192357063293457,0.5155037641525269,3.0864083766937256
1772025002563100400,0.427100341796875,0.26803189516067505,0.5295602083206177,3.38983154296875
1772025002573097200,0.43709716796875,0.15164148807525635,0.6404279470443726,2.743619203567505
1772025002583094300,0.44709423828125,0.23745892941951752,0.6692313551902771,1.719385027885437
1772025002593091300,0.45709130859375,0.5653506517410278,0.503856360912323,0.7166434526443481
1772025002603088400,0.46708837890625,0.9165462255477905,0.37147703766822815,-0.053088102489709854
1772025002613085200,0.477085205078125,1.0615521669387817,0.5723613500595093,-0.19302470982074738
1772025002623082200,0.487082275390625,1.0668113231658936,0.7803195714950562,0.06692458689212799
1772025002633080300,0.497080322265625,0.895858108997345,0.6638272404670715,0.35706382989883423
1772025002643077400,0.507077392578125,0.4860077500343323,0.2738315165042877,0.5083242058753967
1772025002653074200,0.51707421875,0.07980924844741821,-0.32613813877105713,0.2234867811203003
1772025002663071200,0.5270712890625,-0.25764575600624084,-0.7171628475189209,-0.3618110418319702
1772025002673068300,0.537068359375,-0.4643450081348419,-0.6809906363487244,-0.8042842745780945
1772025002683065000,0.547065185546875,-0.5061720609664917,-0.4827672839164734,-0.9383864402770996
1772025002693062400,0.5570625,-0.5081337690353394,-0.39385539293289185,-1.0414482355117798
1772025002703059200,0.56705908203125,-0.4767686426639557,-0.30776044726371765,-1.3061707019805908
1772025002713056300,0.57705615234375,-0.3250845670700073,-0.10946063697338104,-1.6120332479476929
1772025002723053300,0.58705322265625,-0.13914746046066284,0.0829109400510788,-1.8705840110778809
1772025002733050400,0.59705029296875,0.0135878911241889,0.13392969965934753,-1.9787073135375977
1772025002743047200,0.607047119140625,0.20606039464473724,-0.045054975897073746,-1.7997263669967651
1772025002753044500,0.61704443359375,0.4024759829044342,-0.20721717178821564,-1.4208707809448242
1772025002763042300,0.627042236328125,0.47947198152542114,-0.07553210109472275,-0.9471316337585449
1772025002773039400,0.637039306640625,0.45176976919174194,0.19532383978366852,-0.43833377957344055
1772025002783036200,0.6470361328125,0.42315757274627686,0.24863207340240479,-0.03327444940805435
1772025002793033500,0.657033447265625,0.40077823400497437,-0.11583387106657028,0.2052140235900879
1772025002803030300,0.6670302734375,0.3624747693538666,-0.7082295417785645,0.35704854130744934
1772025002813027300,0.67702734375,0.2884070575237274,-1.268011450767517,0.5289451479911804
1772025002823024400,0.6870244140625,0.169468954205513,-1.5506054162979126,0.6721712946891785
1772025002833021200,0.697021240234375,0.009742813184857368,-1.4277530908584595,0.7858350872993469
1772025002843018200,0.707018310546875,-0.0672110915184021,-1.1187225580215454,0.7875975370407104
1772025002853015300,0.717015380859375,-0.0216412041336298,-0.7186188697814941,0.6873436570167542
1772025002863012400,0.727012451171875,0.10670451819896698,-0.3705863058567047,0.5626800060272217
1772025002873009200,0.737009033203125,0.14008070528507233,-0.16525809466838837,0.4329527020454407
1772025002883006200,0.747006103515625,0.06153690069913864,-0.1747613251209259,0.31098419427871704
1772025002893004300,0.75700439453125,-0.27499398589134216,-0.2666141986846924,0.15281878411769867
1772025002903001300,0.76700146484375,-0.8125244975090027,-0.3482491374015808,-0.016657067462801933
1772025002912998100,0.776998046875,-1.399007797241211,-0.4123895466327667,-0.11441271007061005
1772025002922995500,0.786995361328125,-1.8107328414916992,-0.5376995801925659,-0.12884491682052612
1772025002932992300,0.7969921875,-1.9772179126739502,-0.7170066833496094,-0.10285064578056335
1772025002942989300,0.8069892578125,-1.9889792203903198,-0.9720392227172852,-0.10092838108539581
1772025002952986400,0.816986328125,-1.90839684009552,-1.1499924659729004,-0.09078902006149292
1772025002962983400,0.8269833984375,-1.7854820489883423,-1.1179492473602295,0.034041065722703934
1772025002972980200,0.836980224609375,-1.696296215057373,-0.850023090839386,0.24996496737003326
1772025002982977000,0.84697705078125,-1.5903091430664062,0.15382619202136993,0.39782822132110596
1772025002992974300,0.856974365234375,-1.3984262943267822,1.028066635131836,0.5671257376670837
1772025003002971100,0.86697119140625,-1.109588861465454,1.2571147680282593,0.7403817176818848
1772025003012968200,0.87696826171875,-1.0126703977584839,1.2903834581375122,0.8005005121231079
1772025003022965200,0.88696533203125,-1.0015660524368286,0.9664552807807922,0.6961709260940552
1772025003032963300,0.89696337890625,-1.0977418422698975,0.2788095772266388,0.4631612002849579
1772025003042960100,0.906960205078125,-1.4538880586624146,-0.68772292137146,0.1957678496837616
1772025003052957200,0.916957275390625,-2.1208384037017822,-1.392979621887207,0.09345341473817825
1772025003062954200,0.926954345703125,-2.803510904312134,-1.5870587825775146,0.0753851979970932
1772025003072951300,0.936951416015625,-2.84511661529541,-1.0073556900024414,0.052702903747558594
1772025003082948000,0.946947998046875,-2.24590802192688,-0.13705512881278992,-0.0071103619411587715
1772025003092945400,0.9569453125,-1.4355593919754028,0.6583879590034485,-0.24790731072425842
1772025003102942200,0.966942138671875,-0.6546323895454407,1.3061550855636597,-0.5886662006378174
1772025003112939300,0.976939208984375,-0.07952768355607986,1.534239649772644,-1.0095564126968384
1772025003122936300,0.986936279296875,0.20449312031269073,1.1141932010650635,-1.4445512294769287
1772025003132933400,0.996933349609375,0.24891890585422516,0.07828362286090851,-1.6457207202911377
1772025003142930200,1.00693017578125,0.11333659291267395,-1.3869389295578003,-1.4950662851333618
1772025003152927200,1.01692724609375,-0.19446304440498352,-2.9056661128997803,-1.1280584335327148
1772025003162924300,1.02692431640625,-0.5906538367271423,-3.9526407718658447,-0.8299700617790222
1772025003172922400,1.03692236328125,-0.881219208240509,-4.204410552978516,-0.7065456509590149
1772025003182919200,1.046919189453125,-0.9080089926719666,-3.7051198482513428,-0.6588585376739502
1772025003192916200,1.056916259765625,-0.6232877373695374,-2.6555838584899902,-0.6348262429237366
1772025003202913300,1.066913330078125,-0.16017471253871918,-1.3031941652297974,-0.6136687994003296
1772025003212910000,1.07691015625,0.299830824136734,-0.012145474553108215,-0.5536622405052185
1772025003222907400,1.086907470703125,0.6648897528648376,0.9384261965751648,-0.45818525552749634
1772025003232904200,1.096904296875,0.9260786175727844,1.4154164791107178,-0.3032725751399994
1772025003242901200,1.1069013671875,1.0788263082504272,1.427935004234314,-0.06452391296625137
1772025003252898300,1.116898193359375,1.1165904998779297,1.0550459623336792,0.24373817443847656
1772025003262895400,1.126895263671875,1.007094144821167,0.4815954864025116,0.531665563583374
1772025003272892200,1.13689208984375,0.7630606293678284,-0.100119948387146,0.7482274770736694
1772025003282889500,1.146889404296875,0.4789373576641083,-0.5125176310539246,0.8986496925354004
1772025003292886300,1.15688623046875,0.2688382863998413,-0.6960783004760742,0.9895490407943726
1772025003302884400,1.16688427734375,0.16857214272022247,-0.6128363609313965,1.0183212757110596
1772025003312881200,1.176881103515625,0.19391146302223206,-0.3075810670852661,0.9867749214172363
1772025003322878500,1.18687841796875,0.3098289966583252,0.09484255313873291,0.9058172106742859
1772025003332875300,1.196875244140625,0.4576239287853241,0.41691914200782776,0.8126891851425171
1772025003342872300,1.206872314453125,0.48947906494140625,0.6499910354614258,0.6643998622894287
1772025003352869400,1.216869384765625,0.36569851636886597,0.7205479145050049,0.46827948093414307
1772025003362866200,1.2268662109375,0.17084302008152008,0.6756688356399536,0.2655673921108246
1772025003372863200,1.23686328125,0.009153055027127266,0.5903530120849609,0.09864889830350876
1772025003382860300,1.2468603515625,-0.08102504163980484,0.5067079663276672,-0.03540264442563057
1772025003392857300,1.256857421875,-0.1138831153512001,0.46129676699638367,-0.12138798832893372
1772025003402854100,1.266854248046875,-0.13088446855545044,0.30595457553863525,-0.17857883870601654
1772025003412851500,1.2768515625,-0.17987370491027832,-0.0014554554363712668,-0.16549797356128693
1772025003422848300,1.28684814453125,-0.23937618732452393,-0.3305864930152893,-0.04967496916651726
1772025003432845300,1.29684521484375,-0.2178521305322647,-0.6027063131332397,0.13715581595897675
1772025003442843100,1.306843017578125,-0.16702091693878174,-0.26721063256263733,0.23487518727779388
1772025003452840400,1.31684033203125,-0.16339755058288574,0.30040618777275085,0.45820072293281555
1772025003462837200,1.326837158203125,-0.16572514176368713,0.7396693229675293,0.8019000887870789
1772025003472834300,1.336834228515625,-0.05919431149959564,1.3261561393737793,0.8881432414054871
1772025003482831400,1.346831298828125,0.134926438331604,1.8661062717437744,0.7539761066436768
1772025003492828400,1.356828369140625,0.20950186252593994,2.0018937587738037,0.197248175740242
1772025003502825700,1.36682568359375,-0.10710351169109344,1.6992506980895996,-0.6016474366188049
1772025003512822800,1.37682275390625,-0.682636559009552,1.4579689502716064,-1.2136081457138062
1772025003522819800,1.38681982421875,-1.1050128936767578,1.4203741550445557,-1.465897560119629
1772025003532816600,1.396816650390625,-1.176137089729309,1.405413269996643,-1.2857104539871216
1772025003542813700,1.406813720703125,-0.9906489849090576,1.319041132926941,-0.8790901899337769
1772025003552810800,1.416810791015625,-0.7054757475852966,1.1393769979476929,-0.5370804667472839
1772025003562807800,1.426807861328125,-0.40977561473846436,0.7063102722167969,-0.319608598947525
1772025003572804600,1.4368046875,-0.2241257280111313,-0.006546455435454845,-0.26563507318496704
1772025003582802700,1.446802734375,-0.23340710997581482,-0.8910655975341797,-0.36504340171813965
1772025003592799700,1.4567998046875,-0.30358248949050903,-1.773675560951233,-0.38917362689971924
1772025003602796800,1.466796875,-0.29070237278938293,-2.5174479484558105,-0.19373968243598938
1772025003612793600,1.476793701171875,-0.20174825191497803,-3.127645969390869,0.17147956788539886
1772025003622791000,1.486791015625,-0.09177515655755997,-3.515352964401245,0.5645725131034851
1772025003632787700,1.49678759765625,-0.05409422144293785,-3.5383403301239014,0.8396201729774475
1772025003642784800,1.50678466796875,-0.12543950974941254,-3.2195756435394287,0.8957505226135254
1772025003652781800,1.51678173828125,-0.31580957770347595,-2.658353805541992,0.8108562231063843
1772025003662779000,1.52677880859375,-0.3883458375930786,-2.073875665664673,0.5722162127494812
1772025003672775700,1.536775634765625,-0.3084786832332611,-1.486419916152954,0.2098526507616043
1772025003682773000,1.54677294921875,-0.1615198850631714,-0.9062891602516174,-0.14403565227985382
1772025003692769800,1.556769775390625,0.005852071102708578,-0.3278370201587677,-0.3551541566848755
1772025003702766600,1.5667666015625,0.2045917958021164,0.23229020833969116,-0.3563504219055176
1772025003712764000,1.576763916015625,0.4437858462333679,0.742910623550415,-0.1737878918647766
1772025003722762000,1.586761962890625,0.6757495999336243,1.174027442932129,0.1394917368888855
1772025003732758800,1.5967587890625,0.8632551431655884,1.5231423377990723,0.5069799423217773
1772025003742755600,1.606755615234375,1.026091456413269,1.7686070203781128,0.8697234988212585
1772025003752753000,1.6167529296875,1.1998462677001953,1.9705111980438232,1.170506238937378
1772025003762749700,1.626749755859375,1.394667148590088,1.865998387336731,1.2870267629623413
1772025003772746800,1.636746826171875,1.5139120817184448,1.2249107360839844,1.1354678869247437
1772025003782743800,1.646743896484375,1.469143271446228,0.36294853687286377,0.8509057760238647
1772025003792740900,1.656740966796875,1.2673227787017822,-0.1501961499452591,0.6767363548278809
1772025003802737700,1.666737548828125,0.9626675248146057,-0.24683427810668945,0.6182591915130615
1772025003812734700,1.676734619140625,0.624274730682373,-0.10569308698177338,0.5693978667259216
1772025003822731800,1.686731689453125,0.34232234954833984,0.10637549310922623,0.5034174919128418
1772025003832728800,1.696728759765625,0.10581981390714645,0.29778364300727844,0.4388454258441925
1772025003842725600,1.7067255859375,-0.05609985068440437,0.5034635066986084,0.3907436728477478
1772025003852722700,1.71672265625,-0.10127544403076172,0.7431485056877136,0.34002119302749634
1772025003862720800,1.726720703125,-0.07958532869815826,0.9475378394126892,0.26179563999176025
1772025003872717800,1.7367177734375,-0.02659895084798336,1.0651575326919556,0.15607178211212158
1772025003882714600,1.746714599609375,0.03133758530020714,1.0840516090393066,0.06775123625993729
1772025003892712000,1.7567119140625,0.04963856562972069,0.9178755879402161,0.02328004688024521
1772025003902708700,1.766708740234375,-0.002200399525463581,0.4943893551826477,0.07681252062320709
1772025003912705500,1.77670556640625,-0.18093924224376678,-0.06118641048669815,0.27306750416755676
1772025003922702800,1.786702880859375,-0.4185906946659088,-0.3610284924507141,0.6094633936882019
1772025003932699600,1.79669970703125,-0.48916885256767273,-0.049830544739961624,0.8493426442146301
1772025003942696700,1.80669677734375,-0.5260501503944397,0.7749190330505371,0.6654172539710999
1772025003952693800,1.81669384765625,-0.593796968460083,1.255963683128357,0.05650850385427475
1772025003962690800,1.82669091796875,-0.7522516250610352,1.0667623281478882,-0.7782947421073914
1772025003972687600,1.8366875,-0.987131655216217,0.5459635257720947,-1.5279779434204102
1772025003982685000,1.846684814453125,-1.1087381839752197,0.22040754556655884,-1.9592888355255127
1772025003992681700,1.856681640625,-1.109203577041626,0.363456130027771,-1.8594164848327637
1772025004002678800,1.8666787109375,-1.084829330444336,0.708040177822113,-1.3591786623001099
1772025004012676600,1.876676513671875,-1.0604759454727173,1.0617475509643555,-0.8063791990280151
1772025004022674000,1.886673828125,-1.0172221660614014,1.2328274250030518,-0.4321698844432831
1772025004032670700,1.896670654296875,-0.9037522077560425,1.0695841312408447,-0.31438779830932617
1772025004042667800,1.906667724609375,-0.8567820191383362,0.3855523467063904,-0.5546664595603943
1772025004052664800,1.916664794921875,-0.8814101219177246,-0.5737146735191345,-0.9063912034034729
1772025004062661600,1.92666162109375,-0.8118718266487122,-1.416325569152832,-1.0226315259933472
1772025004072658700,1.93665869140625,-0.5753357410430908,-1.959756851196289,-0.8859822154045105
1772025004082655700,1.94665576171875,-0.2666313648223877,-2.297778844833374,-0.6848160624504089
1772025004092652800,1.95665283203125,0.020084133371710777,-2.474916934967041,-0.4851016700267792
1772025004102649600,1.966649658203125,0.2733920216560364,-2.474973678588867,-0.26429712772369385
1772025004112647000,1.97664697265625,0.47309890389442444,-2.316927194595337,-0.06831745058298111
1772025004122643700,1.986643798828125,0.6267678141593933,-2.0288071632385254,0.06079339608550072
1772025004132640800,1.996640869140625,0.7445183992385864,-1.651955246925354,0.13810215890407562
1772025004142637800,2.006637939453125,0.7665587663650513,-1.1691068410873413,0.17538082599639893
1772025004152636000,2.016635986328125,0.6931072473526001,-0.5534090995788574,0.17021341621875763
1772025004162632700,2.0266328125,0.5739012360572815,0.1188904419541359,0.13672682642936707
1772025004172629800,2.036629638671875,0.45364782214164734,0.6943258047103882,0.08468788862228394
1772025004182626800,2.046626708984375,0.3313581049442291,1.087026834487915,0.024985672906041145
1772025004192623900,2.056623779296875,0.20228536427021027,1.2919392585754395,-0.0083227613940835
1772025004202620700,2.06662060546875,0.08563092350959778,1.344655156135559,0.025599252432584763
1772025004212618000,2.076617919921875,0.0006044416222721338,1.256780743598938,0.11710919439792633
1772025004222614800,2.08661474609375,-0.04598063603043556,1.0506045818328857,0.2535131275653839
1772025004232611600,2.096611572265625,-0.047264281660318375,0.7417353391647339,0.42500123381614685
1772025004242609000,2.10660888671875,-0.023866545408964157,0.39741766452789307,0.5931806564331055
1772025004252605700,2.116605712890625,0.017291676253080368,0.08805402368307114,0.7573792338371277
1772025004262602800,2.126602783203125,0.05917680636048317,-0.15531469881534576,0.898720920085907
1772025004272599800,2.136599853515625,0.11468467116355896,-0.24481382966041565,1.0278903245925903
1772025004282596900,2.146596923828125,0.19638539850711823,-0.2275855839252472,1.1404451131820679
1772025004292593700,2.15659375,0.24389564990997314,-0.20826786756515503,1.192845344543457
1772025004302591700,2.166591796875,0.22605885565280914,-0.2200789898633957,1.1782126426696777
1772025004312588800,2.1765888671875,0.13557077944278717,-0.24372164905071259,1.081822156906128
1772025004322585900,2.1865859375,0.01590457186102867,-0.278715580701828,0.938753068447113
1772025004332582700,2.196582763671875,-0.08010491728782654,-0.3559647798538208,0.8008304834365845
1772025004342580000,2.206580078125,-0.1400422900915146,-0.46075162291526794,0.7181827425956726
1772025004352576800,2.21657666015625,-0.1536378562450409,-0.6543561816215515,0.6864001154899597
1772025004362573800,2.22657373046875,-0.1459631621837616,-0.8803017139434814,0.6477816104888916
1772025004372571000,2.23657080078125,-0.16496308147907257,-0.8765130639076233,0.5920054912567139
1772025004382568000,2.24656787109375,-0.2170926034450531,-0.4447445869445801,0.4752064347267151
1772025004392564700,2.256564697265625,-0.2865149676799774,0.2987816333770752,0.31372877955436707
1772025004402561800,2.266561767578125,-0.3576943278312683,1.1567174196243286,0.19265322387218475
1772025004412558800,2.276558837890625,-0.47568342089653015,1.6907533407211304,0.06547349691390991
1772025004422555600,2.2865556640625,-0.7570383548736572,1.2463034391403198,-0.2382645457983017
1772025004432552700,2.296552734375,-1.2621681690216064,0.41744503378868103,-0.505969762802124
1772025004442549800,2.3065498046875,-1.4607139825820923,-0.06938829272985458,-0.629564642906189
1772025004452547800,2.3165478515625,-1.1970385313034058,0.29092171788215637,-0.44582605361938477
1772025004462544600,2.326544677734375,-0.6921082735061646,0.9281485080718994,-0.09336867928504944
1772025004472541700,2.336541748046875,-0.2633911371231079,1.254799723625183,0.07598555088043213
1772025004482538800,2.346538818359375,0.05818771570920944,1.3893018960952759,0.16449064016342163
1772025004492535800,2.356535888671875,0.27350935339927673,1.310579776763916,0.32831352949142456
1772025004502532400,2.366532470703125,0.330653578042984,0.8208575248718262,0.5457537174224854
1772025004512529200,2.376529052734375,0.3163813054561615,0.08809390664100647,0.9139323234558105
1772025004522526000,2.38652587890625,0.3604124188423157,-0.7436406016349792,1.4315496683120728
1772025004532523300,2.396523193359375,0.4948924481868744,-1.5553122758865356,1.903722882270813
1772025004542520000,2.40652001953125,0.6208165884017944,-2.154900550842285,2.06182861328125
1772025004552517000,2.41651708984375,0.633109450340271,-2.348200559616089,1.832554817199707
1772025004562514200,2.42651416015625,0.535527229309082,-2.167991876602173,1.2935997247695923
1772025004572511200,2.43651123046875,0.4038935899734497,-1.5867655277252197,0.583198606967926
1772025004582508000,2.446508056640625,0.2700364291667938,-0.7079873085021973,-0.12314947694540024
1772025004592505300,2.45650537109375,0.140513077378273,0.30025091767311096,-0.7283488512039185
1772025004602503200,2.466503173828125,0.046424392610788345,1.2162251472473145,-1.1824822425842285
1772025004612500200,2.476500244140625,-0.013745469972491264,1.8798564672470093,-1.396785855293274
1772025004622497000,2.4864970703125,-0.04736841097474098,2.2437264919281006,-1.387451171875
1772025004632494300,2.496494384765625,-0.05600251257419586,2.335195541381836,-1.2385269403457642
1772025004642491100,2.5064912109375,-0.04587504267692566,2.1579973697662354,-1.0177799463272095
1772025004652488200,2.51648828125,-0.030120976269245148,1.7707680463790894,-0.7511335015296936
1772025004662485200,2.5264853515625,-0.004630264826118946,1.2302987575531006,-0.45815545320510864
1772025004672482300,2.536482421875,0.02939894050359726,0.5937488079071045,-0.151532843708992
1772025004682479000,2.54647900390625,0.08404354751110077,-0.06986699998378754,0.1469411998987198
1772025004692476200,2.55647607421875,0.15829738974571228,-0.6460445523262024,0.42237138748168945
1772025004702473200,2.56647314453125,0.2783241868019104,-1.074325680732727,0.6740454435348511
1772025004712470000,2.576469970703125,0.41916587948799133,-1.3455784320831299,0.9021637439727783
1772025004722467000,2.586467041015625,0.5218422412872314,-1.4639407396316528,1.1057206392288208
1772025004732464000,2.596464111328125,0.5673022270202637,-1.4586485624313354,1.2813791036605835
1772025004742462200,2.606462158203125,0.5389350056648254,-1.3570054769515991,1.391479253768921
1772025004752459000,2.616458984375,0.4480871558189392,-1.1733949184417725,1.3832296133041382
1772025004762456000,2.6264560546875,0.3650020956993103,-0.8935264348983765,1.2833623886108398
1772025004772453000,2.636453125,0.3245351016521454,-0.5516588091850281,1.1433424949645996
1772025004782450200,2.6464501953125,0.2583206593990326,-0.42692381143569946,0.9522340297698975
1772025004792447000,2.656447021484375,0.09322798252105713,-0.5731270909309387,0.6528252959251404
1772025004802444300,2.6664443359375,-0.10434500873088837,-0.9556803703308105,0.20995891094207764
1772025004812441000,2.676441162109375,-0.2597579061985016,-1.4607319831848145,-0.3214854598045349
1772025004822438100,2.686438232421875,-0.19138363003730774,-1.5563459396362305,-0.3214516341686249
1772025004832435200,2.696435302734375,0.017265845090150833,-0.5819400548934937,0.012876744382083416
1772025004842432000,2.706431884765625,0.2070978283882141,0.4132491946220398,0.23360379040241241
1772025004852429000,2.716428955078125,0.28546813130378723,1.1299606561660767,0.15454764664173126
1772025004862426000,2.726426025390625,0.2705872058868408,0.9940428137779236,-0.3224356770515442
1772025004872423200,2.736423095703125,0.04341541975736618,0.2964937388896942,-0.907240629196167
1772025004882420000,2.746419921875,-0.5096938610076904,-0.22983023524284363,-1.1927807331085205
1772025004892417300,2.756417236328125,-1.0124409198760986,-0.311618447303772,-1.1912709474563599
1772025004902415000,2.7664150390625,-1.1911286115646362,0.16147588193416595,-1.0402367115020752
1772025004912412200,2.776412109375,-1.0627917051315308,0.6904889941215515,-0.9136960506439209
1772025004922409000,2.786408935546875,-0.8078774809837341,1.0207535028457642,-0.9457456469535828
1772025004932406300,2.79640625,-0.5331496596336365,1.1270197629928589,-1.1124587059020996
1772025004942403000,2.806403076171875,-0.288087397813797,0.756272554397583,-1.4104161262512207
1772025004952400100,2.816400146484375,-0.07527594268321991,0.04018499702215195,-1.6155574321746826
1772025004962397200,2.826397216796875,0.11963309347629547,-0.6848238706588745,-1.504056453704834
1772025004972394200,2.836394287109375,0.28589531779289246,-1.3910632133483887,-1.1090139150619507
1772025004982391000,2.84639111328125,0.38514652848243713,-2.036895751953125,-0.5953623056411743
1772025004992388400,2.856388427734375,0.4151496887207031,-2.5478570461273193,-0.10936454683542252
1772025005002385200,2.86638525390625,0.3841392993927002,-2.7974603176116943,0.20335927605628967
1772025005012382000,2.8763818359375,0.2852018177509308,-2.6657185554504395,0.2221735715866089
1772025005022379300,2.886379150390625,0.16122181713581085,-2.1412291526794434,-0.07969892770051956
1772025005032376000,2.8963759765625,0.06108256056904793,-1.3255187273025513,-0.5877774357795715
1772025005042373000,2.906373046875,0.03512952849268913,-0.3612927496433258,-1.1673320531845093
1772025005052371000,2.916370849609375,0.04563237354159355,0.5903469920158386,-1.652728796005249
1772025005062368300,2.9263681640625,0.060208387672901154,1.3622897863388062,-1.9420239925384521
1772025005072365000,2.936364990234375,0.030947433784604073,1.929648518562317,-1.9682705402374268
1772025005082362000,2.946362060546875,-0.0946272686123848,2.2703070640563965,-1.7238740921020508
1772025005092359200,2.956359130859375,-0.23132584989070892,2.3580195903778076,-1.2939317226409912
1772025005102356200,2.966356201171875,-0.327754944562912,2.0350332260131836,-0.8099898099899292
1772025005112353000,2.97635302734375,-0.32795828580856323,1.4334348440170288,-0.34877967834472656
1772025005122350300,2.986350341796875,-0.26802462339401245,0.776594340801239,0.06124194711446762
1772025005132347100,2.99634716796875,-0.2256430685520172,0.23245128989219666,0.42560911178588867
1772025005142344200,3.00634423828125,-0.23483817279338837,-0.13659971952438354,0.7327890396118164
1772025005152341200,3.01634130859375,-0.2810695767402649,-0.3355109691619873,0.998410701751709
1772025005162338300,3.02633837890625,-0.2748796045780182,-0.3326092064380646,1.233143925666809
1772025005172335000,3.036335205078125,-0.19476531445980072,-0.1253516972064972,1.4659323692321777
1772025005182332200,3.046332275390625,-0.05872253328561783,0.2388496994972229,1.6911933422088623
1772025005192329200,3.0563291015625,0.11893627792596817,0.8410520553588867,1.857935905456543
1772025005202327300,3.066327392578125,0.3081355094909668,1.024752140045166,1.8953278064727783
1772025005212324000,3.076323974609375,0.46462205052375793,1.0952481031417847,1.7581400871276855
1772025005222321200,3.086321044921875,0.5508387088775635,1.2521799802780151,1.5451961755752563
1772025005232318200,3.096318115234375,0.5777966380119324,1.361372709274292,1.3253077268600464
1772025005242315000,3.10631494140625,0.6063361763954163,1.1644330024719238,1.1233501434326172
1772025005252312000,3.11631201171875,0.6217208504676819,0.45407339930534363,0.9071053862571716
1772025005262309000,3.12630908203125,0.5928881168365479,-0.32784295082092285,0.730224072933197
1772025005272306200,3.13630615234375,0.5193338990211487,-0.6480608582496643,0.6085510849952698
1772025005282303000,3.146302978515625,0.4048936069011688,-0.426653116941452,0.48972833156585693
1772025005292300300,3.15630029296875,0.31960850954055786,0.23068898916244507,0.3439771234989166
1772025005302297000,3.166297119140625,0.33637872338294983,1.1079870462417603,0.2729546129703522
1772025005312294100,3.176294189453125,0.39858511090278625,1.411782145500183,0.23786798119544983
1772025005322291200,3.186291259765625,0.2618464529514313,0.5534982681274414,0.13430644571781158
1772025005332288000,3.1962880859375,-0.1840876191854477,-0.44009873270988464,0.16337618231773376
1772025005342285000,3.20628515625,-0.7956934571266174,-0.9684776067733765,0.41177135705947876
1772025005352282000,3.2162822265625,-1.1490873098373413,-0.936493456363678,0.6704429388046265
1772025005362280200,3.2262802734375,-1.1122329235076904,-0.5943246483802795,0.7640429139137268
1772025005372277000,3.236277099609375,-0.8749774098396301,-0.5208279490470886,0.5816912651062012
1772025005382274000,3.246274169921875,-0.64157634973526,-0.5841384530067444,0.28929564356803894
1772025005392271000,3.25627099609375,-0.38080015778541565,-0.6621813774108887,0.06435278803110123
1772025005402268200,3.26626806640625,-0.050216127187013626,-0.940794050693512,-0.15411829948425293
1772025005412265000,3.276264892578125,0.3481837213039398,-1.5009100437164307,-0.2569757103919983
1772025005422262300,3.28626220703125,0.7680160999298096,-2.1584572792053223,-0.05143241211771965
1772025005432259000,3.296259033203125,1.1192125082015991,-2.765667676925659,0.4558486342430115
1772025005442256100,3.306256103515625,1.310575246810913,-3.2579426765441895,1.0455915927886963
1772025005452253200,3.316253173828125,1.3438702821731567,-3.4379069805145264,1.4627798795700073
1772025005462250200,3.326250244140625,1.249412178993225,-3.1743016242980957,1.50606107711792
1772025005472247000,3.3362470703125,1.083831787109375,-2.5389912128448486,1.1469097137451172
1772025005482244400,3.346244384765625,0.9590864181518555,-1.664698839187622,0.5205470323562622
1772025005492241200,3.3562412109375,0.875044584274292,-0.6971667408943176,-0.19129137694835663
1772025005502241500,3.366241455078125,0.7864542603492737,0.2628868818283081,-0.8584915399551392
1772025005512239600,3.376239501953125,0.6478777527809143,1.14315664768219,-1.4093753099441528
1772025005522236700,3.386236572265625,0.5121276378631592,1.7870516777038574,-1.807011365890503
1772025005532233700,3.396233642578125,0.3874465525150299,2.151578426361084,-2.060462474822998
1772025005542230500,3.40623046875,0.27567633986473083,2.2676961421966553,-2.1772842407226562
1772025005552227800,3.416227783203125,0.1978035271167755,2.1953094005584717,-2.1488900184631348
1772025005562224600,3.426224609375,0.17934249341487885,1.992027997970581,-2.019026041030884
1772025005572221700,3.4362216796875,0.10302961617708206,1.6546696424484253,-1.7858151197433472
1772025005582218800,3.44621875,-0.024445518851280212,1.5524908304214478,-1.3821922540664673
1772025005592215600,3.456215576171875,-0.1636393517255783,1.5005815029144287,-0.9563150405883789
1772025005602212600,3.466212646484375,-0.2751286029815674,1.4762529134750366,-0.5537348389625549
1772025005612209700,3.476209716796875,-0.3456993103027344,1.4298853874206543,-0.15236015617847443
1772025005622206700,3.486206787109375,-0.3982466757297516,1.309468150138855,0.19251388311386108
1772025005632203500,3.49620361328125,-0.4762563705444336,1.0889066457748413,0.4320875406265259
1772025005642200800,3.506200927734375,-0.6069148182868958,0.760418713092804,0.598419189453125
1772025005652197600,3.51619775390625,-0.7999756932258606,0.42378929257392883,0.7188421487808228
1772025005662194700,3.526194580078125,-0.9427951574325562,0.15961064398288727,0.8127089738845825
1772025005672192500,3.536192626953125,-0.9491046071052551,-0.09444176405668259,0.8497608304023743
1772025005682189800,3.54618994140625,-0.8744482398033142,-0.4112663269042969,0.8269806504249573
1772025005692186600,3.5561865234375,-0.7338876724243164,-0.7701038122177124,0.849524974822998
1772025005702183700,3.56618359375,-0.6149687170982361,-0.9567645192146301,0.9104719161987305
1772025005712180700,3.5761806640625,-0.5235631465911865,-0.9148116111755371,0.9947246313095093
1772025005722177800,3.586177734375,-0.45715487003326416,-0.6187357306480408,1.1152676343917847
1772025005732174600,3.596174560546875,-0.4087991714477539,-0.13109520077705383,1.2071118354797363
1772025005742171600,3.606171630859375,-0.4427899122238159,0.32947641611099243,1.2640984058380127
1772025005752168700,3.616168701171875,-0.5525984168052673,0.8037238121032715,1.2247439622879028
1772025005762165500,3.62616552734375,-0.49815356731414795,0.8424035906791687,0.9048884510993958
1772025005772162600,3.63616259765625,-0.2742476463317871,0.7466356158256531,0.2891635298728943
1772025005782159600,3.64615966796875,-0.1394197642803192,0.08358282595872879,-0.8172650933265686
1772025005792156700,3.65615673828125,-0.3871177136898041,-1.023842453956604,-2.012563705444336
1772025005802153500,3.666153564453125,-0.9325371384620667,-1.6365561485290527,-2.7816083431243896
1772025005812150800,3.67615087890625,-1.1417311429977417,-1.2391809225082397,-3.056483268737793
1772025005822147600,3.686147705078125,-0.8802915811538696,-0.15342745184898376,-2.882715940475464
1772025005832145700,3.696145751953125,-0.5205548405647278,0.7802752256393433,-2.45371675491333
1772025005842142500,3.706142578125,-0.3820662200450897,1.239593267440796,-2.105245590209961
1772025005852139800,3.716139892578125,-0.3854796290397644,1.1265877485275269,-1.9248085021972656
1772025005862136600,3.726136474609375,-0.3824377655982971,0.30669736862182617,-1.9505248069763184
1772025005872133600,3.736133544921875,-0.37926366925239563,-0.8229612112045288,-2.0312037467956543
1772025005882130700,3.746130615234375,-0.39848795533180237,-1.8657333850860596,-1.9458004236221313
1772025005892127700,3.756127685546875,-0.44587647914886475,-2.6793582439422607,-1.6462125778198242
1772025005902124500,3.76612451171875,-0.5054942965507507,-3.08738374710083,-1.2933804988861084
1772025005912121600,3.77612158203125,-0.5489477515220642,-3.013713836669922,-1.0382574796676636
1772025005922118700,3.78611865234375,-0.5795456171035767,-2.427931785583496,-0.9522200226783752
1772025005932115500,3.796115478515625,-0.5809730291366577,-1.4103184938430786,-0.9925630688667297
1772025005942112800,3.80611279296875,-0.5283125042915344,-0.3411482870578766,-1.1546062231063843
1772025005952109600,3.816109619140625,-0.4028196930885315,0.6438813805580139,-1.4080684185028076
1772025005962106600,3.826106689453125,-0.21038182079792023,1.5119825601577759,-1.6141046285629272
1772025005972103700,3.836103759765625,-0.03409746289253235,2.1219067573547363,-1.6534422636032104
1772025005982100700,3.846100830078125,0.05345289036631584,2.305806875228882,-1.5025925636291504
1772025005992098600,3.8560986328125,0.035456590354442596,2.0058484077453613,-1.2050551176071167
1772025006002095600,3.866095703125,-0.040913812816143036,1.3479893207550049,-0.8263205885887146
1772025006012092700,3.8760927734375,-0.13823333382606506,0.5686797499656677,-0.4148114025592804
1772025006022089700,3.88608984375,-0.20700973272323608,-0.1088225245475769,0.04260488599538803
1772025006032086500,3.89608642578125,-0.20887207984924316,-0.5818200707435608,0.522534191608429
1772025006042083800,3.906083740234375,-0.1521235853433609,-0.8506355285644531,0.9573714137077332
1772025006052080600,3.91608056640625,-0.08306808769702911,-0.9687552452087402,1.3290951251983643
1772025006062077400,3.926077392578125,-0.04092288389801979,-0.9860016107559204,1.6547783613204956
1772025006072074800,3.93607470703125,-0.03323248401284218,-0.9346362948417664,1.9428701400756836
1772025006082071600,3.946071533203125,-0.055468544363975525,-0.8034684658050537,2.1756927967071533
1772025006092068600,3.956068603515625,-0.11577382683753967,-0.6661815643310547,2.347841501235962
1772025006102065700,3.966065673828125,-0.25327444076538086,-0.513276994228363,2.400012493133545
1772025006112062700,3.976062744140625,-0.4143783748149872,-0.4652141332626343,2.3671140670776367
1772025006122059500,3.9860595703125,-0.5523163080215454,-0.5661922097206116,2.2683370113372803
1772025006132056800,3.996056884765625,-0.6523379683494568,-0.7416914701461792,2.103628158569336
1772025006142053600,4.0060537109375,-0.7034208178520203,-0.855879008769989,1.8716802597045898
1772025006152051700,4.0160517578125,-0.6981010437011719,-0.8102766275405884,1.598416805267334
1772025006162048500,4.026048583984375,-0.6034594774246216,-0.60319983959198,1.289081335067749
1772025006172045800,4.0360458984375,-0.469608873128891,-0.09458667039871216,0.980193555355072
1772025006182042600,4.046042724609375,-0.14190688729286194,0.8429341912269592,0.7511824369430542
1772025006192039700,4.056039794921875,0.36256876587867737,1.634484887123108,0.6641480922698975
1772025006202036700,4.06603662109375,0.8230006098747253,1.5081501007080078,0.40157899260520935
1772025006212033800,4.07603369140625,1.0751699209213257,1.0130791664123535,0.005280402489006519
1772025006222030600,4.086030517578125,1.0921156406402588,1.067482829093933,-0.1057148203253746
1772025006232027600,4.096027587890625,0.8862152099609375,1.052907109260559,-0.255437433719635
1772025006242024700,4.106024658203125,0.49390044808387756,0.4620409607887268,-0.4957427382469177
1772025006252021500,4.116021484375,-0.12674379348754883,0.13642561435699463,-0.5858606696128845
1772025006262018600,4.1260185546875,-0.7382066249847412,0.3851874768733978,-0.5660260319709778
1772025006272015600,4.136015625,-1.083950161933899,0.9224587678909302,-0.4483659565448761
1772025006282012700,4.1460126953125,-1.1105157136917114,1.2064752578735352,-0.2949947714805603
1772025006292009500,4.156009521484375,-0.9628646373748779,1.2522042989730835,-0.33052727580070496
1772025006302007600,4.166007568359375,-0.7542025446891785,1.1018403768539429,-0.6097189784049988
1772025006312004600,4.176004638671875,-0.5278989672660828,0.6531370282173157,-1.133539080619812
1772025006322001700,4.186001708984375,-0.3153398036956787,0.08347038179636002,-1.6798125505447388
1772025006331998500,4.19599853515625,-0.13247397541999817,-0.488695353269577,-1.8580652475357056
1772025006341995800,4.205995849609375,0.019130457192659378,-1.003555417060852,-1.6357485055923462
1772025006351992600,4.21599267578125,0.12029090523719788,-1.344533085823059,-1.254449486732483
1772025006361989600,4.22598974609375,0.16843925416469574,-1.4072339534759521,-0.9225985407829285
1772025006371986700,4.235986572265625,0.2469017058610916,-1.1649564504623413,-0.7343955636024475
1772025006381983700,4.245983642578125,0.38079744577407837,-0.6198694109916687,-0.684445858001709
1772025006391980500,4.25598046875,0.522685170173645,0.1400500237941742,-0.7352670431137085
1772025006401977600,4.2659775390625,0.6470960974693298,0.915662944316864,-0.8258078694343567
1772025006411974700,4.275974609375,0.742220401763916,1.5616976022720337,-0.8707451820373535
1772025006421971500,4.285971435546875,0.7941514849662781,1.9142146110534668,-0.8222604990005493
1772025006431968800,4.29596875,0.7672244310379028,1.9274101257324219,-0.6664950251579285
1772025006441965600,4.305965576171875,0.6838946342468262,1.6322085857391357,-0.4193752706050873
1772025006451962600,4.315962646484375,0.5819787383079529,1.1558372974395752,-0.10926233977079391
1772025006461960400,4.32596044921875,0.4829302132129669,0.6418964266777039,0.2755178213119507
1772025006471957800,4.335957763671875,0.421392023563385,0.19508101046085358,0.6595051884651184
1772025006481954600,4.34595458984375,0.3858281672000885,-0.16887377202510834,0.9727595448493958
1772025006491951600,4.35595166015625,0.37329626083374023,-0.38277459144592285,1.2397936582565308
1772025006501945900,4.36594580078125,0.3249188959598541,-0.4767828583717346,1.4678092002868652
1772025006511942700,4.375942626953125,0.2602002024650574,-0.47994545102119446,1.6506407260894775
1772025006521939700,4.385939697265625,0.2471826672554016,-0.41186946630477905,1.7690538167953491
1772025006531936800,4.395936767578125,0.2819560766220093,-0.2750566601753235,1.7640401124954224
1772025006541933800,4.405933837890625,0.34602028131484985,-0.09691141545772552,1.6893560886383057
1772025006551930600,4.4159306640625,0.4384523630142212,0.11403171718120575,1.5391610860824585
1772025006561927700,4.425927734375,0.5360151529312134,0.28144896030426025,1.356420874595642
1772025006571924700,4.4359248046875,0.6205610632896423,0.32878831028938293,1.1666345596313477
1772025006581921500,4.445921630859375,0.7277200222015381,0.27340734004974365,0.9787898659706116
1772025006591918600,4.455918701171875,0.8264070153236389,0.22151809930801392,0.8289912939071655
1772025006601915600,4.46591552734375,0.855839729309082,0.2621251940727234,0.7532209157943726
1772025006611912700,4.47591259765625,0.8023983836174011,0.43759894371032715,0.6960955262184143
1772025006621909500,4.485909423828125,0.6965236067771912,0.6217477321624756,0.612139880657196
1772025006631907600,4.495907470703125,0.6237282156944275,0.7383705973625183,0.46564218401908875
1772025006641904600,4.505904541015625,0.6106094717979431,0.763048529624939,0.2106809914112091
1772025006651901700,4.515901611328125,0.6693204641342163,0.6030678153038025,-0.05867193266749382
1772025006661898500,4.5258984375,0.7185570001602173,0.48749545216560364,-0.2827407121658325
1772025006671895800,4.535895751953125,0.6165516376495361,0.9496394395828247,-0.38551604747772217
1772025006681892600,4.545892578125,0.4415295124053955,1.258269190788269,-0.4725622534751892
1772025006691889700,4.5558896484375,0.1809321492910385,0.8873607516288757,-0.7011228203773499
1772025006701886700,4.56588671875,-0.27050963044166565,0.4697437882423401,-0.8999853134155273
1772025006711883800,4.5758837890625,-0.9229434728622437,0.22929586470127106,-1.0285909175872803
1772025006721880600,4.585880615234375,-1.4124805927276611,0.03745051845908165,-1.085466742515564
1772025006731877600,4.595877685546875,-1.5864750146865845,0.24322952330112457,-1.014419436454773
1772025006741874700,4.605874755859375,-1.5426764488220215,0.46813133358955383,-0.9064032435417175
1772025006751871500,4.61587158203125,-1.4115023612976074,0.5618038773536682,-0.8936262130737305
1772025006761868800,4.625868896484375,-1.2602607011795044,0.43626463413238525,-1.0356756448745728
1772025006771865600,4.635865478515625,-1.1293760538101196,-0.15837480127811432,-1.3492623567581177
1772025006781862700,4.645862548828125,-0.9908565878868103,-1.0265010595321655,-1.6400738954544067
1772025006791860500,4.655860595703125,-0.7869651317596436,-1.8968596458435059,-1.6334847211837769
1772025006801857800,4.66585791015625,-0.5742174386978149,-2.4959230422973633,-1.2774430513381958
1772025006811854600,4.6758544921875,-0.39848247170448303,-2.6763579845428467,-0.7927206158638
1772025006821851600,4.6858515625,-0.27829667925834656,-2.4972927570343018,-0.37059226632118225
1772025006831848700,4.6958486328125,-0.2681119740009308,-2.0029473304748535,-0.19349952042102814
1772025006841845800,4.705845703125,-0.3405422270298004,-1.2924036979675293,-0.3219427168369293
1772025006851842600,4.715842529296875,-0.41819679737091064,-0.47916463017463684,-0.6577058434486389
1772025006861840000,4.72583984375,-0.46482154726982117,0.309975802898407,-1.029815435409546
1772025006871836700,4.735836669921875,-0.5010778307914734,0.8811882138252258,-1.2869518995285034
1772025006881833700,4.745833740234375,-0.5365407466888428,1.1399955749511719,-1.3379844427108765
1772025006891830800,4.755830810546875,-0.5503593683242798,1.1527975797653198,-1.1944668292999268
1772025006901827600,4.76582763671875,-0.48015686869621277,1.0004024505615234,-0.93913733959198
1772025006911824600,4.77582470703125,-0.2886642515659332,0.8356693387031555,-0.5797232985496521
1772025006921821700,4.78582177734375,0.017601408064365387,0.648687481880188,-0.1565891057252884
1772025006931818800,4.79581884765625,0.3118966817855835,0.41064828634262085,0.3197464048862457
1772025006941815600,4.805815673828125,0.4805932939052582,0.08871286362409592,0.8375226855278015
1772025006951813600,4.815813720703125,0.5158263444900513,-0.28060710430145264,1.3131319284439087
1772025006961810700,4.825810791015625,0.45010167360305786,-0.5674900412559509,1.7162830829620361
1772025006971807700,4.835807861328125,0.34173259139060974,-0.7254033088684082,2.025808095932007
1772025006981804500,4.845804443359375,0.24617919325828552,-0.6790621876716614,2.2189791202545166
1772025006991801900,4.8558017578125,0.18968553841114044,-0.491308331489563,2.295135736465454
1772025007001798700,4.865798583984375,0.1549302339553833,-0.2475081831216812,2.2768356800079346
1772025007011795700,4.875795654296875,0.1786760538816452,0.007446391507983208,2.1975035667419434
1772025007021792800,4.885792724609375,0.24089281260967255,0.231308251619339,2.0711569786071777
1772025007031789800,4.895789794921875,0.26842549443244934,0.2812821865081787,1.8612020015716553
1772025007041786600,4.90578662109375,0.27264928817749023,0.17627935111522675,1.5594046115875244
1772025007051783700,4.91578369140625,0.2745811343193054,0.03392062336206436,1.1687623262405396
1772025007061780700,4.92578076171875,0.26998719573020935,-0.017522862181067467,0.7283178567886353
1772025007071777500,4.935777587890625,0.27868613600730896,-0.04990989714860916,0.22551798820495605
1772025007081774600,4.945774658203125,0.2908799648284912,-0.1998157650232315,-0.22735388576984406
1772025007091771600,4.955771728515625,0.3928266763687134,0.1952129602432251,-0.2505539655685425
1772025007101768700,4.965768798828125,0.4778720736503601,0.723555326461792,-0.1064138188958168
1772025007111766500,4.9757666015625,0.5013530254364014,0.9199431538581848,0.19290956854820251
1772025007121763600,4.985763671875,0.44406577944755554,1.0125545263290405,0.5880107879638672
1772025007131760600,4.9957607421875,0.36724451184272766,0.6217082142829895,0.690767228603363
1772025007141757700,5.0057578125,0.1492823362350464,-0.4577164947986603,0.2809414267539978
1772025007151754500,5.01575439453125,-0.31966742873191833,-1.2802990674972534,-0.37791380286216736
1772025007161751800,5.025751708984375,-1.0003641843795776,-1.4312721490859985,-1.0221625566482544
1772025007171748600,5.03574853515625,-1.49676513671875,-1.189613938331604,-1.4274057149887085
1772025007181745700,5.04574560546875,-1.4887770414352417,-0.6948108673095703,-1.5067164897918701
1772025007191742700,5.05574267578125,-1.201615333557129,0.18085919320583344,-1.117397665977478
1772025007201739800,5.06573974609375,-0.9302668571472168,0.7341642379760742,-0.7063760757446289
1772025007211736600,5.075736572265625,-0.8647580146789551,0.5197228789329529,-0.6229861974716187
1772025007221733600,5.085733642578125,-0.9977174401283264,-0.399507075548172,-0.8498382568359375
1772025007231730700,5.095730712890625,-1.1143174171447754,-1.7839863300323486,-1.06403648853302
1772025007241727500,5.1057275390625,-1.0712900161743164,-3.183967351913452,-0.856482982635498
1772025007251724800,5.115724853515625,-0.949226438999176,-4.275450706481934,-0.22805915772914886
1772025007261721600,5.1257216796875,-0.8429436683654785,-4.628454208374023,0.48949897289276123
1772025007271719700,5.1357197265625,-0.7297048568725586,-4.094342231750488,0.8766306638717651
1772025007281716500,5.145716552734375,-0.48952770233154297,-2.893720865249634,0.794750988483429
1772025007291713800,5.1557138671875,-0.10113176703453064,-1.3684089183807373,0.3291700780391693
1772025007301710600,5.165710693359375,0.3850250840187073,0.1279067099094391,-0.2988530993461609
1772025007311707600,5.175707763671875,0.7849844694137573,1.3300472497940063,-0.836198091506958
1772025007321704700,5.18570458984375,0.9276143312454224,2.1135730743408203,-1.1791476011276245
1772025007331701800,5.19570166015625,0.8464111089706421,2.3869643211364746,-1.2963358163833618
1772025007341698600,5.205698486328125,0.6677609086036682,2.0900633335113525,-1.1927257776260376
1772025007351696000,5.21569580078125,0.49800944328308105,1.4567207098007202,-0.950588047504425
1772025007361692700,5.225692626953125,0.3574800193309784,0.8291648626327515,-0.5857632160186768
1772025007371689700,5.235689697265625,0.24969296157360077,0.30014511942863464,-0.18312524259090424
1772025007381686800,5.245686767578125,0.17794474959373474,-0.038955703377723694,0.21802617609500885
1772025007391683600,5.25568359375,0.14670613408088684,-0.1478072553873062,0.6019123196601868
1772025007401680600,5.2656806640625,0.20036031305789948,-0.048378944396972656,0.9567577838897705
1772025007411677700,5.275677734375,0.3241661489009857,0.19277173280715942,1.2256548404693604
1772025007421674800,5.2856748046875,0.43469610810279846,0.4256156384944916,1.4137240648269653
1772025007431672600,5.295672607421875,0.4982837438583374,0.5751556754112244,1.525425910949707
1772025007441669600,5.305669677734375,0.5030933618545532,0.6101182103157043,1.5766030550003052
1772025007451666700,5.315666748046875,0.4608880281448364,0.5755929350852966,1.5764135122299194
1772025007461663700,5.325663818359375,0.38901808857917786,0.5202484726905823,1.548706293106079
1772025007471658800,5.33565869140625,0.3178507089614868,0.500852108001709,1.5338300466537476
1772025007481655600,5.345655517578125,0.2752131223678589,0.5079264640808105,1.507060170173645
1772025007491652600,5.355652587890625,0.2941104769706726,0.5266991257667542,1.4875154495239258
1772025007501653000,5.365653076171875,0.33386802673339844,0.5455601811408997,1.4617279767990112
1772025007511649800,5.37564990234375,0.43056434392929077,0.5387018918991089,1.4579010009765625
1772025007521647000,5.385647216796875,0.5089395642280579,0.5727285742759705,1.4544870853424072
1772025007531644000,5.395643798828125,0.516467273235321,0.6821321845054626,1.507102370262146
1772025007541641000,5.405640869140625,0.4266372621059418,0.7233707308769226,1.5489088296890259
1772025007551637800,5.4156376953125,0.2651398181915283,0.5716129541397095,1.5048493146896362
1772025007561634800,5.425634765625,0.1414804756641388,0.25584277510643005,1.4038060903549194
1772025007571633000,5.4356328125,0.10737963020801544,-0.273495614528656,1.2258579730987549
1772025007581630000,5.4456298828125,0.18190525472164154,-0.8944055438041687,0.9787318110466003
1772025007591627000,5.455626953125,0.2857794761657715,-1.3225380182266235,0.618925154209137
1772025007601623800,5.465623779296875,0.1440606713294983,-1.5564295053482056,0.0458049401640892
1772025007611620900,5.475620849609375,-0.30291229486465454,-1.279484748840332,-0.519972562789917
1772025007621618000,5.485617919921875,-0.8275057673454285,-0.5235692858695984,-1.0027885437011719
1772025007631615000,5.495614990234375,-1.0849816799163818,0.6840630173683167,-1.2201155424118042
1772025007641611800,5.50561181640625,-1.0246416330337524,1.6486471891403198,-1.1379802227020264
1772025007651608800,5.51560888671875,-0.8843762278556824,1.9079679250717163,-1.0479164123535156
1772025007661606000,5.52560595703125,-0.8035730123519897,1.6252299547195435,-1.0667608976364136
1772025007671603000,5.53560302734375,-0.7084923982620239,0.6018918752670288,-1.2782026529312134
1772025007681599700,5.545599853515625,-0.5271164774894714,-0.9336183071136475,-1.689333438873291
1772025007691597000,5.55559716796875,-0.2626549005508423,-2.2863919734954834,-2.011242151260376
1772025007701593900,5.56559375,-0.002297602826729417,-3.23665714263916,-1.9478081464767456
1772025007711591000,5.5755908203125,0.14160005748271942,-3.481051445007324,-1.5487490892410278
1772025007721588000,5.585587890625,0.11992858350276947,-3.0779941082000732,-1.0856560468673706
1772025007731586000,5.5955859375,0.027636341750621796,-2.2544026374816895,-0.7317106127738953
1772025007741582800,5.605582763671875,-0.029514826834201813,-1.2005068063735962,-0.5622475743293762
1772025007751580000,5.615579833984375,-0.04618329554796219,-0.15870210528373718,-0.6014308333396912
1772025007761577000,5.625576904296875,-0.042972587049007416,0.7408918738365173,-0.7876870036125183
1772025007771573800,5.63557373046875,0.02091144397854805,1.3808057308197021,-0.9972348213195801
1772025007781570800,5.64557080078125,0.1410817950963974,1.7669129371643066,-1.1420625448226929
1772025007791568000,5.65556787109375,0.2669295072555542,1.8654756546020508,-1.1641911268234253
1772025007801565000,5.66556494140625,0.38300684094429016,1.6196767091751099,-1.0697442293167114
1772025007811561700,5.675561767578125,0.4718630611896515,1.1401180028915405,-0.9040454030036926
1772025007821559000,5.68555908203125,0.5277697443962097,0.6069043874740601,-0.6593512296676636
1772025007831555800,5.695555908203125,0.5534250140190125,0.13880470395088196,-0.36047571897506714
1772025007841553000,5.705552978515625,0.5297372937202454,-0.21029150485992432,-0.031604886054992676
1772025007851550000,5.715550048828125,0.45369815826416016,-0.3829200863838196,0.3419439196586609
1772025007861547000,5.725547119140625,0.36115118861198425,-0.3557688891887665,0.7206329107284546
1772025007871543800,5.735543701171875,0.26146283745765686,-0.2129957675933838,1.0737992525100708
1772025007881540900,5.745540771484375,0.13884343206882477,-0.0325346440076828,1.362141489982605
1772025007891539000,5.7555390625,0.00788874365389347,0.15113908052444458,1.5758057832717896
1772025007901536000,5.765535888671875,-0.12354917079210281,0.24732154607772827,1.6886337995529175
1772025007911532800,5.77553271484375,-0.24274948239326477,0.25856974720954895,1.6754260063171387
1772025007921529900,5.78552978515625,-0.34071439504623413,0.25504106283187866,1.5734304189682007
1772025007931527000,5.79552685546875,-0.40082740783691406,0.263802707195282,1.419289469718933
1772025007941523700,5.805523681640625,-0.3854343295097351,0.24449533224105835,1.2168195247650146
1772025007951521000,5.81552099609375,-0.313077449798584,0.2018449306488037,0.9524274468421936
1772025007961517800,5.825517822265625,-0.23502498865127563,0.12942931056022644,0.6428539156913757
1772025007971515000,5.835514892578125,-0.18762603402137756,0.13629691302776337,0.3351675868034363
1772025007981512000,5.845511962890625,-0.1536494344472885,0.22081978619098663,-0.028755247592926025
1772025007991509000,5.855509033203125,-0.17442941665649414,0.29507312178611755,-0.3431299030780792
1772025008001505800,5.865505859375,-0.13126064836978912,0.22396725416183472,-0.4722902774810791
1772025008011503000,5.875503173828125,0.04987093061208725,0.06784047186374664,-0.41655611991882324
1772025008021500000,5.8855,0.32548093795776367,-0.021098988130688667,-0.11178955435752869
1772025008031497000,5.8954970703125,0.6092708706855774,0.06833910942077637,0.27571558952331543
1772025008041494000,5.905493896484375,0.7778803706169128,-0.23467722535133362,0.37642860412597656
1772025008051492000,5.9154921875,0.6654676795005798,-0.3887436091899872,0.06029360368847847
1772025008061489000,5.925489013671875,0.12774455547332764,0.051936838775873184,-0.810427188873291
1772025008071486000,5.93548583984375,-0.5290333032608032,0.5418139696121216,-2.0607473850250244
1772025008081483000,5.94548291015625,-0.921302855014801,1.00962495803833,-3.080669641494751
1772025008091479800,5.955479736328125,-0.9012978076934814,1.8301923274993896,-3.5493156909942627
1772025008101476900,5.965476806640625,-0.5670204758644104,2.64808988571167,-3.627225160598755
1772025008111474000,5.975473876953125,-0.2510051429271698,3.1844537258148193,-3.5724728107452393
1772025008121472000,5.985471923828125,-0.20903931558132172,3.166823625564575,-3.54082989692688
1772025008131468800,5.99546875,-0.5695828199386597,2.3683347702026367,-3.54135799407959
1772025008141465900,6.0054658203125,-1.2034090757369995,1.0511040687561035,-3.3643922805786133
1772025008151463000,6.015462890625,-1.700627326965332,-0.38674256205558777,-2.7556228637695312
1772025008161460000,6.0254599609375,-1.8041599988937378,-1.5495524406433105,-1.6953706741333008
1772025008171456800,6.035456787109375,-1.695129156112671,-2.274472236633301,-0.40821021795272827
1772025008181453800,6.045453857421875,-1.5564594268798828,-2.5840582847595215,0.7850701808929443
1772025008191451000,6.055450927734375,-1.365106225013733,-2.5584700107574463,1.7286006212234497
1772025008201448000,6.065447998046875,-1.0415960550308228,-2.3167061805725098,2.3311805725097656
1772025008211444700,6.07544482421875,-0.6367440223693848,-1.946463942527771,2.4625625610351562
1772025008221442000,6.085442138671875,-0.22126802802085876,-1.4178518056869507,2.1685476303100586
1772025008231438800,6.09543896484375,0.16000491380691528,-0.7467031478881836,1.66301691532135
1772025008241436000,6.105435791015625,0.49556824564933777,-0.09135352820158005,1.157341718673706
1772025008251433000,6.115432861328125,0.7290372252464294,0.3382691740989685,0.7624495625495911
1772025008261429800,6.1254296875,0.8267600536346436,0.4833592474460602,0.48262855410575867
1772025008271426800,6.1354267578125,0.8130877614021301,0.4795118272304535,0.3641666769981384
1772025008281425000,6.1454248046875,0.7400662899017334,0.4499560594558716,0.4220917522907257
1772025008291422000,6.155421875,0.6100703477859497,0.4219202399253845,0.6634228825569153
1772025008301418800,6.165418701171875,0.4165347218513489,0.39343827962875366,1.0063687562942505
1772025008311415800,6.175415771484375,0.15731298923492432,0.38660523295402527,1.3755583763122559
1772025008321412900,6.185412841796875,-0.16858921945095062,0.3749179542064667,1.6826823949813843
1772025008331410000,6.195409912109375,-0.48330003023147583,0.3245490491390228,1.9172006845474243
1772025008341406700,6.20540673828125,-0.7437734007835388,0.26491206884384155,2.0946855545043945
1772025008351404000,6.215404052734375,-0.9374682903289795,0.26402199268341064,2.2140612602233887
1772025008361400800,6.22540087890625,-1.0804616212844849,0.2984587848186493,2.3295228481292725
1772025008371398000,6.23539794921875,-1.268715500831604,0.4990637004375458,2.5016050338745117
1772025008381395000,6.24539501953125,-1.1608773469924927,0.6718668937683105,2.639763116836548
1772025008391392000,6.25539208984375,-0.6814829111099243,0.6695671677589417,2.709726333618164
1772025008401388800,6.265388916015625,0.05363211780786514,0.5550991296768188,2.6809005737304688
1772025008411385900,6.2753857421875,0.6868293881416321,0.44396936893463135,2.6363558769226074
1772025008421383000,6.2853828125,0.9652447700500488,0.5237736701965332,2.644981622695923
1772025008431379700,6.295379638671875,0.8985752463340759,0.7832440733909607,2.58577561378479
1772025008441377800,6.305377685546875,0.6653012633323669,1.0763095617294312,2.332780361175537
1772025008451375000,6.315375,0.5842866897583008,1.1812219619750977,1.9730818271636963
1772025008461372000,6.325371826171875,0.7865902185440063,1.0912754535675049,1.488109827041626
1772025008471368700,6.33536865234375,1.0489445924758911,0.7909943461418152,0.9491376280784607
1772025008481366000,6.345365966796875,1.0785751342773438,0.28193244338035583,0.3991280496120453
1772025008491362800,6.35536279296875,0.6341487765312195,-0.3338826596736908,-0.06584004312753677
1772025008501356000,6.36535595703125,-0.19471006095409393,-1.2802760601043701,-0.5976961851119995
1772025008511353300,6.375353271484375,-0.8898211717605591,-1.647156000137329,-1.0496811866760254
1772025008521350100,6.38535009765625,-1.0734431743621826,-0.7105516195297241,-1.3780990839004517
1772025008531347200,6.39534716796875,-0.8000840544700623,0.6352136731147766,-1.6244922876358032
1772025008541344300,6.40534423828125,-0.5645700693130493,1.4721133708953857,-1.6848139762878418
1772025008551341300,6.41534130859375,-0.6727741956710815,1.60111403465271,-1.6231647729873657
1772025008561338000,6.425338134765625,-0.9138936400413513,1.1422338485717773,-1.7101902961730957
1772025008571335200,6.435335205078125,-0.9655956029891968,0.12373694032430649,-2.0916688442230225
1772025008581332200,6.445332275390625,-0.8109655380249023,-1.088680624961853,-2.5997798442840576
1772025008591329000,6.4553291015625,-0.5682381391525269,-2.1182847023010254,-3.0101757049560547
1772025008601326300,6.465326416015625,-0.38285574316978455,-2.8063132762908936,-3.262044668197632
1772025008611324200,6.47532421875,-0.3579983115196228,-3.1120259761810303,-3.51434063911438
1772025008621321200,6.4853212890625,-0.4086655080318451,-3.0729682445526123,-3.8778576850891113
1772025008631318000,6.495318115234375,-0.45793700218200684,-2.1965887546539307,-3.9883177280426025
1772025008641315300,6.5053154296875,-0.492623895406723,-0.6643059849739075,-3.6267552375793457
1772025008651312000,6.51531201171875,-0.5226919054985046,0.6698765754699707,-3.105649709701538
1772025008661309200,6.52530908203125,-0.6126673221588135,1.5408806800842285,-2.431905746459961
1772025008671306200,6.53530615234375,-0.7887935042381287,1.9185150861740112,-1.661116600036621
1772025008681303300,6.54530322265625,-0.9901439547538757,1.8743350505828857,-0.8945550322532654
1772025008691300000,6.555300048828125,-1.130798578262329,1.4461145401000977,-0.13800987601280212
1772025008701297400,6.56529736328125,-1.108549952507019,0.759245753288269,0.5790686011314392
1772025008711294200,6.575294189453125,-0.9390419721603394,0.0035141678526997566,1.1629788875579834
1772025008721291000,6.585291015625,-0.6784809827804565,-0.5953545570373535,1.5701956748962402
1772025008731288300,6.595288330078125,-0.3712176978588104,-0.8561109304428101,1.8305087089538574
1772025008741285000,6.60528515625,-0.03207425773143768,-0.7966707944869995,2.02055025100708
1772025008751282200,6.6152822265625,0.2949817478656769,-0.5495742559432983,2.115849494934082
1772025008761279200,6.625279296875,0.5423731803894043,-0.1869255155324936,2.1355197429656982
1772025008771277300,6.63527734375,0.6338371634483337,0.2635330855846405,2.113213062286377
1772025008781274000,6.645274169921875,0.6042696833610535,0.7132371068000793,2.06986927986145
1772025008791271200,6.655271240234375,0.5020286440849304,1.0247552394866943,2.018174648284912
1772025008801268200,6.665268310546875,0.40582090616226196,1.1848695278167725,1.9671519994735718
1772025008811265300,6.675265380859375,0.39174893498420715,1.2617161273956299,1.934736967086792
1772025008821262000,6.685261962890625,0.46033385396003723,1.2147305011749268,1.8856903314590454
1772025008831259100,6.695259033203125,0.6018844246864319,1.0809351205825806,1.7982584238052368
1772025008841256200,6.705256103515625,0.7634389996528625,0.8982282280921936,1.7027825117111206
1772025008851253200,6.715253173828125,0.8761276006698608,0.6990911960601807,1.6194074153900146
1772025008861250000,6.72525,0.9011850357055664,0.4515794515609741,1.5233101844787598
1772025008871247400,6.735247314453125,0.8344050645828247,0.25972887873649597,1.4344360828399658
1772025008881244200,6.745244140625,0.6645419597625732,0.2754348814487457,1.3140678405761719
1772025008891241000,6.755240966796875,0.4846763014793396,0.4374498128890991,1.152787446975708
1772025008901238300,6.76523828125,0.38533666729927063,0.6870774626731873,0.9835553765296936
1772025008911235000,6.775235107421875,0.4150386452674866,0.9722530245780945,0.8639976382255554
1772025008921232100,6.785232177734375,0.5411222577095032,1.221693515777588,0.9047427177429199
1772025008931229200,6.795229248046875,0.7545853853225708,1.0734302997589111,1.0685551166534424
1772025008941227300,6.805227294921875,0.8401088118553162,0.34629544615745544,1.0624817609786987
1772025008951224000,6.81522412109375,0.5667157769203186,-0.707920491695404,0.7285435795783997
1772025008961221000,6.82522119140625,-0.08998589962720871,-1.4174731969833374,0.16260267794132233
1772025008971218200,6.83521826171875,-0.7581060528755188,-1.4493694305419922,-0.3590623140335083
1772025008981215200,6.84521533203125,-0.9699532985687256,-0.9383453130722046,-0.6726804375648499
1772025008991212000,6.8552119140625,-0.8537927269935608,-0.37002110481262207,-0.7955356240272522
1772025009001209300,6.865209228515625,-0.7079958319664001,-0.15297266840934753,-0.87423175573349
1772025009011206100,6.8752060546875,-0.5657020211219788,-0.12241216003894806,-1.023146152496338
1772025009021203200,6.885203125,-0.3216829001903534,-0.4904431700706482,-1.4047026634216309
1772025009031200300,6.8952001953125,0.04314538836479187,-1.2513172626495361,-1.9735944271087646
1772025009041197000,6.905197021484375,0.44418975710868835,-1.8983807563781738,-2.3640408515930176
1772025009051194000,6.915194091796875,0.7349662184715271,-2.2862184047698975,-2.293910264968872
1772025009061191200,6.925191162109375,0.8114002346992493,-2.333319902420044,-1.8650579452514648
1772025009071188200,6.935188232421875,0.6451980471611023,-1.9715571403503418,-1.4575430154800415
1772025009081185000,6.94518505859375,0.3258933424949646,-1.1590144634246826,-1.227908730506897
1772025009091182300,6.955182373046875,0.03771986439824104,-0.15883751213550568,-1.2295928001403809
1772025009101180200,6.96518017578125,-0.1455434262752533,0.8204979300498962,-1.4415868520736694
1772025009111177200,6.97517724609375,-0.24558240175247192,1.5543065071105957,-1.7422434091567993
1772025009121174000,6.985174072265625,-0.2479427605867386,1.8433852195739746,-1.9782012701034546
1772025009131171300,6.99517138671875,-0.19838480651378632,1.7350794076919556,-2.0353493690490723
1772025009141168000,7.005168212890625,-0.1154683530330658,1.2939040660858154,-1.8406498432159424
1772025009151165200,7.015165283203125,0.032165996730327606,0.6885095834732056,-1.4537705183029175
1772025009161162200,7.025162353515625,0.20094968378543854,0.16885310411453247,-0.933560311794281
1772025009171159300,7.0351591796875,0.3105274438858032,-0.16655488312244415,-0.3906559944152832
1772025009181156000,7.045156005859375,0.3237561583518982,-0.3326128125190735,0.07987743616104126
1772025009191153400,7.0551533203125,0.2768761217594147,-0.385015070438385,0.46098488569259644
1772025009201150200,7.065150146484375,0.23495610058307648,-0.36351272463798523,0.760704517364502
1772025009211147000,7.07514697265625,0.2275381237268448,-0.21221520006656647,0.9718738794326782
1772025009221144300,7.085144287109375,0.24066990613937378,0.017629187554121017,1.1264243125915527
1772025009231141000,7.09514111328125,0.25346627831459045,0.22373230755329132,1.2531375885009766
1772025009241138200,7.10513818359375,0.2669314742088318,0.3852122724056244,1.3509594202041626
1772025009251135200,7.11513525390625,0.25161856412887573,0.48045048117637634,1.3681137561798096
1772025009261132300,7.12513232421875,0.22179196774959564,0.5004454851150513,1.320682406425476
1772025009271130000,7.135130126953125,0.20405849814414978,0.5166764259338379,1.2518703937530518
1772025009281127200,7.145127197265625,0.199895441532135,0.541246235370636,1.1761143207550049
1772025009291124200,7.155124267578125,0.23958800733089447,0.544396162033081,1.1066157817840576
1772025009301121300,7.165121337890625,0.34615015983581543,0.5701367259025574,1.059609055519104
1772025009311118000,7.1751181640625,0.4014677107334137,0.6607342958450317,1.051633596420288
1772025009321115100,7.185115234375,0.3637789189815521,0.6773447394371033,1.0516597032546997
1772025009331112200,7.1951123046875,0.30666491389274597,0.6231268644332886,1.0066776275634766
1772025009341109200,7.205109130859375,0.27416181564331055,0.5281801223754883,0.9099047780036926
1772025009351106000,7.21510595703125,0.3254816234111786,0.3173319697380066,0.8447708487510681
1772025009361103400,7.225103271484375,0.42816057801246643,0.07841234654188156,0.8671730756759644
1772025009371100200,7.23510009765625,0.48905149102211,-0.08787985891103745,1.0269441604614258
1772025009381097000,7.245096923828125,0.5272377729415894,-0.3499775230884552,1.2334332466125488
1772025009391094300,7.25509423828125,0.57292640209198,-0.7577745914459229,1.2706278562545776
1772025009401091000,7.265091064453125,0.5155875086784363,-1.3786962032318115,0.8778122067451477
1772025009411088100,7.275088134765625,0.21734049916267395,-1.9557324647903442,0.07745994627475739
1772025009421085200,7.285085205078125,-0.28680869936943054,-1.7128492593765259,-0.7388338446617126
1772025009431083300,7.295083251953125,-0.7161047458648682,-0.7879279851913452,-1.355576515197754
1772025009441080000,7.305080078125,-0.8128758072853088,0.3482034504413605,-1.6906938552856445
1772025009451077000,7.3150771484375,-0.7758561372756958,1.024322748184204,-1.8194011449813843
1772025009461074200,7.32507421875,-0.8432780504226685,1.1197043657302856,-1.9360790252685547
1772025009471071200,7.3350712890625,-0.9826327562332153,0.6734044551849365,-2.1509552001953125
1772025009481068000,7.345068115234375,-1.0296635627746582,-0.3073733150959015,-2.496469259262085
1772025009491065300,7.3550654296875,-0.8499686121940613,-1.291152000427246,-2.716029405593872
1772025009501062100,7.365062255859375,-0.5249625444412231,-1.9551113843917847,-2.466576099395752
1772025009511059500,7.3750595703125,-0.26992931962013245,-2.1985602378845215,-1.7503899335861206
1772025009521056500,7.385056396484375,-0.21283617615699768,-1.9657683372497559,-0.9898740649223328
1772025009531053600,7.395053466796875,-0.3219979405403137,-1.3415613174438477,-0.6142207384109497
1772025009541050400,7.40505029296875,-0.4661599099636078,-0.5167208909988403,-0.6442433595657349
1772025009551047400,7.41504736328125,-0.5429165363311768,0.3171570301055908,-0.9513444900512695
1772025009561044500,7.42504443359375,-0.5270137190818787,0.9499965310096741,-1.287216305732727
1772025009571041300,7.435041259765625,-0.4590948522090912,1.3005974292755127,-1.5203444957733154
1772025009581038600,7.44503857421875,-0.35508668422698975,1.3850979804992676,-1.5689458847045898
1772025009591035400,7.455035400390625,-0.2201915830373764,1.2684745788574219,-1.3786243200302124
1772025009601033500,7.465033447265625,-0.049608390778303146,1.0668344497680664,-0.937296986579895
1772025009611030300,7.4750302734375,0.13499128818511963,0.839311957359314,-0.3357517421245575
1772025009621027600,7.485027587890625,0.2806779146194458,0.6445179581642151,0.29356229305267334
1772025009631024400,7.4950244140625,0.36192789673805237,0.46262475848197937,0.8091323971748352
1772025009641021400,7.505021484375,0.38501402735710144,0.2561650574207306,1.1833178997039795
1772025009651018500,7.5150185546875,0.38214394450187683,0.0860181450843811,1.4158567190170288
1772025009661015600,7.525015625,0.37533557415008545,-0.03620603680610657,1.5258748531341553
1772025009671012400,7.535012451171875,0.3654479384422302,-0.09530267864465714,1.555859088897705
1772025009681009400,7.545009521484375,0.33649057149887085,-0.11148937046527863,1.5499731302261353
1772025009691006500,7.55500634765625,0.26662158966064453,-0.14927874505519867,1.5700429677963257
1772025009701003300,7.565003173828125,0.17236995697021484,-0.24421218037605286,1.5825084447860718
1772025009711000300,7.575000244140625,0.014174447394907475,-0.42471152544021606,1.5640429258346558
1772025009720997400,7.584997314453125,-0.1647218018770218,-0.6180834174156189,1.4842897653579712
1772025009730994400,7.594994384765625,-0.31241923570632935,-0.8122612833976746,1.318234920501709
1772025009740991200,7.6049912109375,-0.35390007495880127,-0.7581064701080322,1.1684573888778687
1772025009750988500,7.614988525390625,-0.24798858165740967,-0.4485228955745697,1.0969585180282593
1772025009760985300,7.6249853515625,-0.014545207843184471,-0.05903639271855354,1.0991872549057007
1772025009770983400,7.6349833984375,0.3022911846637726,0.34444838762283325,1.0851850509643555
1772025009780980200,7.644980224609375,0.6003636121749878,0.7171623110771179,0.9926450252532959
1772025009790977500,7.6549775390625,0.77432781457901,0.8414360284805298,0.8216351270675659
1772025009800974300,7.664974365234375,0.8426291346549988,0.639754593372345,0.6067175269126892
1772025009810971400,7.674971435546875,0.9111831784248352,0.3099488914012909,0.49030065536499023
1772025009820968400,7.684968505859375,0.9770860075950623,0.35530999302864075,0.5611423254013062
1772025009830965500,7.694965576171875,1.0697675943374634,0.6301830410957336,0.711285412311554
1772025009840962300,7.70496240234375,1.1354446411132812,0.6244612336158752,0.7492061853408813
1772025009850959600,7.714959716796875,0.9693018794059753,0.32642143964767456,0.4811779856681824
1772025009860956400,7.724956298828125,0.3592188060283661,-0.22672855854034424,-0.1377774029970169
1772025009870953200,7.734953125,-0.47770968079566956,-0.3111816644668579,-0.8087989687919617
1772025009880950500,7.744950439453125,-1.0272043943405151,0.23641060292720795,-1.236779808998108
1772025009890947300,7.754947265625,-1.0228534936904907,0.7770298719406128,-1.4921826124191284
1772025009900944400,7.7649443359375,-0.7981178760528564,1.0406947135925293,-1.6209323406219482
1772025009910941400,7.77494140625,-0.6661281585693359,0.8851351141929626,-1.682685375213623
1772025009920938500,7.7849384765625,-0.6760758757591248,0.3512117862701416,-1.7867441177368164
1772025009930935300,7.794935302734375,-0.6999536156654358,-0.5453986525535583,-2.0568981170654297
1772025009940933400,7.804933349609375,-0.6653647422790527,-1.5354809761047363,-2.3215889930725098
1772025009950930400,7.814930419921875,-0.6006997227668762,-2.1810152530670166,-2.2513959407806396
1772025009960927500,7.824927490234375,-0.5674078464508057,-2.2866835594177246,-1.8060574531555176
1772025009970924300,7.83492431640625,-0.6705424785614014,-1.9712285995483398,-1.3425366878509521
1772025009980921600,7.844921630859375,-0.860358476638794,-1.4031480550765991,-1.1269659996032715
1772025009990918400,7.85491845703125,-1.0116279125213623,-0.7063871622085571,-1.2556535005569458
1772025010000915500,7.86491552734375,-1.0170037746429443,-0.06371548026800156,-1.7380118370056152
1772025010010912500,7.87491259765625,-0.8939454555511475,0.44431036710739136,-2.3652122020721436
1772025010020909600,7.88490966796875,-0.7042197585105896,0.6760996580123901,-2.8671157360076904
1772025010030906400,7.89490625,-0.4747042655944824,0.735251247882843,-2.9648962020874023
1772025010040903400,7.9049033203125,-0.21242418885231018,0.7324687838554382,-2.5910613536834717
1772025010050900500,7.914900390625,0.05761779844760895,0.7049362659454346,-1.8145414590835571
1772025010060897300,7.924897216796875,0.3003084659576416,0.5839983820915222,-0.852252721786499
1772025010070894600,7.93489453125,0.5049766898155212,0.32099005579948425,0.07384397834539413
1772025010080891400,7.944891357421875,0.5947390198707581,0.01439522486180067,0.7916489839553833
1772025010090888400,7.954888427734375,0.588302731513977,-0.20103760063648224,1.3211325407028198
1772025010100886300,7.96488623046875,0.5143582224845886,-0.3124120533466339,1.6462129354476929
1772025010110883600,7.974883544921875,0.42744019627571106,-0.29963281750679016,1.7735345363616943
1772025010120880400,7.98488037109375,0.3844040334224701,-0.1561446338891983,1.7410162687301636
1772025010130877400,7.99487744140625,0.4138462245464325,0.10055086016654968,1.6283743381500244
1772025010140874500,8.00487451171875,0.499109148979187,0.407135009765625,1.5073400735855103
1772025010150871600,8.01487158203125,0.6006491184234619,0.6016250848770142,1.4180744886398315
1772025010160868400,8.024868408203124,0.6643130779266357,0.6786884665489197,1.347952961921692
1772025010170865400,8.034865478515625,0.7145960927009583,0.6794544458389282,1.3325504064559937
1772025010180862500,8.044862548828124,0.7522774338722229,0.6338834762573242,1.3766180276870728
1772025010190859300,8.054859375,0.7479466795921326,0.6131953001022339,1.4470194578170776
1772025010200856300,8.064856201171875,0.67072993516922,0.6651010513305664,1.5031237602233887
1772025010210853400,8.074853271484375,0.521959662437439,0.6867684721946716,1.5487291812896729
1772025010220850400,8.084850341796875,0.347910076379776,0.6137589812278748,1.545807123184204
1772025010230847200,8.09484716796875,0.19691884517669678,0.5044229030609131,1.4960318803787231
1772025010240844500,8.104844482421875,0.12371335178613663,0.39552009105682373,1.4436280727386475
1772025010250841300,8.11484130859375,0.15957389771938324,0.32987311482429504,1.3746800422668457
1772025010260838400,8.12483837890625,0.32898637652397156,0.2460639774799347,1.2774245738983154
1772025010270836500,8.13483642578125,0.5678122043609619,0.06421642750501633,1.2170851230621338
1772025010280833500,8.14483349609375,0.7481532096862793,-0.15078800916671753,1.274086833000183
1772025010290830300,8.154830322265624,0.8754931688308716,-0.3154837489128113,1.4136497974395752
1772025010300827400,8.164827392578125,0.9901425242424011,-0.5094460248947144,1.4778002500534058
1772025010310824400,8.174824462890625,0.9683351516723633,-0.8256590962409973,1.2288568019866943
1772025010320821500,8.184821533203126,0.6240541934967041,-1.2399252653121948,0.590157151222229
1772025010330818300,8.194818359375,-0.05480579659342766,-1.1226134300231934,-0.16658294200897217
1772025010340815600,8.204815673828126,-0.7789403200149536,-0.45230191946029663,-0.7188844680786133
1772025010350812400,8.2148125,-1.0980979204177856,0.21970582008361816,-0.9699239134788513
1772025010360809200,8.224809326171876,-0.9892457723617554,0.7265152335166931,-0.9144383072853088
1772025010370806500,8.234806640625,-0.6835799813270569,0.9949946403503418,-0.7904988527297974
1772025010380803300,8.24480322265625,-0.3556670844554901,1.0178937911987305,-0.7200965881347656
1772025010390800400,8.25480029296875,-0.08661846816539764,0.5566149950027466,-0.7950565218925476
1772025010400797400,8.26479736328125,0.08078251034021378,-0.36047062277793884,-1.0011695623397827
1772025010410794500,8.27479443359375,0.1829216629266739,-1.4026883840560913,-1.1643576622009277
1772025010420791300,8.284791259765624,0.26796063780784607,-2.3982932567596436,-1.0171713829040527
1772025010430788600,8.29478857421875,0.09680728614330292,-2.9564833641052246,-0.5238385796546936
1772025010440786400,8.304786376953125,-0.32918691635131836,-2.8784139156341553,0.05501248687505722
1772025010450783500,8.314783447265626,-0.7083674669265747,-2.380739450454712,0.3521925210952759
1772025010460780300,8.3247802734375,-0.8041576743125916,-1.5784828662872314,0.18221092224121094
1772025010470777600,8.334777587890626,-0.6413707137107849,-0.562799334526062,-0.3708544373512268
1772025010480774400,8.3447744140625,-0.3228985071182251,0.47435513138771057,-1.1080496311187744
1772025010490771500,8.354771484375,0.05690407380461693,1.3393553495407104,-1.746260643005371
1772025010500768500,8.3647685546875,0.3968198299407959,1.9610341787338257,-2.093904733657837
1772025010510769200,8.37476904296875,0.6331486105918884,2.252042531967163,-2.0819950103759766
1772025010520766000,8.384765869140624,0.7288128137588501,2.1517128944396973,-1.7401217222213745
1772025010530763300,8.39476318359375,0.6819478273391724,1.671803593635559,-1.1901781558990479
1772025010540760000,8.404760009765624,0.5340062975883484,1.006981372833252,-0.5420936346054077
1772025010550757000,8.414757080078125,0.2980487644672394,0.400622695684433,0.0991370677947998
1772025010560754200,8.424754150390624,0.014774726703763008,-0.0064340257085859776,0.6675416231155396
1772025010570751200,8.434751220703125,-0.24415870010852814,-0.2281225025653839,1.0748668909072876
1772025010580748000,8.444748046875,-0.4063268303871155,-0.29366371035575867,1.3145968914031982
1772025010590745000,8.4547451171875,-0.44937336444854736,-0.20334430038928986,1.4135380983352661
1772025010600743200,8.4647431640625,-0.3954528868198395,-0.02261473797261715,1.3994626998901367
1772025010610740200,8.474740234375,-0.29194846749305725,0.21457578241825104,1.3059524297714233
1772025010620737000,8.484737060546875,-0.16097447276115417,0.4931144714355469,1.19571053981781
1772025010630734000,8.494734130859374,-0.014499536715447903,0.7110222578048706,1.0957727432250977
1772025010640731100,8.504731201171875,0.12143965065479279,0.8012946248054504,1.001090168952942
1772025010650728200,8.514728271484374,0.23203513026237488,0.7390771508216858,0.9380397796630859
1772025010660725000,8.52472509765625,0.30816373229026794,0.5881654024124146,0.9007304906845093
1772025010670722300,8.534722412109375,0.32790496945381165,0.4597901999950409,0.9178412556648254
1772025010680719000,8.544718994140625,0.3080503046512604,0.3348647952079773,0.980949878692627
1772025010690716000,8.5547158203125,0.2730845808982849,0.20617154240608215,1.073455810546875
1772025010700713200,8.564713134765626,0.22066131234169006,0.1338432878255844,1.1823853254318237
1772025010710710000,8.5747099609375,0.16619248688220978,0.12096871435642242,1.276445984840393
1772025010720707000,8.58470703125,0.19609153270721436,0.11361785978078842,1.344438076019287
1772025010730704100,8.5947041015625,0.3589361011981964,-0.018655182793736458,1.374986171722412
1772025010740701200,8.604701171875,0.5682262182235718,-0.2338162213563919,1.3608546257019043
1772025010750698000,8.614697998046875,0.7538465261459351,-0.5386183857917786,1.2814383506774902
1772025010760695300,8.6246953125,0.8835073113441467,-1.1655563116073608,0.9647535681724548
1772025010770693000,8.634693115234375,0.805862307548523,-1.9674010276794434,0.2367188185453415
1772025010780690200,8.644690185546875,0.4216448664665222,-2.449066638946533,-0.6453979015350342
1772025010790687000,8.65468701171875,-0.11776558309793472,-2.0781548023223877,-1.2581015825271606
1772025010800684300,8.664684326171875,-0.5845955610275269,-1.1887091398239136,-1.4708749055862427
1772025010810681000,8.67468115234375,-0.7034603357315063,-0.13441993296146393,-1.2360950708389282
1772025010820678100,8.68467822265625,-0.38135743141174316,0.7708332538604736,-0.5333640575408936
1772025010830675200,8.69467529296875,0.05345860868692398,0.9892565011978149,0.2347414493560791
1772025010840672300,8.70467236328125,0.25863200426101685,0.6695826053619385,0.7261050939559937
1772025010850669000,8.7146689453125,0.23404821753501892,-0.06907599419355392,0.9174426794052124
1772025010860666000,8.724666015625,0.07982643693685532,-1.2989906072616577,0.6795536875724792
1772025010870663200,8.7346630859375,-0.0921156033873558,-2.788602590560913,0.11193204671144485
1772025010880660000,8.744659912109375,-0.18100818991661072,-3.777672529220581,-0.5824230313301086
1772025010890657300,8.7546572265625,-0.1791280061006546,-3.852598190307617,-1.3254084587097168
1772025010900654000,8.764654052734375,-0.1240549087524414,-3.112945318222046,-2.019479751586914
1772025010910651100,8.774651123046874,-0.01018108893185854,-1.9548892974853516,-2.585756778717041
1772025010920648200,8.784648193359375,0.09726440906524658,-0.4973996877670288,-2.9680938720703125
1772025010930645200,8.794645263671875,0.0725211426615715,0.8259257674217224,-3.179879903793335
1772025010940643000,8.80464306640625,-0.13724513351917267,1.6243947744369507,-3.220404863357544
1772025010950640000,8.81464013671875,-0.45273640751838684,1.9407590627670288,-3.0262787342071533
1772025010960637200,8.82463720703125,-0.7435831427574158,1.7391772270202637,-2.5664072036743164
1772025010970634200,8.83463427734375,-0.891251802444458,1.1876864433288574,-1.86085844039917
1772025010980631000,8.844631103515624,-0.8793402910232544,0.6117094159126282,-1.0059560537338257
1772025010990628400,8.85462841796875,-0.7429100275039673,0.2693147659301758,-0.186377614736557
1772025011000625200,8.864625244140624,-0.5404921770095825,0.1866142749786377,0.48351818323135376
1772025011010622000,8.8746220703125,-0.30949920415878296,0.24493816494941711,0.9581207633018494
1772025011020619300,8.884619384765625,-0.09483324736356735,0.3799050450325012,1.2549668550491333
1772025011030616000,8.894615966796875,0.10932719707489014,0.49036848545074463,1.3977288007736206
1772025011040613000,8.904613037109375,0.2821069657802582,0.4881013333797455,1.3677940368652344
1772025011050610200,8.914610107421876,0.3780471980571747,0.41788268089294434,1.2434360980987549
1772025011060607200,8.924607177734375,0.38797253370285034,0.3272308111190796,1.1132290363311768
1772025011070604000,8.93460400390625,0.32420170307159424,0.2531179189682007,1.0279085636138916
1772025011080601000,8.94460107421875,0.20365186035633087,0.18754848837852478,1.0333677530288696
1772025011090598100,8.95459814453125,0.05508939549326897,0.19192172586917877,1.12149178981781
1772025011100595200,8.96459521484375,-0.08573083579540253,0.31096553802490234,1.2469769716262817
1772025011110593000,8.974593017578124,-0.1831030696630478,0.43621566891670227,1.363163709640503
1772025011120590300,8.98459033203125,-0.20400620996952057,0.5760809183120728,1.4040666818618774
1772025011130587100,8.994587158203124,-0.145341694355011,0.8056240081787109,1.3581833839416504
1772025011140584200,9.004584228515625,-0.052241045981645584,1.0633714199066162,1.2416911125183105
1772025011150581200,9.014581298828125,0.01152141485363245,1.207541584968567,1.1012828350067139
1772025011160578300,9.024578369140626,0.01269293949007988,1.2239711284637451,1.001693606376648
1772025011170575000,9.0345751953125,-0.08477237075567245,1.1008976697921753,0.9315468668937683
1772025011180572200,9.044572265625,-0.2033742219209671,0.7601746916770935,0.9667276740074158
1772025011190569200,9.0545693359375,-0.21495379507541656,0.5259442329406738,1.023306131362915
1772025011200566000,9.06456591796875,-0.06638535857200623,0.5588393211364746,1.0361729860305786
1772025011210563000,9.07456298828125,0.15718978643417358,0.7442571520805359,1.0699917078018188
1772025011220560100,9.08456005859375,0.3319014012813568,0.8460330367088318,1.1712732315063477
1772025011230557200,9.09455712890625,0.38416770100593567,0.40848860144615173,1.1836512088775635
1772025011240554000,9.104553955078124,0.18711695075035095,-0.5635992884635925,0.8912984728813171
1772025011250551300,9.11455126953125,-0.18705692887306213,-1.4077935218811035,0.24973110854625702
1772025011260548000,9.124548095703124,-0.5159189701080322,-1.3471499681472778,-0.41796302795410156
1772025011270545200,9.134545166015625,-0.7376148700714111,-0.29143989086151123,-0.965076208114624
1772025011280543000,9.14454296875,-0.6848376393318176,0.975308895111084,-1.2894572019577026
1772025011290540300,9.154540283203126,-0.36362114548683167,1.666183590888977,-1.3572441339492798
1772025011300537000,9.164537109375,-0.08708784729242325,1.777052879333496,-1.3562108278274536
1772025011310534100,9.1745341796875,-0.003164320718497038,1.3933923244476318,-1.3882817029953003
1772025011320531200,9.18453125,-0.1065429076552391,0.30307474732398987,-1.6154145002365112
1772025011330528000,9.194528076171874,-0.3491831123828888,-1.2486048936843872,-2.0849313735961914
1772025011340525000,9.204525146484375,-0.5924689769744873,-2.5611813068389893,-2.414262533187866
1772025011350522000,9.214522216796874,-0.7804761528968811,-3.0333707332611084,-2.4215686321258545
1772025011360519200,9.224519287109375,-0.8971148729324341,-2.4963793754577637,-2.3113627433776855
1772025011370516000,9.234515869140624,-0.8626420497894287,-1.569100022315979,-2.1920316219329834
1772025011380513300,9.24451318359375,-0.7014718055725098,-0.5132304430007935,-2.1498141288757324
1772025011390510000,9.254510009765625,-0.5512043833732605,0.38678374886512756,-2.1811814308166504
1772025011400507100,9.264507080078126,-0.4827805757522583,1.0104169845581055,-2.2246084213256836
1772025011410504200,9.274504150390625,-0.4055940508842468,1.3436095714569092,-2.1831345558166504
1772025011420501200,9.284501220703126,-0.28660401701927185,1.3138364553451538,-1.9413179159164429
1772025011430498000,9.294498046875,-0.18548473715782166,1.0379838943481445,-1.5014843940734863
1772025011440496000,9.30449609375,-0.09348262846469879,0.6302130222320557,-0.8904780745506287
1772025011450493200,9.3144931640625,0.02329394221305847,0.2992079257965088,-0.22688229382038116
1772025011460490200,9.324490234375,0.15441201627254486,0.1780010610818863,0.36687105894088745
1772025011470487000,9.334487060546875,0.2953009605407715,0.14636024832725525,0.8136537671089172
1772025011480483000,9.344483154296874,0.41584014892578125,0.14610324800014496,1.0529024600982666
1772025011490480000,9.354480224609375,0.5220978260040283,0.15963736176490784,1.1156851053237915
1772025011500477200,9.364477294921874,0.5871891975402832,0.19567260146141052,1.0755586624145508
1772025011510470400,9.374470458984375,0.5842140913009644,0.2580326497554779,0.9831991791725159
1772025011520467200,9.38446728515625,0.5424309968948364,0.34931087493896484,0.8877213597297668
1772025011530464500,9.394464599609375,0.48247042298316956,0.44285085797309875,0.8173385858535767
1772025011540461300,9.40446142578125,0.41727519035339355,0.5248426795005798,0.7845593094825745
1772025011550459400,9.41445947265625,0.355936735868454,0.6085233092308044,0.7897432446479797
1772025011560456200,9.424456298828124,0.29837650060653687,0.6227810978889465,0.8095206618309021
1772025011570453500,9.43445361328125,0.2516024708747864,0.620867133140564,0.8301997184753418
1772025011580450300,9.4444501953125,0.20650900900363922,0.6881625652313232,0.8510463833808899
1772025011590447400,9.454447265625,0.20076748728752136,0.7704480290412903,0.8523801565170288
1772025011600444400,9.4644443359375,0.2688131332397461,0.811278760433197,0.8465523719787598
1772025011610441500,9.47444140625,0.3740042746067047,0.8170156478881836,0.8370040655136108
1772025011620438300,9.484438232421875,0.43224814534187317,0.7526124119758606,0.7961860299110413
1772025011630435600,9.494435546875,0.4263829290866852,0.6526318192481995,0.7734083533287048
1772025011640432400,9.504432373046875,0.3950391113758087,0.5524865388870239,0.7549675703048706
1772025011650429400,9.514429443359376,0.34141048789024353,0.4485325813293457,0.7260842323303223
1772025011660426500,9.524426513671875,0.23983116447925568,0.3480701744556427,0.7552131414413452
1772025011670423600,9.534423583984376,0.1673974245786667,0.31132006645202637,0.8415502905845642
1772025011680420400,9.54442041015625,0.23321771621704102,0.25612205266952515,0.9517731666564941
1772025011690417400,9.55441748046875,0.4722207188606262,0.06044597551226616,0.9425561428070068
1772025011700414500,9.56441455078125,0.7354406714439392,-0.4341786801815033,0.5528648495674133
1772025011710412500,9.57441259765625,0.7317638993263245,-1.0619428157806396,-0.20495325326919556
1772025011720409300,9.584409423828125,0.27466610074043274,-1.0567516088485718,-1.0175117254257202
1772025011730406400,9.594406494140625,-0.4538538455963135,-0.33463865518569946,-1.613662600517273
1772025011740403500,9.604403564453126,-0.9478177428245544,0.5630093812942505,-1.7735756635665894
1772025011750400300,9.614400146484375,-0.9477365016937256,1.15875244140625,-1.4579670429229736
1772025011760397300,9.624397216796876,-0.7572067975997925,1.2026582956314087,-0.9382221102714539
1772025011770394400,9.634394287109375,-0.690844714641571,0.7652208805084229,-0.572968602180481
1772025011780391400,9.644391357421876,-0.746741533279419,0.13367541134357452,-0.3894414007663727
1772025011790388200,9.65438818359375,-0.9027871489524841,-0.5500001907348633,-0.49260058999061584
1772025011800385500,9.664385498046874,-1.1351120471954346,-1.2251973152160645,-0.875324547290802
1772025011810382300,9.67438232421875,-1.2834818363189697,-1.6571961641311646,-1.275229573249817
1772025011820379400,9.68437939453125,-1.369920015335083,-1.6155762672424316,-1.4796380996704102
1772025011830376400,9.69437646484375,-1.4306721687316895,-1.091194748878479,-1.4274017810821533
1772025011840373200,9.704373291015624,-1.415101170539856,-0.4294831454753876,-1.237212896347046
1772025011850370300,9.714370361328125,-1.327975869178772,0.1175466999411583,-1.1617053747177124
1772025011860367400,9.724367431640625,-1.204391598701477,0.4279615581035614,-1.149946689605713
1772025011870364400,9.734364501953126,-1.0540926456451416,0.4136500358581543,-1.0606119632720947
1772025011880362200,9.7443623046875,-0.8839837908744812,0.22659198939800262,-0.7801926136016846
1772025011890359300,9.754359375,-0.6503925919532776,0.007508711889386177,-0.2789464294910431
1772025011900356400,9.7643564453125,-0.3592715561389923,-0.1691368967294693,0.39190730452537537
1772025011910353400,9.774353515625,-0.049535419791936874,-0.29106420278549194,1.1443284749984741
1772025011920350200,9.78435009765625,0.24068069458007812,-0.37703609466552734,1.8347623348236084
1772025011930347500,9.794347412109374,0.47130459547042847,-0.4290716350078583,2.340059280395508
1772025011940344300,9.80434423828125,0.6408473253250122,-0.40498945116996765,2.5945851802825928
1772025011950341400,9.81434130859375,0.711170494556427,-0.32650691270828247,2.600050210952759
1772025011960338400,9.82433837890625,0.6901413202285767,-0.2594887316226959,2.4222445487976074
1772025011970335500,9.83433544921875,0.6318555474281311,-0.1980539858341217,2.130650043487549
1772025011980332300,9.844332275390625,0.5830509662628174,-0.08713093400001526,1.8018956184387207
1772025011990329600,9.85432958984375,0.5482515096664429,-0.002091958187520504,1.5376901626586914
1772025012000326400,9.864326416015626,0.5264830589294434,0.05068230628967285,1.3514717817306519
1772025012010323200,9.8743232421875,0.5350683927536011,0.12485833466053009,1.2175238132476807
1772025012020320500,9.884320556640626,0.5525688529014587,0.26017171144485474,1.1076688766479492
1772025012030317300,9.8943173828125,0.5602570176124573,0.42017030715942383,1.0145386457443237
1772025012040314400,9.904314453125,0.5481665134429932,0.5725486874580383,0.946438729763031
1772025012050312200,9.914312255859375,0.5292940139770508,0.6911312341690063,0.8901374936103821
1772025012060309500,9.9243095703125,0.48784106969833374,0.7285239100456238,0.8219895958900452
1772025012070306300,9.934306396484375,0.4239896833896637,0.6969008445739746,0.7282904386520386
1772025012080303400,9.944303466796875,0.3466344475746155,0.6311101317405701,0.6350241303443909
1772025012090300400,9.954300537109376,0.2532220482826233,0.5366700291633606,0.5515834093093872
1772025012100297500,9.96429736328125,0.10467972606420517,0.4433467388153076,0.466042697429657
1772025012110294300,9.974294189453126,-0.01904275082051754,0.34615838527679443,0.35315370559692383
1772025012120293400,9.98429345703125,-0.0038307635113596916,0.31427234411239624,0.2297898381948471
1772025012130290200,9.994290283203124,0.14971576631069183,0.2821337878704071,0.18909145891666412
1772025012140287500,10.00428759765625,0.44333940744400024,-0.03006034903228283,0.3506323993206024
1772025012150284300,10.0142841796875,0.7572531700134277,-0.5082414746284485,0.6582596302032471
1772025012160281300,10.02428125,0.8326206207275391,-0.9073470234870911,0.7532697916030884
1772025012170278400,10.0342783203125,0.5350573062896729,-1.1962283849716187,0.3383544683456421
1772025012180275500,10.044275390625,0.027633830904960632,-1.238051176071167,-0.528959333896637
1772025012190272300,10.054272216796875,-0.3736216127872467,-0.2530547082424164,-1.3304500579833984
1772025012200269600,10.06426953125,-0.37999776005744934,1.1869257688522339,-1.5962274074554443
1772025012210266400,10.074266357421875,0.0015639939811080694,1.9813419580459595,-1.390501618385315
1772025012220263400,10.084263427734374,0.35126233100891113,1.9166886806488037,-1.0425705909729004
1772025012230261200,10.09426123046875,0.48516249656677246,1.2036958932876587,-0.7467409372329712
1772025012240258600,10.104258544921874,0.4540250897407532,0.12569200992584229,-0.5316933393478394
1772025012250255400,10.11425537109375,0.30419856309890747,-1.2313023805618286,-0.42910143733024597
1772025012260252400,10.12425244140625,0.06297130137681961,-2.377711534500122,-0.4349060654640198
1772025012270249500,10.13424951171875,-0.1646830439567566,-2.8273489475250244,-0.39498603343963623
1772025012280246500,10.14424658203125,-0.31957969069480896,-2.51853609085083,-0.26560699939727783
1772025012290243300,10.154243408203126,-0.34889429807662964,-1.8255525827407837,-0.11561889201402664
1772025012300240400,10.164240478515625,-0.25413769483566284,-1.0939273834228516,-0.09160064160823822
1772025012310237400,10.174237548828126,-0.09238686412572861,-0.4691818058490753,-0.2659759223461151
1772025012320234200,10.184234130859375,0.09786856174468994,0.04240932688117027,-0.6208034753799438
1772025012330231600,10.1942314453125,0.3073295056819916,0.43569427728652954,-1.0202430486679077
1772025012340228400,10.204228271484375,0.4763542115688324,0.724134624004364,-1.289420485496521
1772025012350225400,10.214225341796874,0.5904368758201599,0.9203358292579651,-1.2930806875228882
1772025012360222500,10.224222412109375,0.6514264345169067,0.9865990281105042,-1.0020571947097778
1772025012370219500,10.234219482421874,0.6632978320121765,0.9051478505134583,-0.5089569687843323
1772025012380216300,10.24421630859375,0.5889359712600708,0.7007396221160889,0.06673053652048111
1772025012390214400,10.25421435546875,0.4256708025932312,0.42810380458831787,0.5479788780212402
1772025012400211500,10.26421142578125,0.2139715850353241,0.19538241624832153,0.8018342852592468
1772025012410208500,10.27420849609375,0.03688563033938408,0.09029009938240051,0.8407790660858154
1772025012420205300,10.284205322265626,-0.06071549281477928,0.0903172567486763,0.6926277279853821
1772025012430202400,10.294202392578125,-0.08268658071756363,0.16673700511455536,0.47325554490089417
1772025012440199400,10.304199462890624,-0.07752643525600433,0.33541417121887207,0.24677740037441254
1772025012450196500,10.314196533203125,-0.07570777088403702,0.4837360084056854,0.08484373986721039
1772025012460193300,10.324193359375,-0.0612284317612648,0.5284678339958191,-0.0030948971398174763
1772025012470190300,10.3341904296875,-0.038501255214214325,0.5019203424453735,-0.025763703510165215
1772025012480187400,10.3441875,-0.04041500389575958,0.4102756679058075,0.013654809445142746
1772025012490184200,10.35418408203125,-0.06024292856454849,0.31197771430015564,0.08621800690889359
1772025012500181500,10.364181396484375,-0.10449481010437012,0.24974018335342407,0.1577739417552948
1772025012510179000,10.374178955078126,-0.1535535305738449,0.33709603548049927,0.17836840450763702
1772025012520176000,10.384176025390625,-0.18101578950881958,0.5074483156204224,0.20400398969650269
1772025012530173200,10.394173095703126,-0.13567562401294708,0.5797449946403503,0.25704076886177063
1772025012540170000,10.404169921875,-0.017923694103956223,0.6108565926551819,0.30661284923553467
1772025012550168000,10.41416796875,0.10850588977336884,0.5481495261192322,0.3647838830947876
1772025012560165000,10.4241650390625,0.240724116563797,0.36507874727249146,0.39522433280944824
1772025012570162200,10.434162109375,0.32959848642349243,0.13023024797439575,0.3577192425727844
1772025012580159000,10.444158935546875,0.29901713132858276,0.04890262335538864,0.29979974031448364
1772025012590156000,10.454156005859375,0.2322901338338852,-0.027616288512945175,0.32617494463920593
1772025012600153000,10.464153076171876,0.23822712898254395,-0.06663718819618225,0.5034219026565552
1772025012610150100,10.474150146484375,0.32799670100212097,-0.13354569673538208,0.6024702191352844
1772025012620147000,10.48414697265625,0.37261050939559937,-0.4131517708301544,0.27277272939682007
1772025012630144000,10.49414404296875,0.1425969898700714,-0.503090500831604,-0.4108351767063141
1772025012640141000,10.50414111328125,-0.30749374628067017,-0.170762836933136,-1.1588404178619385
1772025012650138000,10.51413818359375,-0.626031219959259,0.3126462399959564,-1.7998522520065308
1772025012660135000,10.524135009765626,-0.5544867515563965,0.8237430453300476,-2.0165648460388184
1772025012670132200,10.53413232421875,-0.2793632745742798,0.988173246383667,-1.7310501337051392
1772025012680129000,10.54412890625,-0.16524842381477356,0.5828171968460083,-1.277873158454895
1772025012690125800,10.554125732421875,-0.29919758439064026,-0.1621827632188797,-0.7760984301567078
1772025012700123100,10.564123046875,-0.5316877961158752,-1.096354365348816,-0.3275938630104065
1772025012710120000,10.574119873046875,-0.797837495803833,-2.0993340015411377,-0.08237973600625992
1772025012720118000,10.584117919921875,-0.9875807762145996,-2.7520525455474854,0.07366765290498734
1772025012730114800,10.59411474609375,-1.0641084909439087,-2.7243521213531494,0.23040054738521576
1772025012740112100,10.604112060546875,-1.0563735961914062,-2.1023428440093994,0.35111019015312195
1772025012750109000,10.61410888671875,-1.0338581800460815,-1.2885767221450806,0.28273138403892517
1772025012760106000,10.62410595703125,-1.081093430519104,-0.5725951790809631,-0.07546403259038925
1772025012770103000,10.63410302734375,-1.1825940608978271,-0.04843110963702202,-0.5911876559257507
1772025012780100000,10.64410009765625,-1.2293245792388916,0.20328927040100098,-1.0303341150283813
1772025012790097000,10.654096923828124,-1.1575247049331665,0.28806620836257935,-1.2155534029006958
1772025012800094200,10.66409423828125,-0.9233936667442322,0.3150025010108948,-1.0536502599716187
1772025012810091000,10.674091064453124,-0.5629708170890808,0.27960553765296936,-0.5832013487815857
1772025012820088000,10.684088134765625,-0.2050890475511551,0.16661585867404938,0.07533686608076096
1772025012830085000,10.694085205078125,0.030889244750142097,-0.07967381924390793,0.7769582867622375
1772025012840082200,10.704082275390626,0.10636802762746811,-0.3592660427093506,1.3736920356750488
1772025012850079000,10.714078857421875,0.04655409976840019,-0.5840253233909607,1.7685600519180298
1772025012860076000,10.724075927734376,-0.12295264005661011,-0.6293843388557434,1.9210172891616821
1772025012870073000,10.734072998046875,-0.3269672989845276,-0.5181453227996826,1.8278061151504517
1772025012880071200,10.7440712890625,-0.4405447244644165,-0.31465744972229004,1.5357683897018433
1772025012890068000,10.75406787109375,-0.44125086069107056,-0.11690028011798859,1.1345300674438477
1772025012900065000,10.76406494140625,-0.3550805449485779,-0.02558448165655136,0.7059030532836914
1772025012910062000,10.77406201171875,-0.1755862981081009,0.0980212613940239,0.355571448802948
1772025012920059000,10.784058837890624,0.07600972056388855,0.23147600889205933,0.14078058302402496
1772025012930056200,10.79405615234375,0.3082331120967865,0.29022881388664246,0.03269181028008461
1772025012940053000,10.804052978515625,0.4827042520046234,0.2651306688785553,0.005032482091337442
1772025012950050000,10.814050048828125,0.5767383575439453,0.1622001677751541,0.012594396248459816
1772025012960047000,10.824047119140625,0.6108489036560059,0.1293410211801529,-0.03303993493318558
1772025012970044200,10.834044189453126,0.6327311396598816,0.2495609074831009,-0.1164839118719101
1772025012980041000,10.844041015625,0.6618373394012451,0.43742722272872925,-0.18107222020626068
1772025012990038300,10.854038330078126,0.6882234215736389,0.5963407754898071,-0.2285948544740677
1772025013000035000,10.86403515625,0.6917558312416077,0.6352860331535339,-0.2556222081184387
1772025013010031900,10.874031982421876,0.6921674609184265,0.468229204416275,-0.16556230187416077
1772025013020029200,10.884029296875,0.6612497568130493,0.20145395398139954,0.05808810144662857
1772025013030026000,10.89402587890625,0.5853057503700256,0.1613142490386963,0.3074277639389038
1772025013040024000,10.904024169921875,0.5349999666213989,0.4518318176269531,0.5024473071098328
1772025013050021000,10.914021240234375,0.602176308631897,0.7186634540557861,0.6192331314086914
1772025013060018200,10.92401806640625,0.841490626335144,0.636795163154602,0.8322681784629822
1772025013070015000,10.934014892578125,1.151811957359314,-0.01996905356645584,1.0160019397735596
1772025013080012000,10.944011962890626,1.1329801082611084,-1.0190752744674683,0.9490612149238586
1772025013090009000,10.954009033203125,0.44040217995643616,-1.5642510652542114,0.6082680821418762
1772025013100006100,10.964006103515626,-0.6074257493019104,-1.2731026411056519,0.22283463180065155
1772025013110003000,10.9740029296875,-1.285369634628296,-0.47216108441352844,0.03414888679981232
1772025013120000000,10.984,-1.2535450458526611,0.4056663513183594,0.03013044036924839
1772025013129997000,10.9939970703125,-0.7846652865409851,0.9569592475891113,0.1203504130244255
1772025013139994000,11.003994140625,-0.29716357588768005,0.868501603603363,0.0743272602558136
1772025013149991000,11.013990966796875,0.04841577261686325,0.4205903708934784,-0.125792995095253
1772025013159988200,11.02398828125,0.17913304269313812,-0.038269899785518646,-0.49593400955200195
1772025013169985000,11.033985107421875,0.09342680871486664,-0.5495237112045288,-0.976650595664978
1772025013179981800,11.04398193359375,-0.20751678943634033,-1.125697374343872,-1.3379877805709839
1772025013189980000,11.05397998046875,-0.651966392993927,-1.4512513875961304,-1.472076177597046
1772025013199977200,11.063977294921875,-0.9770060181617737,-1.2773935794830322,-1.445900797843933
1772025013209974000,11.07397412109375,-1.088030219078064,-0.7094634771347046,-1.3960932493209839
1772025013219970800,11.083970703125,-1.0948370695114136,-0.044292956590652466,-1.4271187782287598
1772025013229968100,11.093968017578124,-1.082934856414795,0.4801645874977112,-1.4963430166244507
1772025013239965000,11.10396484375,-1.0367838144302368,0.743343710899353,-1.5055339336395264
1772025013249962000,11.1139619140625,-0.8976932168006897,0.6689392328262329,-1.5143682956695557
1772025013259959000,11.123958984375,-0.6260321736335754,0.5285946130752563,-1.4583055973052979
1772025013269956000,11.1339560546875,-0.2949245572090149,0.44824787974357605,-1.2521086931228638
1772025013279953000,11.143952880859375,0.011337919160723686,0.4129634201526642,-0.9380284547805786
1772025013289950200,11.1539501953125,0.32737112045288086,0.48485442996025085,-0.5267823934555054
1772025013299947000,11.163947021484375,0.6401564478874207,0.5241390466690063,-0.09021227806806564
