time,seconds_elapsed,z,y,x
1772025080598770200,0.080770263671875,0.5188876390457153,0.13464201986789703,0.6310409307479858
1772025080608767200,0.090767333984375,0.5111047029495239,-0.18880300223827362,0.6234965920448303
1772025080618764300,0.100764404296875,0.4533921480178833,-0.27215516567230225,0.5610329508781433
1772025080628761300,0.11076123046875,0.37588298320770264,-0.04611840471625328,0.6343013644218445
1772025080638758100,0.120758056640625,0.15230154991149902,-0.23259374499320984,0.6896038055419922
1772025080648755200,0.130755126953125,-0.025830931961536407,-0.7003679275512695,0.6868154406547546
1772025080658752300,0.140752197265625,-0.22182893753051758,-1.465959072113037,0.6157785058021545
1772025080668749300,0.150749267578125,-0.5236623883247375,-2.226726770401001,0.6134431958198547
1772025080678746000,0.16074609375,-0.9017270803451538,-2.68652081489563,0.6534257531166077
1772025080688743200,0.1707431640625,-1.6982940435409546,-1.7483536005020142,0.2699449956417084
1772025080698740200,0.180740234375,-1.9648905992507935,-0.9532186985015869,0.16368219256401062
1772025080708737000,0.190737060546875,-1.6485103368759155,0.19133557379245758,-0.10911185294389725
1772025080718734300,0.200734375,-1.1618983745574951,0.8835904598236084,-0.27659353613853455
1772025080728731100,0.210731201171875,-0.8089496493339539,1.3683122396469116,-0.3672032356262207
1772025080738728200,0.220728271484375,-0.5604873895645142,1.4328808784484863,-0.5165599584579468
1772025080748725200,0.230725341796875,-0.35171273350715637,0.9220291376113892,-0.6945196390151978
1772025080758722300,0.240722412109375,-0.27967557311058044,0.21047855913639069,-0.8197739720344543
1772025080768719000,0.250718994140625,-0.23781491816043854,-0.42458340525627136,-0.8762478828430176
1772025080778716400,0.26071630859375,-0.2080695480108261,-0.8948835134506226,-0.9739488363265991
1772025080788713200,0.270713134765625,-0.15215250849723816,-1.1470842361450195,-1.1660947799682617
1772025080798710300,0.280710205078125,0.008321044966578484,-1.234747052192688,-1.3270546197891235
1772025080808707300,0.290707275390625,0.2725852131843567,-1.139988660812378,-1.3402644395828247
1772025080818704100,0.3007041015625,0.4940102696418762,-0.9956246018409729,-1.2017379999160767
1772025080828701200,0.310701171875,0.5825698971748352,-0.8727818131446838,-0.999757707118988
1772025080838698200,0.3206982421875,0.5398713946342468,-0.38641539216041565,-0.7955336570739746
1772025080848695300,0.3306953125,0.47714826464653015,-0.3943670988082886,-0.6049756407737732
1772025080858692000,0.340692138671875,0.38918110728263855,-0.1679384559392929,-0.4173707962036133
1772025080868689400,0.350689453125,0.26407966017723083,-0.08668568730354309,-0.2932949364185333
1772025080878686200,0.360686279296875,0.14032390713691711,-0.10237650573253632,-0.236272931098938
1772025080888683300,0.370683349609375,0.061043284833431244,-0.042775772511959076,-0.2101050615310669
1772025080898680300,0.380680419921875,-0.005791404750198126,-0.003430230775848031,-0.20347298681735992
1772025080908677400,0.390677490234375,-0.11239442974328995,-0.16971264779567719,-0.23447784781455994
1772025080918674200,0.400674072265625,-0.23674674332141876,-0.42614418268203735,-0.34520620107650757
1772025080928671200,0.410671142578125,-0.2960120737552643,-0.6598142385482788,-0.4336334764957428
1772025080938668300,0.420668212890625,-0.23414070904254913,-0.42048370838165283,-0.30144667625427246
1772025080948665000,0.4306650390625,-0.12452142685651779,0.051234327256679535,0.01323128491640091
1772025080958662100,0.440662109375,-0.08694102615118027,0.180747851729393,0.25429582595825195
1772025080968659200,0.4506591796875,-0.15453840792179108,-0.0953754112124443,0.28438621759414673
1772025080978656300,0.46065625,-0.2493211179971695,-0.4925893545150757,0.12088146060705185
1772025080988653000,0.470653076171875,-0.27940601110458374,-0.8419296741485596,-0.12200174480676651
1772025080998650400,0.480650390625,-0.22298160195350647,-0.9967799782752991,-0.3173379600048065
1772025081008647200,0.490647216796875,-0.1651391088962555,-1.0808079242706299,-0.48348498344421387
1772025081018644200,0.500644287109375,-0.15836934745311737,-1.120841145515442,-0.6238040328025818
1772025081028641300,0.510641357421875,-0.16645464301109314,-1.105400562286377,-0.6966087818145752
1772025081038638000,0.52063818359375,-0.16488204896450043,-1.0073165893554688,-0.672791600227356
1772025081048635100,0.53063525390625,-0.16012516617774963,-0.8316017985343933,-0.542837917804718
1772025081058632200,0.540632080078125,-0.16725897789001465,-0.6215748190879822,-0.3184487521648407
1772025081068629200,0.550629150390625,-0.1730610430240631,-0.3834773302078247,-0.08997703343629837
1772025081078626000,0.5606259765625,-0.14545391499996185,0.46770623326301575,-0.27207839488983154
1772025081088623400,0.570623291015625,0.03385196626186371,0.8864935636520386,-0.3917092978954315
1772025081098620200,0.5806201171875,0.1983969658613205,0.8197121024131775,-0.3297830820083618
1772025081108617200,0.5906171875,0.14991140365600586,0.5560738444328308,-0.21252503991127014
1772025081118614300,0.6006142578125,-0.1468808501958847,-0.19041156768798828,-0.09141804277896881
1772025081128611300,0.610611328125,-0.5005725622177124,-1.135784387588501,0.1282043308019638
1772025081138608000,0.620608154296875,-0.7270371317863464,-2.082183837890625,0.33977386355400085
1772025081148605400,0.63060546875,-0.6335263252258301,-2.874823570251465,0.39397168159484863
1772025081158602200,0.640602294921875,-0.21495868265628815,-3.128976345062256,0.37395724654197693
1772025081168599000,0.65059912109375,0.2025427669286728,-2.758660316467285,0.48902103304862976
1772025081178596400,0.660596435546875,0.3633764088153839,-1.837606430053711,0.8637560606002808
1772025081188593200,0.67059326171875,0.20245978236198425,-0.7066246271133423,1.2588703632354736
1772025081198590200,0.680590087890625,-0.14394450187683105,0.26199871301651,1.4151192903518677
1772025081208587300,0.690587158203125,-0.41300511360168457,0.9428616762161255,1.2663977146148682
1772025081218584300,0.700584228515625,-0.6020613312721252,1.253123164176941,0.8251223564147949
1772025081228581000,0.7105810546875,-0.8139756321907043,1.187468409538269,0.16253283619880676
1772025081238578400,0.720578369140625,-1.0831801891326904,0.8186779022216797,-0.6386570334434509
1772025081248575200,0.7305751953125,-1.380467176437378,0.39769765734672546,-1.3723859786987305
1772025081258572300,0.740572265625,-1.6355786323547363,0.046047475188970566,-1.8443588018417358
1772025081268569300,0.7505693359375,-1.8179728984832764,-0.20406517386436462,-1.9799104928970337
1772025081278566100,0.760566162109375,-1.9355090856552124,-0.44066759943962097,-1.8667857646942139
1772025081288563200,0.770563232421875,-1.9981247186660767,-0.6756251454353333,-1.6135717630386353
1772025081298560300,0.780560302734375,-2.030179500579834,-0.9105207920074463,-1.309407353401184
1772025081308557300,0.790557373046875,-2.0310139656066895,-1.2451043128967285,-0.9928991794586182
1772025081318554000,0.80055419921875,-2.045469284057617,-1.6339082717895508,-0.7017272710800171
1772025081328551200,0.81055126953125,-2.111370086669922,-1.7018957138061523,-0.527106761932373
1772025081338548200,0.82054833984375,-2.089181900024414,-1.4717570543289185,-0.4474759101867676
1772025081348545300,0.830545166015625,-1.9762076139450073,-1.1087367534637451,-0.4314606189727783
1772025081358542000,0.8405419921875,-1.8039252758026123,-0.7362501621246338,-0.4266914129257202
1772025081368539400,0.850539306640625,-1.5967991352081299,-0.39726975560188293,-0.38332855701446533
1772025081378536200,0.8605361328125,-1.3651139736175537,-0.08658457547426224,-0.2683529555797577
1772025081388533000,0.870532958984375,-1.1302047967910767,0.1165565550327301,-0.0873161032795906
1772025081398530300,0.8805302734375,-0.9136450886726379,0.15055793523788452,0.14899922907352448
1772025081408527000,0.890527099609375,-0.6752885580062866,0.1623157262802124,0.39051806926727295
1772025081418524200,0.900524169921875,-0.40391966700553894,0.16280494630336761,0.613245964050293
1772025081428521200,0.910521240234375,-0.1284029483795166,0.1635788232088089,0.8185455203056335
1772025081438518300,0.920518310546875,0.12893803417682648,0.1730775237083435,0.9892187118530273
1772025081448515000,0.93051513671875,0.36735236644744873,0.2040998637676239,1.086681842803955
1772025081458512400,0.940512451171875,0.5729713439941406,0.21127654612064362,1.1249754428863525
1772025081468509200,0.95050927734375,0.7363484501838684,0.14237290620803833,1.1170573234558105
1772025081478506200,0.96050634765625,0.8317439556121826,0.017874645069241524,1.06600022315979
1772025081488503300,0.97050341796875,0.8568139672279358,-0.17928765714168549,0.9869696497917175
1772025081498500400,0.980500244140625,0.837079644203186,-0.36785224080085754,0.9057422280311584
1772025081508497200,0.9904970703125,0.7819018959999084,-0.517021894454956,0.8373478651046753
1772025081518494200,1.000494140625,0.7717052102088928,-0.7052580714225769,0.8136153221130371
1772025081528491300,1.0104912109375,0.6157194375991821,-0.7816561460494995,0.7334397435188293
1772025081538488000,1.020488037109375,0.282444030046463,-0.8664048910140991,0.5540830492973328
1772025081548485400,1.0304853515625,-0.08660279214382172,-1.1387104988098145,0.3060655891895294
1772025081558482200,1.040482177734375,-0.30522409081459045,-1.3158509731292725,0.10249754786491394
1772025081568479200,1.050479248046875,-0.1929154247045517,-1.0377036333084106,-0.10793427377939224
1772025081578476300,1.060476318359375,0.30552423000335693,-0.5099231004714966,-0.47712695598602295
1772025081588474000,1.07047412109375,0.8000452518463135,-0.12904514372348785,-0.7212597727775574
1772025081598471200,1.08047119140625,0.9049980044364929,0.21389970183372498,-0.4822138845920563
1772025081608468000,1.090468017578125,0.6772525906562805,0.13627582788467407,0.12763343751430511
1772025081618465300,1.10046533203125,0.07433237135410309,-0.26370060443878174,0.8050808906555176
1772025081628462000,1.110462158203125,-0.37872233986854553,-0.19342656433582306,1.5914740562438965
1772025081638459100,1.120459228515625,-0.5144200325012207,0.40716177225112915,2.1652677059173584
1772025081648456200,1.130456298828125,-0.569629430770874,0.9763523936271667,2.049001455307007
1772025081658453200,1.140453369140625,-0.6294176578521729,1.1920181512832642,1.2342803478240967
1772025081668450000,1.150449951171875,-0.6768175959587097,1.3437904119491577,0.11331028491258621
1772025081678447000,1.160447021484375,-0.737477719783783,1.5287061929702759,-1.0897008180618286
1772025081688444200,1.170444091796875,-0.8611469268798828,1.6211518049240112,-2.2267110347747803
1772025081698441000,1.18044091796875,-1.0779235363006592,1.6642553806304932,-2.9794390201568604
1772025081708438300,1.190438232421875,-1.3109042644500732,1.63457453250885,-3.1795730590820312
1772025081718435000,1.20043505859375,-1.482270359992981,1.4886114597320557,-2.929858446121216
1772025081728432000,1.21043212890625,-1.5402058362960815,1.2723298072814941,-2.4366371631622314
1772025081738429200,1.22042919921875,-1.4562962055206299,1.053494930267334,-1.8858016729354858
1772025081748426200,1.23042626953125,-1.3000882863998413,0.8168604969978333,-1.3697614669799805
1772025081758423000,1.240423095703125,-1.1076583862304688,0.5833050012588501,-0.9311500191688538
1772025081768420000,1.250420166015625,-0.9015143513679504,0.4090938866138458,-0.573322057723999
1772025081778417200,1.260417236328125,-0.6831175684928894,0.3204575181007385,-0.2957764267921448
1772025081788414000,1.2704140625,-0.4673606753349304,0.31147244572639465,-0.09724345058202744
1772025081798411000,1.280410888671875,-0.2279781848192215,0.37923523783683777,0.06554173678159714
1772025081808408000,1.290407958984375,0.035640787333250046,0.47379034757614136,0.19858318567276
1772025081818405000,1.300405029296875,0.3051292598247528,0.5488477945327759,0.3030419647693634
1772025081828402000,1.31040185546875,0.5563809275627136,0.5724421143531799,0.4017625153064728
1772025081838399200,1.320399169921875,0.7753090262413025,0.5392482280731201,0.5324406623840332
1772025081848396000,1.33039599609375,0.9689812660217285,0.43898412585258484,0.6852906346321106
1772025081858393000,1.34039306640625,1.1201173067092896,0.2891501486301422,0.8269644379615784
1772025081868390100,1.35039013671875,1.22361421585083,0.12794843316078186,0.9349585175514221
1772025081878387200,1.36038720703125,1.3037370443344116,-0.038828831166028976,0.9743781089782715
1772025081888385000,1.370385009765625,1.3478118181228638,-0.22130395472049713,0.931512713432312
1772025081898382000,1.380382080078125,1.3501598834991455,-0.39094969630241394,0.8201558589935303
1772025081908379100,1.390379150390625,1.1824132204055786,-0.5590758323669434,0.6762757897377014
1772025081918376200,1.400376220703125,0.95918208360672,-0.6711776256561279,0.49056801199913025
1772025081928373000,1.410373046875,1.0683585405349731,-0.6184107065200806,0.29379141330718994
1772025081938370000,1.4203701171875,1.1410874128341675,-0.5248818397521973,-0.008754326030611992
1772025081948367000,1.4303671875,0.9445194602012634,-0.6201412677764893,-0.38483503460884094
1772025081958364000,1.440364013671875,0.7546467781066895,-0.8363041877746582,-0.6266319155693054
1772025081968361200,1.450361328125,0.5308682918548584,-1.2872329950332642,-0.6569056510925293
1772025081978358000,1.46035791015625,0.22068777680397034,-1.6530802249908447,-0.42559999227523804
1772025081988355000,1.47035498046875,-0.04529840499162674,-1.617463231086731,0.055513329803943634
1772025081998352100,1.48035205078125,-0.2694745361804962,-1.2976298332214355,0.4870293140411377
1772025082008349200,1.49034912109375,-0.42545464634895325,-0.7989842295646667,0.6284300684928894
1772025082018346000,1.500345947265625,-0.43361908197402954,-0.22791539132595062,0.5862019062042236
1772025082028343300,1.51034326171875,-0.3083088994026184,0.1361054629087448,0.5077028274536133
1772025082038340000,1.520340087890625,-0.3389642834663391,0.07380720973014832,0.3997015357017517
1772025082048337200,1.530337158203125,-0.5020644664764404,-0.15826259553432465,0.44096988439559937
1772025082058334200,1.540334228515625,-0.6063096523284912,-0.148130863904953,0.6989947557449341
1772025082068331000,1.5503310546875,-0.7353471517562866,0.15664663910865784,1.0414754152297974
1772025082078328000,1.560328125,-0.8961589336395264,0.3020123541355133,1.0768563747406006
1772025082088325000,1.5703251953125,-1.0441547632217407,0.3216947913169861,0.6207135915756226
1772025082098322200,1.580322265625,-1.1241074800491333,0.5477561354637146,-0.15626630187034607
1772025082108319000,1.590319091796875,-1.1771764755249023,0.8141354918479919,-1.1486066579818726
1772025082118316300,1.60031640625,-1.2898449897766113,0.8677763938903809,-2.188797950744629
1772025082128313000,1.61031298828125,-1.4121426343917847,0.8710777759552002,-2.8947136402130127
1772025082138311200,1.620311279296875,-1.4555622339248657,0.9513606429100037,-3.068711996078491
1772025082148308000,1.630307861328125,-1.4122687578201294,1.0888004302978516,-2.782728910446167
1772025082158305300,1.64030517578125,-1.3082726001739502,1.2152827978134155,-2.2274160385131836
1772025082168302000,1.650302001953125,-1.1686750650405884,1.2787220478057861,-1.5900874137878418
1772025082178299100,1.660299072265625,-0.9947748780250549,1.29038405418396,-0.9767687320709229
1772025082188296200,1.670296142578125,-0.7755941152572632,1.2502824068069458,-0.41455575823783875
1772025082198293200,1.680293212890625,-0.5361040234565735,1.190572738647461,0.12598417699337006
1772025082208290000,1.6902900390625,-0.2600741684436798,1.110472321510315,0.6523633599281311
1772025082218287000,1.700287109375,0.03535348176956177,1.0081614255905151,1.1472417116165161
1772025082228284200,1.7102841796875,0.33186954259872437,0.8974347114562988,1.5986480712890625
1772025082238281000,1.720281005859375,0.6093240976333618,0.8111173510551453,1.9673259258270264
1772025082248278000,1.730278076171875,0.8496300578117371,0.7216700911521912,2.2248940467834473
1772025082258275000,1.740275146484375,1.0433825254440308,0.5985279083251953,2.377187728881836
1772025082268272000,1.750272216796875,1.1936546564102173,0.43010175228118896,2.4694204330444336
1772025082278269000,1.76026904296875,1.2716141939163208,0.21730028092861176,2.490751266479492
1772025082288266200,1.770266357421875,1.2756459712982178,-0.006468974053859711,2.423999547958374
1772025082298263000,1.780262939453125,1.253000259399414,-0.21191826462745667,2.261505126953125
1772025082308260000,1.790260009765625,1.2442305088043213,-0.4131966233253479,2.02048659324646
1772025082318257200,1.800257080078125,1.2584584951400757,-0.6245762705802917,1.7250175476074219
1772025082328254200,1.810254150390625,1.2751392126083374,-0.8291955590248108,1.4000587463378906
1772025082338252000,1.820251953125,1.2581876516342163,-0.9999313354492188,1.0806021690368652
1772025082348249000,1.8302490234375,1.1708341836929321,-1.1016584634780884,0.803587019443512
1772025082358246100,1.84024609375,1.0177044868469238,-1.0769659280776978,0.5650727152824402
1772025082368243200,1.8502431640625,0.804801344871521,-0.9729658365249634,0.35969898104667664
1772025082378240000,1.860239990234375,0.540066123008728,-0.9059929251670837,0.15264911949634552
1772025082388237000,1.870237060546875,0.2524975538253784,-0.9583860635757446,-0.04431035742163658
1772025082398234000,1.880234130859375,0.005881117656826973,-1.1885229349136353,-0.18714074790477753
1772025082408231000,1.89023095703125,-0.12737561762332916,-1.579013705253601,-0.23730717599391937
1772025082418228200,1.900228271484375,-0.11510935425758362,-1.7310335636138916,-0.07885974645614624
1772025082428225000,1.91022509765625,0.01673419214785099,-1.2385183572769165,0.2441510707139969
1772025082438222000,1.92022216796875,0.1592596471309662,-0.508202314376831,0.3896273076534271
1772025082448219100,1.93021923828125,0.15139174461364746,0.04476108029484749,0.33342602849006653
1772025082458216200,1.94021630859375,0.026959532871842384,0.22827763855457306,0.15549518167972565
1772025082468213000,1.950212890625,-0.226443350315094,0.09847766906023026,-0.08786657452583313
1772025082478210300,1.960210205078125,-0.4111196994781494,0.2453528642654419,-0.16608335077762604
1772025082488207000,1.97020703125,-0.4766319692134857,0.8241893649101257,-0.10770995914936066
1772025082498204000,1.980203857421875,-0.5575345754623413,1.233130693435669,-0.04550250992178917
1772025082508202000,1.990201904296875,-0.6484889984130859,1.3192192316055298,-0.1891210824251175
1772025082518199300,2.00019921875,-0.7151026129722595,1.3501936197280884,-0.571467936038971
1772025082528196000,2.010196044921875,-0.7656633853912354,1.51314377784729,-1.1689943075180054
1772025082538193200,2.020193115234375,-0.8189135789871216,1.6754058599472046,-1.933398962020874
1772025082548190200,2.030190185546875,-0.957101583480835,1.5680327415466309,-2.716235399246216
1772025082558187000,2.04018701171875,-1.1552276611328125,1.2523078918457031,-3.2556746006011963
1772025082568184000,2.05018408203125,-1.305513620376587,0.866982102394104,-3.438868284225464
1772025082578182000,2.060181884765625,-1.4004709720611572,0.5513818264007568,-3.2731611728668213
1772025082588179000,2.070178955078125,-1.4645582437515259,0.27782678604125977,-2.828279972076416
1772025082598176000,2.080176025390625,-1.45710027217865,0.04189307242631912,-2.2270774841308594
1772025082608172800,2.0901728515625,-1.356911540031433,-0.1762467920780182,-1.6104642152786255
1772025082618169900,2.100169921875,-1.1905484199523926,-0.33377039432525635,-1.045776605606079
1772025082628167000,2.1101669921875,-0.9652959704399109,-0.3869484066963196,-0.5533342957496643
1772025082638163700,2.120163818359375,-0.6794112324714661,-0.31985408067703247,-0.13287419080734253
1772025082648161000,2.1301611328125,-0.35305696725845337,-0.18328426778316498,0.24369685351848602
1772025082658157800,2.14015771484375,-0.04370895028114319,-0.04573572427034378,0.5638114809989929
1772025082668156000,2.150156005859375,0.20248669385910034,0.05486505106091499,0.8190778493881226
1772025082678152700,2.160152587890625,0.3523435890674591,0.10437215119600296,1.0227023363113403
1772025082688150000,2.17014990234375,0.4324357211589813,0.08038170635700226,1.189603328704834
1772025082698146800,2.180146728515625,0.4439472556114197,-0.07143259048461914,1.2973353862762451
1772025082708143900,2.190143798828125,0.4133872389793396,-0.3155819773674011,1.323167324066162
1772025082718141000,2.200140869140625,0.38484108448028564,-0.5694877505302429,1.2692478895187378
1772025082728138000,2.210137939453125,0.389674574136734,-0.7568243145942688,1.1560401916503906
1772025082738134800,2.220134765625,0.41470643877983093,-0.8615542054176331,0.9948034286499023
1772025082748132000,2.230132080078125,0.42682820558547974,-0.9443590641021729,0.8094859719276428
1772025082758129000,2.24012890625,0.38036322593688965,-1.035139799118042,0.6433246731758118
1772025082768126000,2.2501259765625,0.24139495193958282,-1.1314200162887573,0.5019640326499939
1772025082778123000,2.260123046875,0.029284026473760605,-1.179018259048462,0.36877140402793884
1772025082788119800,2.270119873046875,-0.2210543155670166,-1.1807867288589478,0.2260354906320572
1772025082798116900,2.280116943359375,-0.4969700574874878,-1.1532390117645264,0.07647662609815598
1772025082808114000,2.290114013671875,-0.7513278126716614,-1.097184658050537,-0.01213406678289175
1772025082818112000,2.300112060546875,-0.9181929230690002,-1.0190443992614746,-0.004525948781520128
1772025082828108800,2.31010888671875,-0.9659250378608704,-0.8729378581047058,0.11384037137031555
1772025082838105900,2.32010595703125,-0.9212166666984558,-0.5989124178886414,0.3787921369075775
1772025082848103000,2.33010302734375,-0.767278790473938,-0.10681995749473572,0.7332907319068909
1772025082858100000,2.340099853515625,-0.5292888283729553,0.497999906539917,1.0141897201538086
1772025082868096800,2.3500966796875,-0.2731878161430359,1.2380293607711792,1.129334807395935
1772025082878094000,2.360093994140625,-0.15743885934352875,2.025470495223999,1.0336421728134155
1772025082888091000,2.3700908203125,-0.20209647715091705,2.5299079418182373,0.6941387057304382
1772025082898088000,2.380087890625,-0.3932030200958252,2.6487772464752197,0.22436083853244781
1772025082908085000,2.3900849609375,-0.6726212501525879,2.6588873863220215,-0.08368668705224991
1772025082918082000,2.40008203125,-0.7678305506706238,2.7289552688598633,-0.1811101734638214
1772025082928078800,2.410078857421875,-0.6886927485466003,2.838139057159424,-0.18709132075309753
1772025082938076000,2.420075927734375,-0.5782482624053955,2.693204402923584,-0.11236514896154404
1772025082948073000,2.430072998046875,-0.4943726658821106,2.081428050994873,-0.057136420160532
1772025082958071000,2.440071044921875,-0.4927625358104706,1.266857624053955,-0.09319961816072464
1772025082968067800,2.45006787109375,-0.47337791323661804,0.7337452173233032,-0.1377016007900238
1772025082978065000,2.46006494140625,-0.3644208014011383,0.45109355449676514,-0.26812538504600525
1772025082988062000,2.47006201171875,-0.2308460921049118,0.2645517885684967,-0.45728737115859985
1772025082998058800,2.480058837890625,-0.040161896497011185,0.16564598679542542,-0.5669728517532349
1772025083008055800,2.490055908203125,0.17048881947994232,0.017418988049030304,-0.5010471940040588
1772025083018052900,2.500052978515625,0.3677257001399994,-0.139828160405159,-0.1969917267560959
1772025083028050000,2.5100498046875,0.5395435094833374,-0.31775039434432983,0.267407089471817
1772025083038046700,2.520046630859375,0.6929525136947632,-0.527903139591217,0.7757600545883179
1772025083048044000,2.5300439453125,0.8495290875434875,-0.7293881177902222,1.195274829864502
1772025083058040800,2.540040771484375,0.9766185879707336,-0.904384970664978,1.3988516330718994
1772025083068038000,2.550037841796875,1.021351933479309,-0.9794855713844299,1.382232904434204
1772025083078035000,2.560034912109375,1.0186883211135864,-0.880692720413208,1.2601730823516846
1772025083088033000,2.570032958984375,1.016977310180664,-0.623237669467926,1.1301753520965576
1772025083098029800,2.58002978515625,1.0697799921035767,-0.21856524050235748,1.0243884325027466
1772025083108027000,2.59002685546875,1.1784443855285645,0.27681806683540344,0.9636502861976624
1772025083118024000,2.60002392578125,1.286014199256897,0.7135250568389893,0.9247167110443115
1772025083128021000,2.61002099609375,1.3445327281951904,0.9944366812705994,0.9231754541397095
1772025083138017800,2.620017822265625,1.3438384532928467,1.0988613367080688,0.995919406414032
1772025083148014800,2.630014892578125,1.2640444040298462,1.0363179445266724,1.16764497756958
1772025083158012000,2.640011962890625,1.1087114810943604,0.8369920253753662,1.4059686660766602
1772025083168008700,2.6500087890625,0.9179338812828064,0.5454140901565552,1.654111623764038
1772025083178006000,2.660006103515625,0.733636736869812,0.21228617429733276,1.8560205698013306
1772025083188002800,2.6700029296875,0.5617640614509583,-0.10003581643104553,1.990796446800232
1772025083197999900,2.679999755859375,0.42181065678596497,-0.35132530331611633,2.0221526622772217
1772025083207997700,2.689997802734375,0.3042634129524231,-0.5285302996635437,1.9395965337753296
1772025083217995000,2.6999951171875,0.19071659445762634,-0.6132611632347107,1.7258528470993042
1772025083227991800,2.70999169921875,0.07757925242185593,-0.6034480333328247,1.392447590827942
1772025083237988900,2.71998876953125,-0.02697165682911873,-0.5194106698036194,0.9549338817596436
1772025083247986000,2.72998583984375,-0.11690221726894379,-0.3933120667934418,0.4679420590400696
1772025083257983000,2.73998291015625,-0.22251838445663452,-0.30431002378463745,-0.04295557737350464
1772025083267979800,2.749979736328125,-0.3707149028778076,-0.288851797580719,-0.5560440421104431
1772025083277977000,2.75997705078125,-0.5749996304512024,-0.36401763558387756,-1.0679453611373901
1772025083287974000,2.769973876953125,-0.8067501783370972,-0.5602251291275024,-1.547504186630249
1772025083297971000,2.779970947265625,-0.9595405459403992,-0.8441841006278992,-1.8918956518173218
1772025083307968000,2.789968017578125,-0.9235745072364807,-1.0128004550933838,-1.9767253398895264
1772025083317964800,2.79996484375,-0.7119174003601074,-0.7160024642944336,-1.8037989139556885
1772025083327963000,2.809962890625,-0.4422045350074768,0.058387674391269684,-1.4697105884552002
1772025083337960000,2.8199599609375,-0.06797873228788376,1.2166121006011963,-1.03682279586792
1772025083347957000,2.82995703125,0.3480110168457031,2.0710153579711914,-0.6854840517044067
1772025083357953800,2.839953857421875,0.43214187026023865,2.04939866065979,-0.4999178647994995
1772025083367950800,2.849950927734375,0.05118866637349129,1.696081519126892,-0.21387013792991638
1772025083377948000,2.859947998046875,-0.47280052304267883,1.337446689605713,0.19114713370800018
1772025083387945000,2.869945068359375,-0.8695891499519348,1.283966064453125,0.5302101969718933
1772025083397941800,2.879941650390625,-1.0907039642333984,1.3979402780532837,0.5736322402954102
1772025083407939000,2.88993896484375,-1.1605554819107056,1.4861913919448853,0.26221516728401184
1772025083417936000,2.899935791015625,-1.0781404972076416,1.5927774906158447,-0.2723539471626282
1772025083427933000,2.909932861328125,-0.8548307418823242,1.6831351518630981,-0.8697651624679565
1772025083437930000,2.919929931640625,-0.6223418116569519,1.6755781173706055,-1.3668540716171265
1772025083447928000,2.929927978515625,-0.4421344995498657,1.5094205141067505,-1.614937663078308
1772025083457924900,2.9399248046875,-0.3060075342655182,1.1482067108154297,-1.5612554550170898
1772025083467922000,2.949921875,-0.20276585221290588,0.6128122210502625,-1.2847892045974731
1772025083477919000,2.9599189453125,-0.13873758912086487,-0.04449081793427467,-0.8470821976661682
1772025083487916000,2.969916015625,-0.09912227094173431,-0.7936221361160278,-0.2964189648628235
1772025083497912800,2.979912841796875,-0.03856944292783737,-1.5690571069717407,0.19688822329044342
1772025083507910000,2.989909912109375,0.02022503688931465,-2.3066611289978027,0.426594614982605
1772025083517907000,2.999906982421875,0.02069668285548687,-2.879427194595337,0.3378000259399414
1772025083527903700,3.00990380859375,0.008416987955570221,-3.041301727294922,0.08183114230632782
1772025083537900800,3.01990087890625,0.05458608269691467,-2.73203444480896,-0.21822987496852875
1772025083547897900,3.02989794921875,0.15357854962348938,-1.9544968605041504,-0.4818147122859955
1772025083557896000,3.03989599609375,0.3004830479621887,-0.9546269774436951,-0.6525483727455139
1772025083567892700,3.049892822265625,0.467864990234375,-0.07377848774194717,-0.7055436968803406
1772025083577889800,3.059889892578125,0.6097685694694519,0.49908292293548584,-0.6324708461761475
1772025083587886600,3.069886474609375,0.7200008630752563,0.7786610126495361,-0.4459407925605774
1772025083597883600,3.079883544921875,0.8206483721733093,0.8155529499053955,-0.17433884739875793
1772025083607880700,3.089880615234375,0.910263180732727,0.6652997732162476,0.16276846826076508
1772025083617877800,3.099877685546875,0.9630353450775146,0.3974936008453369,0.5096611380577087
1772025083627874600,3.10987451171875,0.9570095539093018,0.0986383706331253,0.8116747140884399
1772025083637871600,3.11987158203125,0.9413988590240479,-0.2039065957069397,1.0514423847198486
1772025083647868700,3.12986865234375,0.9267027378082275,-0.4412658214569092,1.2252134084701538
1772025083657865500,3.139865478515625,0.9244456887245178,-0.558894157409668,1.324347734451294
1772025083667863600,3.149863525390625,0.9066205620765686,-0.5972636342048645,1.3060431480407715
1772025083677860600,3.159860595703125,0.8313819766044617,-0.6276960968971252,1.1470649242401123
1772025083687857700,3.169857666015625,0.6933306455612183,-0.6561141610145569,0.8915676474571228
1772025083697854500,3.1798544921875,0.5254225730895996,-0.7299798727035522,0.599939227104187
1772025083707851800,3.189851806640625,0.28621891140937805,-0.9648947715759277,0.35048478841781616
1772025083717848600,3.1998486328125,-0.0074803512543439865,-1.328078031539917,0.21636825799942017
1772025083727845600,3.209845703125,-0.21189899742603302,-1.629267692565918,0.15611928701400757
1772025083737842400,3.219842529296875,-0.31276142597198486,-1.8095208406448364,0.08285119384527206
1772025083747839700,3.22983984375,-0.41439852118492126,-1.947409749031067,-0.08988544344902039
1772025083757836500,3.23983642578125,-0.5783043503761292,-2.2188196182250977,-0.49856188893318176
1772025083767834600,3.249834716796875,-0.6616767048835754,-2.248806953430176,-1.5012718439102173
1772025083777831700,3.259831787109375,-0.42381301522254944,-2.0766067504882812,-2.7761926651000977
1772025083787828700,3.269828857421875,0.21546967327594757,-1.5168712139129639,-3.014362335205078
1772025083797825500,3.279825439453125,0.946759045124054,-0.49512413144111633,-2.6397204399108887
1772025083807822600,3.289822509765625,1.5103365182876587,-0.35923057794570923,-2.271804094314575
1772025083817819600,3.299819580078125,1.549845576286316,-0.024468546733260155,-1.76499605178833
1772025083827816700,3.309816650390625,1.2097303867340088,0.8013299107551575,-1.229098916053772
1772025083837813500,3.3198134765625,0.7775570750236511,1.7277907133102417,-1.0850831270217896
1772025083847810600,3.329810546875,0.42459824681282043,2.483257532119751,-1.222333312034607
1772025083857807600,3.3398076171875,0.25218281149864197,3.145817995071411,-1.285071611404419
1772025083867805700,3.3498056640625,0.21364644169807434,3.5281519889831543,-1.2173525094985962
1772025083877802500,3.359802490234375,0.12856537103652954,3.390867233276367,-1.1854310035705566
1772025083887799600,3.369799560546875,-0.019168680533766747,2.9685792922973633,-1.265934944152832
1772025083897796600,3.379796630859375,-0.07416881620883942,2.3416147232055664,-1.4132721424102783
1772025083907793400,3.38979345703125,-0.14457838237285614,1.2748035192489624,-1.5111312866210938
1772025083917790700,3.399790771484375,-0.3575950562953949,0.08097027987241745,-1.4631296396255493
1772025083927787500,3.40978759765625,-0.6502667665481567,-1.1340572834014893,-1.1245498657226562
1772025083937784600,3.41978466796875,-0.9559454321861267,-2.187100648880005,-0.48722827434539795
1772025083947781600,3.42978173828125,-1.2178170680999756,-2.934235095977783,0.275307834148407
1772025083957778700,3.43977880859375,-1.4227733612060547,-3.3160386085510254,1.046018362045288
1772025083967776500,3.449776611328125,-1.500411868095398,-3.3097074031829834,1.6471821069717407
1772025083977773600,3.459773681640625,-1.387562870979309,-2.942603349685669,1.8197945356369019
1772025083987770600,3.4697705078125,-1.203708529472351,-2.4015753269195557,1.432089924812317
1772025083997767700,3.479767578125,-1.0531264543533325,-1.8280423879623413,0.5395357012748718
1772025084007764500,3.489764404296875,-0.8139459490776062,-1.4949052333831787,-0.5915021896362305
1772025084017761800,3.49976171875,-0.5871458649635315,-1.3172838687896729,-1.7165404558181763
1772025084027758600,3.509758544921875,-0.3719453513622284,-1.3397133350372314,-2.7108545303344727
1772025084037755400,3.51975537109375,-0.24267977476119995,-1.4049879312515259,-3.4260313510894775
1772025084047752700,3.529752685546875,-0.18616724014282227,-1.753300428390503,-3.842616558074951
1772025084057750800,3.539750732421875,-0.44653546810150146,-2.081634759902954,-3.8211753368377686
1772025084067747600,3.54974755859375,-0.6159388422966003,-1.6327875852584839,-3.204846143722534
1772025084077744600,3.55974462890625,-0.7812793254852295,-0.9977242946624756,-2.192164897918701
1772025084087741700,3.56974169921875,-1.0035260915756226,-0.4391166865825653,-1.2004355192184448
1772025084097738500,3.579738525390625,-0.8947290778160095,-0.3260239362716675,-0.2599012851715088
1772025084107735600,3.589735595703125,-0.4476737976074219,-0.503276526927948,0.6770105957984924
1772025084117732600,3.599732666015625,0.23607471585273743,-0.5925179719924927,1.6454131603240967
1772025084127729700,3.609729736328125,0.7402205467224121,-0.17427214980125427,2.5474448204040527
1772025084137726500,3.6197265625,1.1145955324172974,0.7868214249610901,3.1925199031829834
1772025084147724500,3.629724609375,1.5175408124923706,1.259060025215149,3.1854426860809326
1772025084157721600,3.6397216796875,1.6649025678634644,1.132097840309143,2.8003077507019043
1772025084167718700,3.64971875,1.6804460287094116,0.7222094535827637,2.4129810333251953
1772025084177715500,3.659715576171875,1.6809264421463013,0.6972768902778625,2.0655722618103027
1772025084187712800,3.669712646484375,1.6425995826721191,1.2507160902023315,1.8208467960357666
1772025084197709600,3.67970947265625,1.5249013900756836,2.13396954536438,1.6481255292892456
1772025084207706600,3.68970654296875,1.4038439989089966,2.996692180633545,1.540234088897705
1772025084217703700,3.69970361328125,1.433404564857483,3.614423990249634,1.442128300666809
1772025084227700700,3.70970068359375,1.5657891035079956,4.010854244232178,1.3791604042053223
1772025084237698600,3.719698486328125,1.6827846765518188,4.019513130187988,1.4213896989822388
1772025084247695600,3.729695556640625,1.6422864198684692,3.429825782775879,1.57230544090271
1772025084257692700,3.739692626953125,1.3198153972625732,2.3252131938934326,1.779512882232666
1772025084267689700,3.749689697265625,0.9305647611618042,1.3413327932357788,2.054905891418457
1772025084277686500,3.7596865234375,0.5177212953567505,1.041552186012268,2.3099005222320557
1772025084287683800,3.769683837890625,0.0898357406258583,0.9188548922538757,2.2695095539093018
1772025084297680600,3.7796806640625,-0.3803722560405731,1.1218165159225464,2.023221731185913
1772025084307677400,3.789677490234375,-0.7388631701469421,1.7536487579345703,1.730793833732605
1772025084317674800,3.7996748046875,-0.7134906649589539,2.101811408996582,1.2872246503829956
1772025084327672800,3.8096728515625,-0.6261336803436279,2.0109920501708984,0.615818440914154
1772025084337669600,3.819669677734375,-0.9152776598930359,1.6960386037826538,-0.1695917248725891
1772025084347666400,3.82966650390625,-1.2013497352600098,1.4882333278656006,-1.0119521617889404
1772025084357663700,3.839663818359375,-1.2583410739898682,1.3972173929214478,-1.8325295448303223
1772025084367660500,3.84966064453125,-1.1684670448303223,1.0212738513946533,-2.450204849243164
1772025084377657600,3.85965771484375,-1.0285693407058716,0.33969634771347046,-2.6984670162200928
1772025084387654700,3.869654541015625,-0.9011102318763733,-0.22265663743019104,-2.576489210128784
1772025084397651700,3.879651611328125,-0.8509498238563538,-0.6884655952453613,-2.165774345397949
1772025084407648500,3.8896484375,-0.8596934080123901,-1.1831998825073242,-1.5485297441482544
1772025084417646600,3.899646484375,-0.8488348722457886,-1.6411852836608887,-0.8556105494499207
1772025084427643600,3.9096435546875,-0.7975491881370544,-1.958823323249817,-0.3356316387653351
1772025084437640700,3.919640625,-0.7922468185424805,-2.0554845333099365,-0.24023614823818207
1772025084447637500,3.929637451171875,-0.7865968346595764,-1.9109103679656982,-0.5170042514801025
1772025084457634600,3.939634521484375,-0.6279770731925964,-1.4994796514511108,-0.9420729875564575
1772025084467631600,3.949631591796875,-0.3121587634086609,-0.8771079778671265,-1.2897553443908691
1772025084477628700,3.959628662109375,0.09417622536420822,-0.1854211539030075,-1.437784194946289
1772025084487625500,3.96962548828125,0.4744650423526764,0.3544039726257324,-1.3708256483078003
1772025084497623800,3.979623779296875,0.7213555574417114,0.5479199290275574,-1.1367335319519043
1772025084507620600,3.98962060546875,0.7958214282989502,0.40093761682510376,-0.782105028629303
1772025084517617700,3.99961767578125,0.7333601713180542,0.010976784862577915,-0.38593369722366333
1772025084527614700,4.00961474609375,0.5945850014686584,-0.4677468538284302,-0.017542341724038124
1772025084537611800,4.01961181640625,0.38594359159469604,-0.8881217241287231,0.26785796880722046
1772025084547608600,4.029608642578125,0.0975070595741272,-1.1720755100250244,0.43545615673065186
1772025084557605600,4.039605712890625,-0.21725967526435852,-1.2603843212127686,0.5283205509185791
1772025084567602700,4.049602783203125,-0.46007394790649414,-1.176844596862793,0.5944000482559204
1772025084577600500,4.0596005859375,-0.5972110629081726,-0.9705814123153687,0.6383703947067261
1772025084587598600,4.0695986328125,-0.6534208655357361,-0.7571680545806885,0.6575726866722107
1772025084597595400,4.079595458984375,-0.6361992955207825,-0.6236992478370667,0.6679030656814575
1772025084607592700,4.0895927734375,-0.5631350874900818,-0.6025834083557129,0.6636857390403748
1772025084617589500,4.099589599609375,-0.49434638023376465,-0.6583353877067566,0.6311091780662537
1772025084627586300,4.10958642578125,-0.48602983355522156,-0.7376427054405212,0.5829934477806091
1772025084637583600,4.11958349609375,-0.566952645778656,-0.8498336672782898,0.5481556057929993
1772025084647580400,4.129580322265625,-0.6497767567634583,-0.9817171692848206,0.5547683238983154
1772025084657577500,4.139577392578125,-0.6809093952178955,-1.0254862308502197,0.6340548992156982
1772025084667575600,4.149575439453125,-0.602847158908844,-0.861486554145813,0.7698001265525818
1772025084677572600,4.159572509765625,-0.30864405632019043,-0.5051438808441162,0.9653741717338562
1772025084687569400,4.1695693359375,0.23691874742507935,0.06590275466442108,1.2126801013946533
1772025084697566500,4.17956640625,0.9271805286407471,0.620850682258606,1.384184718132019
1772025084707563500,4.1895634765625,1.4718519449234009,0.9480205178260803,1.3127144575119019
1772025084717560600,4.199560546875,1.6456372737884521,0.8358066082000732,0.9801459908485413
1772025084727557400,4.209557373046875,1.303346872329712,0.3204905092716217,0.3716631233692169
1772025084737554400,4.219554443359375,0.5262902975082397,-0.16975270211696625,-0.2642861604690552
1772025084747552500,4.229552490234375,-0.3840111196041107,-0.018377263098955154,-0.448048859834671
1772025084757549600,4.239549560546875,-1.137255072593689,0.6255375742912292,-0.08040507137775421
1772025084767546400,4.24954638671875,-1.471251368522644,1.2369930744171143,0.4913753867149353
1772025084777543400,4.25954345703125,-1.4011270999908447,0.9914357662200928,0.7396557927131653
1772025084787540500,4.26954052734375,-1.189819574356079,0.17507976293563843,0.7081262469291687
1772025084797537500,4.27953759765625,-0.9444007277488708,-0.5398631691932678,0.6095786094665527
1772025084807534300,4.289534423828125,-0.6986680030822754,-1.039050817489624,0.46742478013038635
1772025084817531600,4.29953173828125,-0.4339124858379364,-1.3553845882415771,0.31881216168403625
1772025084827529500,4.309529541015625,-0.16155576705932617,-1.3960801362991333,0.3637906610965729
1772025084837526500,4.319526611328125,-0.03680771216750145,-1.1704806089401245,0.6340884566307068
1772025084847523300,4.3295234375,-0.13947629928588867,-0.8464286923408508,0.9762993454933167
1772025084857520600,4.339520751953125,-0.4193257689476013,-0.6069200038909912,1.2139697074890137
1772025084867517400,4.349517333984375,-0.7641668319702148,-0.35545918345451355,1.1397093534469604
1772025084877514500,4.359514404296875,-1.0556647777557373,-0.022418353706598282,0.6521137952804565
1772025084887511600,4.369511474609375,-1.2066951990127563,0.37866151332855225,-0.14227357506752014
1772025084897508400,4.37950830078125,-1.1425657272338867,0.8888850808143616,-1.0121599435806274
1772025084907506400,4.38950634765625,-0.90826416015625,1.5050616264343262,-1.771815538406372
1772025084917503500,4.39950341796875,-0.5977840423583984,2.110438823699951,-2.2719602584838867
1772025084927500500,4.40950048828125,-0.32881471514701843,2.489650249481201,-2.424773931503296
1772025084937497300,4.419497314453125,-0.1506202071905136,2.4657294750213623,-2.2756195068359375
1772025084947494400,4.429494384765625,-0.07392177730798721,2.0443036556243896,-1.9079225063323975
1772025084957491500,4.439491455078125,-0.07185489684343338,1.3045144081115723,-1.394418716430664
1772025084967488500,4.449488525390625,-0.12224667519330978,0.4173513948917389,-0.8084116578102112
1772025084977486300,4.459486328125,-0.2030549794435501,-0.3885008990764618,-0.23502908647060394
1772025084987483400,4.4694833984375,-0.27317413687705994,-1.006919503211975,0.2933477759361267
1772025084997480400,4.47948046875,-0.29033181071281433,-1.400303602218628,0.7592382431030273
1772025085007477500,4.4894775390625,-0.29717469215393066,-1.5205737352371216,1.1773062944412231
1772025085017474300,4.499474365234375,-0.3044259250164032,-1.393507957458496,1.53536856174469
1772025085027471600,4.5094716796875,-0.3063223361968994,-1.1472755670547485,1.8295327425003052
1772025085037468400,4.519468505859375,-0.30574071407318115,-0.9697093367576599,2.022810697555542
1772025085047465500,4.529465576171875,-0.31412845849990845,-0.9059426784515381,2.0847902297973633
1772025085057463300,4.53946337890625,-0.384024977684021,-0.9078367352485657,1.9859575033187866
1772025085067460600,4.549460693359375,-0.5315074324607849,-0.8621909022331238,1.7655763626098633
1772025085077457400,4.55945751953125,-0.7200570702552795,-0.7504944205284119,1.4851922988891602
1772025085087454500,4.569454345703125,-0.8090243935585022,-0.5153906941413879,1.1994589567184448
1772025085097451500,4.579451416015625,-0.69330233335495,-0.20936740934848785,0.9155460596084595
1772025085107448600,4.589448486328125,-0.3431607484817505,-0.1205015480518341,0.5695236325263977
1772025085117445400,4.5994453125,0.11009649932384491,-0.3774949908256531,0.28002816438674927
1772025085127443500,4.609443359375,0.5852026343345642,-1.1823569536209106,0.06957781314849854
1772025085137440500,4.6194404296875,0.9742174744606018,-1.5857558250427246,-0.006443716119974852
1772025085147437600,4.6294375,1.3064957857131958,-0.8658702969551086,0.09895027428865433
1772025085157434400,4.639434326171875,1.6271005868911743,0.6017112135887146,0.18277248740196228
1772025085167431700,4.649431640625,1.922613263130188,1.7554926872253418,-0.07696787267923355
1772025085177428500,4.659428466796875,2.005018711090088,2.0810720920562744,-0.7976259589195251
1772025085187425300,4.66942529296875,1.5957380533218384,1.9357571601867676,-1.7242990732192993
1772025085197422600,4.679422607421875,0.6895689964294434,2.109616994857788,-2.361011266708374
1772025085207420700,4.689420654296875,-0.053743742406368256,2.5999021530151367,-2.4724438190460205
1772025085217417500,4.69941748046875,-0.31870001554489136,3.09240460395813,-2.280775547027588
1772025085227414300,4.709414306640625,-0.41318002343177795,3.183438539505005,-2.0702056884765625
1772025085237411600,4.71941162109375,-0.5665671825408936,2.633268117904663,-2.0089070796966553
1772025085247408400,4.729408447265625,-0.7064327597618103,1.7158100605010986,-2.0678741931915283
1772025085257405400,4.739405517578125,-0.7623194456100464,0.8550565242767334,-2.1109297275543213
1772025085267402500,4.749402587890625,-0.721067488193512,0.33332812786102295,-1.9664331674575806
1772025085277400600,4.759400634765625,-0.5440855622291565,0.09095810353755951,-1.5995877981185913
1772025085287397400,4.7693974609375,-0.2346629947423935,0.024385131895542145,-1.0695574283599854
1772025085297394400,4.77939453125,0.10285511612892151,0.035991184413433075,-0.3954031765460968
1772025085307391500,4.7893916015625,0.3337246775627136,0.06268113106489182,0.38804081082344055
1772025085317388500,4.799388427734375,0.3703375458717346,0.09543082118034363,1.1396421194076538
1772025085327385300,4.80938525390625,0.22969385981559753,0.057841259986162186,1.5380669832229614
1772025085337382700,4.819382568359375,0.0937030017375946,-0.09730065613985062,1.4179069995880127
1772025085347380500,4.82938037109375,0.07361430674791336,-0.1992797702550888,1.0018032789230347
1772025085357377500,4.83937744140625,0.2812061011791229,-0.1556989997625351,0.6131807565689087
1772025085367374300,4.849374267578125,0.6689252257347107,-0.022625604644417763,0.349100798368454
1772025085377371600,4.85937158203125,1.0602037906646729,0.49992576241493225,0.17382459342479706
1772025085387368400,4.869368408203125,1.3825430870056152,0.45561569929122925,0.17408724129199982
1772025085397365500,4.879365478515625,1.6022400856018066,0.24188315868377686,0.36692699790000916
1772025085407362600,4.889362548828125,1.599308967590332,-0.2669116258621216,0.7102761268615723
1772025085417360600,4.899360595703125,1.4599857330322266,-0.8391314744949341,1.149370551109314
1772025085427357400,4.909357421875,1.2890669107437134,-1.251922845840454,1.6211212873458862
1772025085437354500,4.9193544921875,1.0549640655517578,-1.5027947425842285,2.050786256790161
1772025085447351600,4.9293515625,0.7969141006469727,-1.5836492776870728,2.403701066970825
1772025085457348600,4.9393486328125,0.5778653621673584,-1.4538737535476685,2.6445729732513428
1772025085467345400,4.949345458984375,0.4215090572834015,-1.0210577249526978,2.7732975482940674
1772025085477342500,4.959342529296875,0.28046271204948425,-0.5709952712059021,2.7912774085998535
1772025085487340500,4.969340576171875,0.11030055582523346,-0.2630957365036011,2.7239763736724854
1772025085497337600,4.979337646484375,-0.07101809978485107,-0.0227236095815897,2.618459939956665
1772025085507334400,4.98933447265625,-0.22041527926921844,0.12634822726249695,2.4709315299987793
1772025085517331700,4.999331787109375,-0.32571375370025635,0.17643776535987854,2.275576591491699
1772025085527328500,5.00932861328125,-0.3986521065235138,0.14542943239212036,2.0272347927093506
1772025085537325300,5.0193251953125,-0.48230305314064026,-0.009901302866637707,1.722632646560669
1772025085547322600,5.029322509765625,-0.5950227975845337,-0.19780568778514862,1.3949697017669678
1772025085557320700,5.03932080078125,-0.6586307883262634,-0.49045488238334656,1.05608332157135
1772025085567317500,5.0493173828125,-0.5249068140983582,-1.2435585260391235,0.6262428760528564
1772025085577313500,5.0593134765625,-0.1875908523797989,-2.259263277053833,0.08315320312976837
1772025085587310600,5.069310546875,0.1286838799715042,-2.477379322052002,-0.4347655177116394
1772025085597307600,5.0793076171875,0.5465205311775208,-1.6245123147964478,-0.818245530128479
1772025085607304400,5.089304443359375,1.1579649448394775,-0.6444396376609802,-0.911529004573822
1772025085617301800,5.0993017578125,1.627126932144165,0.33462730050086975,-0.95786452293396
1772025085627298600,5.109298583984375,1.5422248840332031,0.5804942846298218,-1.4382606744766235
1772025085637296600,5.119296630859375,0.9142335057258606,0.2929306626319885,-2.197819471359253
1772025085647293400,5.12929345703125,-0.09848473966121674,-0.029753852635622025,-2.700422525405884
1772025085657290800,5.139290771484375,-0.9479894042015076,0.44782042503356934,-2.5649869441986084
1772025085667287600,5.14928759765625,-1.376448631286621,1.3017510175704956,-2.0312983989715576
1772025085677284600,5.15928466796875,-1.4607728719711304,1.5338157415390015,-1.5789071321487427
1772025085687281700,5.16928173828125,-1.4195009469985962,1.0775747299194336,-1.3712431192398071
1772025085697279700,5.17927978515625,-1.3232284784317017,0.3161838948726654,-1.3053128719329834
1772025085707276500,5.189276611328125,-1.2065439224243164,-0.5023831129074097,-1.2854403257369995
1772025085717273600,5.199273681640625,-1.0290035009384155,-1.1801307201385498,-1.239553689956665
1772025085727270700,5.209270751953125,-0.8308534622192383,-1.6799532175064087,-1.1377559900283813
1772025085737267500,5.219267333984375,-0.7640587091445923,-1.9357078075408936,-1.0853757858276367
1772025085747264500,5.229264404296875,-0.8888497352600098,-1.9531028270721436,-1.2269948720932007
1772025085757261600,5.239261474609375,-1.1368826627731323,-1.7932795286178589,-1.5436583757400513
1772025085767259600,5.249259765625,-1.3949719667434692,-1.4448120594024658,-1.9022029638290405
1772025085777256700,5.259256591796875,-1.537617802619934,-0.7546522617340088,-2.186755895614624
1772025085787253500,5.26925341796875,-1.4467089176177979,0.13033176958560944,-2.3243796825408936
1772025085797250600,5.27925048828125,-1.0967631340026855,1.0357942581176758,-2.296105146408081
1772025085807247600,5.28924755859375,-0.594789981842041,1.7824121713638306,-2.07214617729187
1772025085817244400,5.299244384765625,-0.12029723078012466,2.233830451965332,-1.6427185535430908
1772025085827241700,5.30924169921875,0.22632834315299988,2.2455291748046875,-1.054835557937622
1772025085837237500,5.319237548828125,0.4428976774215698,1.8401356935501099,-0.3801793158054352
1772025085847234800,5.32923486328125,0.5724188685417175,1.197929859161377,0.30152973532676697
1772025085857232600,5.339232666015625,0.6550812721252441,0.4443719983100891,0.8815707564353943
1772025085867229700,5.349229736328125,0.7297481298446655,-0.3189031481742859,1.3196353912353516
1772025085877226500,5.3592265625,0.7977298498153687,-0.9862273931503296,1.6170306205749512
1772025085887223800,5.369223876953125,0.8134996294975281,-1.438486099243164,1.8136175870895386
1772025085897220600,5.379220703125,0.7929949164390564,-1.5887445211410522,1.9317282438278198
1772025085907217400,5.389217529296875,0.7651850581169128,-1.456331729888916,1.9942150115966797
1772025085917215500,5.399215576171875,0.7349709868431091,-1.1694337129592896,2.0207760334014893
1772025085927212800,5.409212890625,0.8196802139282227,-0.6837563514709473,2.0966010093688965
1772025085937209600,5.419209716796875,0.7959173321723938,-0.10665200650691986,2.2252299785614014
1772025085947206400,5.429206298828125,0.7473744750022888,0.33076032996177673,2.3157687187194824
1772025085957203700,5.43920361328125,0.5935247540473938,0.5178378224372864,2.3268771171569824
1772025085967200500,5.449200439453125,0.33682113885879517,0.6446346044540405,2.195765495300293
1772025085977197600,5.459197509765625,0.13207197189331055,0.710811197757721,1.9671818017959595
1772025085987195400,5.4691953125,-0.013146921992301941,0.6506262421607971,1.6146847009658813
1772025085997192700,5.479192626953125,-0.14422771334648132,0.35354477167129517,1.1064670085906982
1772025086007189500,5.489189453125,-0.21694350242614746,-0.1421981155872345,0.4601386487483978
1772025086017186600,5.4991865234375,-0.24083924293518066,-1.0465370416641235,-0.3595426380634308
1772025086027183600,5.50918359375,-0.10141907632350922,-1.97773277759552,-1.0880540609359741
1772025086037180700,5.5191806640625,0.2044345885515213,-1.558569073677063,-1.1284992694854736
1772025086047177500,5.529177490234375,0.568122148513794,-0.6510702967643738,-0.8453844785690308
1772025086057175600,5.539175537109375,0.8809652924537659,-0.05050297826528549,-0.5435125231742859
1772025086067172600,5.549172607421875,0.946834146976471,0.3899625837802887,-0.2334379404783249
1772025086077169700,5.559169677734375,0.620847225189209,0.39206352829933167,-0.05156082659959793
1772025086087166500,5.56916650390625,-0.09404122829437256,0.31680044531822205,-0.10552332550287247
1772025086097163800,5.579163818359375,-0.8332468271255493,0.4890265464782715,-0.14043283462524414
1772025086107160600,5.58916064453125,-0.9753860235214233,1.022603154182434,-0.04004278779029846
1772025086117158700,5.59915869140625,-0.6956164240837097,1.3547958135604858,-0.07456961274147034
1772025086127155500,5.609155517578125,-0.5327430963516235,1.1898432970046997,-0.38852792978286743
1772025086137152800,5.61915283203125,-0.5290279984474182,0.8637059926986694,-0.8101829886436462
1772025086147149600,5.629149658203125,-0.3816215395927429,0.5057934522628784,-1.17227303981781
1772025086157146600,5.639146728515625,-0.0896003246307373,-0.010300827212631702,-1.3722573518753052
1772025086167143700,5.649143798828125,0.23573553562164307,-0.6216390132904053,-1.3219515085220337
1772025086177140700,5.659140625,0.5191349983215332,-1.1502649784088135,-0.965003252029419
1772025086187138600,5.669138671875,0.721544086933136,-1.482353687286377,-0.3188542127609253
1772025086197135600,5.679135498046875,0.8394076228141785,-1.6001391410827637,0.44339439272880554
1772025086207132700,5.689132568359375,0.8408153653144836,-1.4672362804412842,1.042858362197876
1772025086217129700,5.699129638671875,0.7049598097801208,-0.9719951748847961,1.2161015272140503
1772025086227126500,5.70912646484375,0.4229443073272705,-0.1175074353814125,0.831632137298584
1772025086237123600,5.71912353515625,0.11742033809423447,0.8428542613983154,0.06546627730131149
1772025086247121700,5.72912158203125,-0.07868967205286026,1.8096855878829956,-0.8069519400596619
1772025086257118700,5.73911865234375,-0.17986449599266052,2.6306352615356445,-1.5568817853927612
1772025086267115500,5.749115478515625,-0.3140527904033661,3.0957205295562744,-2.181533098220825
1772025086277112800,5.75911279296875,-0.24433550238609314,3.0340871810913086,-2.428162097930908
1772025086287109600,5.769109619140625,-0.2845103144645691,2.8419487476348877,-2.406768798828125
1772025086297106400,5.7791064453125,-0.09541255980730057,2.3351752758026123,-1.966439127922058
1772025086307103700,5.789103759765625,0.17493009567260742,1.8682732582092285,-1.1623084545135498
1772025086317101800,5.799101806640625,0.41712409257888794,1.293296456336975,-0.23063117265701294
1772025086327098600,5.8090986328125,0.586493194103241,0.5724416971206665,0.6826687455177307
1772025086337095400,5.819095458984375,0.6668682098388672,-0.16497085988521576,1.5287795066833496
1772025086347092700,5.8290927734375,0.659064769744873,-0.8330615162849426,2.2699224948883057
1772025086357089500,5.839089599609375,0.5694986581802368,-1.3548169136047363,2.8540523052215576
1772025086367086600,5.849086669921875,0.43426987528800964,-1.6547021865844727,3.2390897274017334
1772025086377084400,5.85908447265625,0.3052186965942383,-1.718032717704773,3.395606279373169
1772025086387081700,5.869081787109375,0.2087414413690567,-1.5706053972244263,3.328439235687256
1772025086397078500,5.87907861328125,0.17296719551086426,-1.2896320819854736,3.0748956203460693
1772025086407075600,5.88907568359375,0.2078981101512909,-0.9060550332069397,2.6854145526885986
1772025086417072600,5.89907275390625,0.27854326367378235,-0.4356750249862671,2.2298686504364014
1772025086427069700,5.909069580078125,0.31962451338768005,-0.0321815051138401,1.752812147140503
1772025086437067500,5.919067626953125,0.27626746892929077,0.1310761272907257,1.2970174551010132
1772025086447064600,5.929064697265625,0.14842534065246582,0.08427204191684723,0.9335029125213623
1772025086457061600,5.9390615234375,0.0009152502752840519,-0.10293406248092651,0.6722950339317322
1772025086467058700,5.94905859375,-0.12222962081432343,-0.3346695303916931,0.45107558369636536
1772025086477055500,5.959055419921875,-0.19968898594379425,-0.5778625011444092,0.18441326916217804
1772025086487052800,5.969052734375,-0.3019804060459137,-0.8884352445602417,-0.216539666056633
1772025086497050600,5.979050537109375,-0.4197179675102234,-1.2726590633392334,-0.7230473756790161
1772025086507047700,5.989047607421875,-0.38257554173469543,-1.4338738918304443,-1.153752326965332
1772025086517044500,5.99904443359375,-0.06012798473238945,-0.9584002494812012,-1.25636625289917
1772025086527041800,6.009041748046875,0.46244531869888306,0.021387754008173943,-0.855718195438385
1772025086537038600,6.01903857421875,0.8004587292671204,0.6907340884208679,-0.2829391360282898
1772025086547035600,6.02903564453125,0.6709740161895752,0.9143857359886169,0.23231154680252075
1772025086557033500,6.039033447265625,0.08808423578739166,0.9883816838264465,0.7018361687660217
1772025086567030800,6.04903076171875,-0.6026362180709839,0.8501559495925903,1.1369935274124146
1772025086577027600,6.059027587890625,-0.9037955403327942,0.7565271854400635,1.5085651874542236
1772025086587027500,6.06902734375,-0.8031021356582642,0.7421056032180786,1.692967176437378
1772025086597024500,6.0790244140625,-0.6099172234535217,0.611777663230896,1.547547459602356
1772025086607021600,6.089021484375,-0.4161269962787628,0.12309041619300842,1.0946024656295776
1772025086617018400,6.099018310546875,-0.22606785595417023,-0.6078349351882935,0.4690949320793152
1772025086627016400,6.109016357421875,-0.09591251611709595,-1.2978527545928955,-0.23122480511665344
1772025086637013500,6.119013427734375,-0.030105270445346832,-1.7954195737838745,-0.888436496257782
1772025086647010600,6.129010498046875,-0.052154216915369034,-2.0086772441864014,-1.3845505714416504
1772025086657007400,6.13900732421875,-0.19091716408729553,-1.8330199718475342,-1.6774802207946777
1772025086667004700,6.149004638671875,-0.445033997297287,-1.2927860021591187,-1.8501087427139282
1772025086677001500,6.15900146484375,-0.715312123298645,-0.591801643371582,-2.011481285095215
1772025086686999600,6.16899951171875,-0.8773108124732971,0.07783203572034836,-2.2349610328674316
1772025086696996400,6.178996337890625,-0.8668230175971985,0.7892417311668396,-2.461524486541748
1772025086706993700,6.18899365234375,-0.6773057579994202,1.4792821407318115,-2.5820071697235107
1772025086716990500,6.198990478515625,-0.38231727480888367,2.0690715312957764,-2.540843963623047
1772025086726987500,6.208987548828125,-0.08350315690040588,2.476954221725464,-2.338951587677002
1772025086736984600,6.218984619140625,0.17079730331897736,2.6252543926239014,-1.9822734594345093
1772025086746982700,6.228982666015625,0.3733559250831604,2.521291971206665,-1.472047209739685
1772025086756979500,6.2389794921875,0.4914093315601349,2.147736072540283,-0.8924647569656372
1772025086766976500,6.2489765625,0.5015746355056763,1.5342339277267456,-0.33421191573143005
1772025086776973600,6.2589736328125,0.43476176261901855,0.7506837248802185,0.18656709790229797
1772025086786970400,6.268970458984375,0.34410208463668823,-0.07598330080509186,0.6871451139450073
1772025086796967400,6.278967529296875,0.22207871079444885,-0.7921075820922852,1.1652272939682007
1772025086806965500,6.288965576171875,0.06101642921566963,-1.3314162492752075,1.5801689624786377
1772025086816962600,6.298962646484375,-0.10059697180986404,-1.6724910736083984,1.9173356294631958
1772025086826959400,6.30895947265625,-0.23578333854675293,-1.802058458328247,2.1691763401031494
1772025086836956400,6.318956298828125,-0.3123750686645508,-1.69571852684021,2.3242435455322266
1772025086846953500,6.328953369140625,-0.2790566086769104,-1.34871506690979,2.3525266647338867
1772025086856950500,6.338950439453125,-0.1458253264427185,-0.8255389332771301,2.2513856887817383
1772025086866948400,6.3489482421875,0.010176336392760277,-0.2963341176509857,2.0417492389678955
1772025086876945400,6.3589453125,0.14535599946975708,0.11609846353530884,1.7789957523345947
1772025086886942500,6.3689423828125,0.2689349353313446,0.36957865953445435,1.5019086599349976
1772025086896939500,6.378939453125,0.37241658568382263,0.4151935577392578,1.2227270603179932
1772025086906936300,6.388936279296875,0.43811023235321045,0.27279722690582275,0.9390946626663208
1772025086916933600,6.39893359375,0.46547818183898926,0.07455870509147644,0.6469184756278992
1772025086926931500,6.408931396484375,0.4753217101097107,-0.16505375504493713,0.3603743016719818
1772025086936928500,6.418928466796875,0.5430610179901123,-0.37665683031082153,0.07630717009305954
1772025086946925300,6.42892529296875,0.6302934885025024,-0.5517822504043579,-0.12202709913253784
1772025086956922600,6.438922607421875,0.7197648286819458,-0.4214591681957245,-0.1596948504447937
1772025086966919400,6.44891943359375,0.8643774390220642,0.07103854417800903,-0.0775209441781044
1772025086976916500,6.45891650390625,1.1079264879226685,0.8776810169219971,0.010980159975588322
1772025086986914300,6.468914306640625,1.4672943353652954,1.8888431787490845,0.08773719519376755
1772025086996911600,6.47891162109375,1.683082103729248,2.345698356628418,-0.18514998257160187
1772025087006908400,6.488908447265625,1.486399531364441,1.6160413026809692,-0.9837871193885803
1772025087016905500,6.498905517578125,0.957371175289154,0.5175379514694214,-1.7629690170288086
1772025087026902500,6.508902587890625,0.4376264214515686,0.2925622761249542,-1.898876667022705
1772025087036899600,6.518899658203125,0.2218581736087799,0.8905031681060791,-1.380359172821045
1772025087046897400,6.5288974609375,0.15266519784927368,1.3408031463623047,-0.7890200018882751
1772025087056894500,6.53889453125,0.06194460764527321,1.2276430130004883,-0.4667961597442627
1772025087066891500,6.5488916015625,0.006916409358382225,0.7790231108665466,-0.34309181571006775
1772025087076888600,6.558888671875,0.10887420177459717,0.1737329214811325,-0.2594645619392395
1772025087086885400,6.568885498046875,0.3641398251056671,-0.5629979968070984,-0.17336684465408325
1772025087096883500,6.578883544921875,0.647068977355957,-1.200082540512085,-0.02346496842801571
1772025087106880500,6.588880615234375,0.8281806707382202,-1.624132513999939,0.19638682901859283
1772025087116877600,6.598877685546875,0.7749539613723755,-1.8008476495742798,0.3646024763584137
1772025087126874400,6.608874267578125,0.5086531639099121,-1.6521252393722534,0.38206249475479126
1772025087136871700,6.61887158203125,0.130368173122406,-1.2894930839538574,0.2674000859260559
1772025087146868500,6.628868408203125,-0.2646278142929077,-0.6414209008216858,0.07060500234365463
1772025087156865500,6.638865478515625,-0.6157158017158508,0.19257543981075287,-0.22214165329933167
1772025087166863400,6.64886328125,-0.8501893281936646,0.9247095584869385,-0.5602105855941772
1772025087176860700,6.658860595703125,-0.9336168766021729,1.431406855583191,-0.8576875925064087
1772025087186857500,6.668857421875,-0.8663678169250488,1.7561876773834229,-1.0331058502197266
1772025087196854500,6.6788544921875,-0.6879581212997437,1.969056248664856,-1.0503623485565186
1772025087206851600,6.6888515625,-0.45557084679603577,2.0906779766082764,-0.9257667064666748
1772025087216848400,6.698848388671875,-0.2252172827720642,2.0663156509399414,-0.7350412011146545
1772025087226846500,6.708846435546875,-0.021495169028639793,1.894906759262085,-0.5133761167526245
1772025087236843500,6.718843505859375,0.1450141817331314,1.6093789339065552,-0.2837112545967102
1772025087246840600,6.728840576171875,0.2731420397758484,1.2370176315307617,-0.11163876950740814
1772025087256837400,6.73883740234375,0.34510597586631775,0.8189836144447327,-0.04268021509051323
1772025087266834400,6.74883447265625,0.3815891742706299,0.3623197674751282,-0.04149102419614792
1772025087276831500,6.75883154296875,0.4076277017593384,0.024680495262145996,-0.008968234062194824
1772025087286829600,6.76882958984375,0.46163690090179443,-0.1232772096991539,0.13478480279445648
1772025087296826600,6.77882666015625,0.5388179421424866,-0.07082172483205795,0.3373991549015045
1772025087306823400,6.788823486328125,0.5756591558456421,0.06942557543516159,0.517098069190979
1772025087316820500,6.798820556640625,0.4900248944759369,-0.11784844100475311,0.5751339197158813
1772025087326817500,6.808817626953125,0.2945643365383148,-0.42642703652381897,0.5440364480018616
1772025087336815600,6.818815673828125,0.04359469190239906,-0.6468944549560547,0.4360112249851227
1772025087346812400,6.8288125,-0.1536267101764679,-0.7139028310775757,0.30704787373542786
1772025087356809500,6.8388095703125,-0.11059428751468658,-0.20735657215118408,0.23594415187835693
1772025087366806500,6.848806640625,0.1763935089111328,0.3044981360435486,0.08963528275489807
1772025087376803300,6.85880322265625,0.4396810531616211,0.5554230213165283,-0.1394341140985489
1772025087386800600,6.868800537109375,0.46594151854515076,0.456664502620697,-0.4228132665157318
1772025087396797400,6.87879736328125,0.33636248111724854,-0.10326884686946869,-0.5955307483673096
1772025087406795500,6.88879541015625,0.2925752103328705,-0.20905835926532745,-0.14992696046829224
1772025087416792300,6.898792236328125,0.3023223876953125,-0.07230076938867569,0.5184987783432007
1772025087426789600,6.90878955078125,0.2712823748588562,-0.056996945291757584,1.0772349834442139
1772025087436786400,6.918786376953125,0.3020991384983063,0.2584497034549713,1.6075230836868286
1772025087446783500,6.928783447265625,0.391053169965744,0.5332435369491577,1.7929221391677856
1772025087456781300,6.93878125,0.4807806611061096,0.39328327775001526,1.4497219324111938
1772025087466778600,6.948778564453125,0.4104231894016266,-0.2854619026184082,0.785361647605896
1772025087476775400,6.958775390625,0.12951134145259857,-0.8989548087120056,0.19524268805980682
1772025087486772500,6.9687724609375,-0.34452277421951294,-1.071217656135559,-0.03544152155518532
1772025087496769500,6.97876953125,-0.6998520493507385,-0.7334630489349365,0.10651881247758865
1772025087506766600,6.9887666015625,-0.7057035565376282,-0.2039390504360199,0.3283422291278839
1772025087516763400,6.998763427734375,-0.5429966449737549,0.09853585809469223,0.3813468813896179
1772025087526761500,7.008761474609375,-0.4187629222869873,0.03858261555433273,0.11738477647304535
1772025087536758500,7.018758544921875,-0.3383503556251526,-0.39394137263298035,-0.4175052344799042
1772025087546755600,7.028755615234375,-0.2889285981655121,-1.0604770183563232,-0.9946980476379395
1772025087556752400,7.03875244140625,-0.24078451097011566,-1.693266749382019,-1.3271547555923462
1772025087566749700,7.048749755859375,-0.22103296220302582,-2.1792354583740234,-1.2649558782577515
1772025087576746500,7.05874658203125,-0.28072506189346313,-2.4804859161376953,-0.9356637597084045
1772025087586742000,7.068741943359375,-0.3934497833251953,-2.5413894653320312,-0.5440892577171326
1772025087596739000,7.078739013671875,-0.49672025442123413,-2.302992343902588,-0.3269258439540863
1772025087606736000,7.08873583984375,-0.5524080395698547,-1.6242467164993286,-0.45143523812294006
1772025087616733200,7.098733154296875,-0.4936709403991699,-0.5279762148857117,-0.9147293567657471
1772025087626730000,7.10872998046875,-0.30002278089523315,0.810821533203125,-1.5137429237365723
1772025087636727000,7.11872705078125,-0.04955088719725609,2.169387102127075,-2.0473194122314453
1772025087646724900,7.128724853515625,0.1617404967546463,3.3037662506103516,-2.4097249507904053
1772025087656722200,7.13872216796875,0.2838440239429474,4.035715579986572,-2.5539071559906006
1772025087666719000,7.148718994140625,0.34299710392951965,4.272945880889893,-2.471038579940796
1772025087676716000,7.158716064453125,0.3766078054904938,4.0189385414123535,-2.170804977416992
1772025087686713000,7.168713134765625,0.394584059715271,3.348525047302246,-1.70912766456604
1772025087696710000,7.1787099609375,0.39313769340515137,2.4084157943725586,-1.133800983428955
1772025087706708000,7.1887080078125,0.35391831398010254,1.3736109733581543,-0.4788852334022522
1772025087716705000,7.198705078125,0.2924402952194214,0.3725804090499878,0.2330792099237442
1772025087726702000,7.2087021484375,0.20071721076965332,-0.5139711499214172,0.9524734020233154
1772025087736699000,7.218698974609375,0.08007202297449112,-1.249122977256775,1.6329879760742188
1772025087746696000,7.228696044921875,-0.04485251009464264,-1.811154842376709,2.2511513233184814
1772025087756693000,7.23869287109375,-0.1606464833021164,-2.2038309574127197,2.810101270675659
1772025087766691000,7.248691162109375,-0.2538064420223236,-2.3943536281585693,3.282447576522827
1772025087776688000,7.258688232421875,-0.3348613381385803,-2.423166275024414,3.6240224838256836
1772025087786685000,7.268684814453125,-0.410134881734848,-2.335360288619995,3.7990496158599854
1772025087796682000,7.278681884765625,-0.45913785696029663,-2.159466505050659,3.7952678203582764
1772025087806679000,7.288678955078125,-0.4922512471675873,-1.9171096086502075,3.6390178203582764
1772025087816675800,7.29867578125,-0.49908384680747986,-1.6443315744400024,3.350916624069214
1772025087826674000,7.308673828125,-0.5202063918113708,-1.405242681503296,2.974672555923462
1772025087836671000,7.3186708984375,-0.5350252389907837,-1.217466950416565,2.5527124404907227
1772025087846668000,7.32866796875,-0.5009798407554626,-1.0315072536468506,2.116173267364502
1772025087856664800,7.338664794921875,-0.38364121317863464,-0.7452070116996765,1.6531691551208496
1772025087866662100,7.348662109375,-0.15540984272956848,-0.44624602794647217,1.1419011354446411
1772025087876659000,7.358658935546875,0.15170376002788544,-0.23281338810920715,0.600574254989624
1772025087886656000,7.368656005859375,0.5284802317619324,-0.12659713625907898,0.11010109633207321
1772025087896653800,7.37865380859375,0.942450761795044,0.07025866210460663,-0.19016073644161224
1772025087906651100,7.388651123046875,1.2660291194915771,0.19094909727573395,-0.4070863127708435
1772025087916648000,7.39864794921875,1.3513836860656738,-0.1799117922782898,-0.8710992336273193
1772025087926645000,7.40864501953125,1.2275761365890503,-0.4417637288570404,-1.3721054792404175
1772025087936642000,7.41864208984375,0.4266112446784973,-0.5960755348205566,-1.7206683158874512
1772025087946639000,7.42863916015625,-0.6460906267166138,-0.341294527053833,-1.6075522899627686
1772025087956637000,7.438636962890625,-1.3672139644622803,0.4868124723434448,-1.12679922580719
1772025087966634000,7.448634033203125,-1.5861719846725464,1.0936133861541748,-0.8924232721328735
1772025087976631000,7.458631103515625,-1.339345932006836,1.2584481239318848,-1.0546348094940186
1772025087986628000,7.468628173828125,-0.918311595916748,1.107969045639038,-1.4102096557617188
1772025087996625000,7.478625,-0.4596518576145172,0.7075422406196594,-1.8155348300933838
1772025088006622000,7.4886220703125,0.0050553795881569386,0.16725841164588928,-2.101613998413086
1772025088016620000,7.4986201171875,0.29600733518600464,-0.36896347999572754,-2.1427180767059326
1772025088026617000,7.5086171875,0.2908361256122589,-0.9055516123771667,-1.9445993900299072
1772025088036614000,7.51861376953125,-0.01507104467600584,-1.3948490619659424,-1.5808554887771606
1772025088046611000,7.52861083984375,-0.48402348160743713,-1.6921309232711792,-1.2519344091415405
1772025088056608000,7.53860791015625,-0.8626407980918884,-1.6356040239334106,-1.1424577236175537
1772025088066605000,7.54860498046875,-0.9668914079666138,-1.1930254697799683,-1.259427785873413
1772025088076603000,7.558602783203125,-0.7913089394569397,-0.36850517988204956,-1.5061701536178589
1772025088086600200,7.56860009765625,-0.3928453326225281,0.7689749598503113,-1.7148516178131104
1772025088096597000,7.578596923828125,0.11849811673164368,2.0175414085388184,-1.7795687913894653
1772025088106594000,7.588593994140625,0.6259821057319641,3.098756790161133,-1.656181812286377
1772025088116591000,7.598591064453125,1.0069211721420288,3.828362226486206,-1.3849215507507324
1772025088126588000,7.608587890625,1.2035233974456787,4.077720642089844,-1.0269328355789185
1772025088136585000,7.6185849609375,1.225226879119873,3.7887744903564453,-0.6208446621894836
1772025088146583000,7.6285830078125,1.1040480136871338,3.045293092727661,-0.2098075896501541
1772025088156580000,7.638580078125,0.868217945098877,1.9343153238296509,0.15737679600715637
1772025088166577200,7.6485771484375,0.5461078882217407,0.6578696966171265,0.4538447856903076
1772025088176574000,7.658573974609375,0.16531020402908325,-0.5029782056808472,0.6981080174446106
1772025088186571000,7.668571044921875,-0.16701814532279968,-1.3060535192489624,0.9145819544792175
1772025088196568000,7.678568115234375,-0.37405627965927124,-1.7454642057418823,1.1307756900787354
1772025088206566100,7.688566162109375,-0.47191286087036133,-1.8341025114059448,1.357715368270874
1772025088216563000,7.69856298828125,-0.46642038226127625,-1.654105305671692,1.5938533544540405
1772025088226560000,7.70856005859375,-0.35911425948143005,-1.3315563201904297,1.8215909004211426
1772025088236557000,7.71855712890625,-0.16438712179660797,-0.9802624583244324,2.0217106342315674
1772025088246553900,7.728553955078125,0.04013211280107498,-0.7222546339035034,2.1545522212982178
1772025088256551000,7.738551025390625,0.18132972717285156,-0.6328957080841064,2.1479434967041016
1772025088266548000,7.7485478515625,0.21694807708263397,-0.7137277126312256,2.011275291442871
1772025088276546000,7.758546142578125,0.13725805282592773,-0.9058007597923279,1.8365510702133179
1772025088286542800,7.76854296875,0.046360451728105545,-1.1065210103988647,1.670048475265503
1772025088296540000,7.778539794921875,0.02935430407524109,-1.1956173181533813,1.4956468343734741
1772025088306537000,7.788536865234375,0.15155291557312012,-1.040310025215149,1.3133434057235718
1772025088316534000,7.798533935546875,0.4295424520969391,-0.6325334310531616,1.1076624393463135
1772025088326530800,7.80853076171875,0.811672568321228,-0.01599947363138199,0.7592293620109558
1772025088336529000,7.81852880859375,1.2689220905303955,0.7789527773857117,0.2524934709072113
1772025088346526000,7.82852587890625,1.824137806892395,1.5133153200149536,-0.340457558631897
1772025088356523000,7.83852294921875,2.3914196491241455,1.6379214525222778,-0.980487048625946
1772025088366519800,7.848519775390625,2.736748456954956,1.5641449689865112,-1.6481094360351562
1772025088376517000,7.85851708984375,2.739630937576294,1.3768930435180664,-2.4349749088287354
1772025088386514000,7.868513916015625,2.2733192443847656,1.3500748872756958,-3.1591315269470215
1772025088396511000,7.878510986328125,1.4983512163162231,1.400496482849121,-3.517322063446045
1772025088406508800,7.8885087890625,0.6880304217338562,1.6465455293655396,-3.0743942260742188
1772025088416506000,7.898506103515625,-0.051534418016672134,1.6331202983856201,-1.9676284790039062
1772025088426503000,7.9085029296875,-0.7000439167022705,1.127790927886963,-0.8578760623931885
1772025088436500000,7.9185,-1.1049411296844482,0.21920324862003326,-0.06891486048698425
1772025088446497000,7.9284970703125,-1.3319947719573975,-0.9535407423973083,0.2828110456466675
1772025088456494000,7.938494140625,-1.3668403625488281,-2.1152865886688232,0.42364510893821716
1772025088466492000,7.948491943359375,-1.2062126398086548,-2.947939395904541,0.5641081929206848
1772025088476489000,7.958489013671875,-0.930072009563446,-3.5908725261688232,0.7655118703842163
1772025088486486000,7.968486083984375,-0.5959100723266602,-4.0719757080078125,0.8752938508987427
1772025088496483000,7.978483154296875,-0.3334057033061981,-4.2482523918151855,0.8127087950706482
1772025088506479900,7.98847998046875,-0.18505652248859406,-4.083786964416504,0.6194146275520325
1772025088516477000,7.998476806640625,-0.09631519764661789,-3.688509702682495,0.34734103083610535
1772025088526474000,8.008473876953126,0.0009852694347500801,-2.984793186187744,0.049492694437503815
1772025088536472000,8.01847216796875,0.1629166454076767,-1.877851963043213,-0.2521803379058838
1772025088546468900,8.02846875,0.39721354842185974,-0.5075343251228333,-0.5031312108039856
1772025088556466000,8.0384658203125,0.6356801986694336,0.7372202277183533,-0.6325656175613403
1772025088566463000,8.048462890625,0.7875332236289978,1.6290489435195923,-0.605582594871521
1772025088576459800,8.058459716796875,0.8397988677024841,2.045680284500122,-0.4352046847343445
1772025088586456300,8.068456298828124,0.774940550327301,1.9635344743728638,-0.19883835315704346
1772025088596454100,8.0784541015625,0.617225170135498,1.5414912700653076,0.044868845492601395
1772025088606451200,8.088451171875,0.4171903729438782,0.9572442173957825,0.2628808915615082
1772025088616448300,8.0984482421875,0.21218131482601166,0.4339767396450043,0.4440823793411255
1772025088626445300,8.1084453125,0.021458661183714867,0.029195036739110947,0.5771581530570984
1772025088636442000,8.118442138671876,-0.18489423394203186,-0.30160871148109436,0.6253552436828613
1772025088646439400,8.128439453125,-0.39935266971588135,-0.5160068869590759,0.6211767196655273
1772025088656436200,8.138436279296876,-0.5805805325508118,-0.5289059281349182,0.6517948508262634
1772025088666434300,8.148434326171875,-0.7206610441207886,-0.3359215259552002,0.7619550824165344
1772025088676431000,8.15843115234375,-0.8201072216033936,-0.04369712620973587,0.9634506106376648
1772025088686428400,8.168428466796875,-0.9204119443893433,0.1481429487466812,1.1715991497039795
1772025088696425200,8.17842529296875,-1.0091973543167114,0.18813484907150269,1.3411493301391602
1772025088706422300,8.18842236328125,-1.0812156200408936,0.11032089591026306,1.4403117895126343
1772025088716419300,8.19841943359375,-1.1436172723770142,-0.045785609632730484,1.4755632877349854
1772025088726416400,8.20841650390625,-1.183804988861084,-0.2839300036430359,1.4619499444961548
1772025088736414200,8.218414306640625,-1.2196189165115356,-0.4120733141899109,1.3831180334091187
1772025088746411300,8.228411376953124,-1.1958961486816406,-0.516393780708313,1.2711424827575684
1772025088756408300,8.238408203125,-1.1352958679199219,-0.5586187243461609,1.1796655654907227
1772025088766405400,8.2484052734375,-1.0108338594436646,-0.5161013603210449,1.148418664932251
1772025088776402200,8.258402099609375,-0.8449764251708984,-0.4093785881996155,1.1350804567337036
1772025088786399200,8.268399169921874,-0.6327368021011353,-0.11260242760181427,1.0741642713546753
1772025088796396300,8.278396240234375,-0.23460012674331665,0.6935998201370239,0.8858276605606079
1772025088806394400,8.288394287109375,0.17754511535167694,1.3578782081604004,0.8742988109588623
1772025088816391200,8.29839111328125,0.6407636404037476,1.9995169639587402,0.8427249193191528
1772025088826388200,8.30838818359375,0.9834056496620178,2.1159896850585938,0.5655680894851685
1772025088836385300,8.31838525390625,1.0883421897888184,1.740136742591858,0.0875101238489151
1772025088846382000,8.328382080078125,0.9035424590110779,1.4637293815612793,-0.3142242729663849
1772025088856379400,8.33837939453125,0.4698387086391449,1.1666122674942017,-0.5567641854286194
1772025088866376200,8.348376220703125,0.009808771312236786,1.0157088041305542,-0.4359336197376251
1772025088876374300,8.358374267578125,-0.22124868631362915,0.9463010430335999,-0.024241432547569275
1772025088886371000,8.36837109375,-0.3292367458343506,0.6033990383148193,0.3070964813232422
1772025088896368400,8.378368408203125,-0.38822710514068604,0.13186480104923248,0.4155276119709015
1772025088906365200,8.388365234375,-0.32209962606430054,-0.4666687250137329,0.2874527871608734
1772025088916362200,8.3983623046875,-0.09106296300888062,-1.1710820198059082,-0.015990696847438812
1772025088926359300,8.408359375,0.22343601286411285,-1.730270266532898,-0.32307761907577515
1772025088936357400,8.418357421875,0.5161799788475037,-1.9633517265319824,-0.5325740575790405
1772025088946354200,8.428354248046874,0.7015848755836487,-1.9490783214569092,-0.6412186026573181
1772025088956351200,8.438351318359375,0.7014562487602234,-1.7281509637832642,-0.6769787669181824
1772025088966348300,8.448348388671874,0.4842134714126587,-1.2938313484191895,-0.722974419593811
1772025088976345300,8.458345458984375,0.1770002543926239,-0.7617530226707458,-0.853967547416687
1772025088986342100,8.468342041015624,-0.05457542836666107,-0.2360413372516632,-1.0524019002914429
1772025088996339200,8.478339111328125,-0.13255704939365387,0.25149157643318176,-1.266768455505371
1772025089006337300,8.488337158203125,-0.08516187965869904,0.6749193072319031,-1.4558759927749634
1772025089016334300,8.498334228515626,0.03385186195373535,1.1053825616836548,-1.6006983518600464
1772025089026331100,8.5083310546875,0.15419979393482208,1.5631412267684937,-1.6550735235214233
1772025089036328200,8.518328125,0.26155978441238403,1.9637317657470703,-1.6178182363510132
1772025089046325200,8.5283251953125,0.33961349725723267,2.17478084564209,-1.4894986152648926
1772025089056322300,8.538322265625,0.3608282208442688,2.158836841583252,-1.2881641387939453
1772025089066319000,8.548319091796875,0.3046947121620178,1.9358090162277222,-1.0308362245559692
1772025089076317200,8.558317138671875,0.18142655491828918,1.5818402767181396,-0.7340028882026672
1772025089086314200,8.568314208984376,0.013032685965299606,1.119000792503357,-0.4292452931404114
1772025089096311300,8.578311279296875,-0.19989928603172302,0.6063185334205627,-0.1396249532699585
1772025089106308000,8.58830810546875,-0.4337640404701233,0.15643446147441864,0.12297885119915009
1772025089116305400,8.598305419921875,-0.6629316806793213,-0.16075600683689117,0.3393486738204956
1772025089126302200,8.60830224609375,-0.8414688110351562,-0.30544716119766235,0.5038555264472961
1772025089136299000,8.618299072265625,-0.9302819967269897,-0.30956414341926575,0.6230727434158325
1772025089146297300,8.62829736328125,-0.9417702555656433,-0.25989338755607605,0.6786813139915466
1772025089156294400,8.63829443359375,-0.8850270509719849,-0.24229790270328522,0.6687712073326111
1772025089166291200,8.648291259765625,-0.7796422839164734,-0.265438437461853,0.6289034485816956
1772025089176288000,8.6582880859375,-0.6528246998786926,-0.3298528492450714,0.550338864326477
1772025089186285300,8.668285400390625,-0.536319375038147,-0.42334896326065063,0.4690759479999542
1772025089196282000,8.6782822265625,-0.4639914035797119,-0.553114116191864,0.3996579945087433
1772025089206279200,8.688279052734375,-0.4465557336807251,-0.6441931128501892,0.3209168314933777
1772025089216277200,8.69827734375,-0.46186837553977966,-0.6631830930709839,0.23954127728939056
1772025089226274300,8.7082744140625,-0.48417121171951294,-0.6188021898269653,0.14358732104301453
1772025089236271000,8.71827099609375,-0.444980651140213,-0.4150351583957672,0.008615376427769661
1772025089246268200,8.72826806640625,-0.3124517500400543,-0.0087663559243083,-0.20089809596538544
1772025089256265200,8.73826513671875,-0.15638785064220428,0.3670206069946289,-0.49550285935401917
1772025089266262300,8.74826220703125,0.04562416672706604,0.6867071986198425,-0.653648316860199
1772025089276259000,8.758259033203124,0.4030874967575073,0.9667207598686218,-0.5331445336341858
1772025089286257200,8.768257080078126,0.8058721423149109,0.7215901613235474,-0.43301841616630554
1772025089296254200,8.778254150390625,0.8996124863624573,0.012043360620737076,-0.5882481932640076
1772025089306251300,8.788251220703126,0.6106030941009521,-0.38857501745224,-0.8768826127052307
1772025089316248000,8.798248046875,-0.020184457302093506,-0.5041300654411316,-1.2071430683135986
1772025089326245400,8.808245361328124,-0.6744779348373413,-0.27107006311416626,-1.2897288799285889
1772025089336242200,8.8182421875,-1.1064327955245972,0.07746528089046478,-1.022443413734436
1772025089346239200,8.8282392578125,-1.351804256439209,0.05160166323184967,-0.6549988389015198
1772025089356236300,8.838236328125,-1.505196452140808,-0.2720629572868347,-0.40177300572395325
1772025089366234400,8.848234375,-1.5234066247940063,-0.8061686158180237,-0.3573234975337982
1772025089376231200,8.858231201171876,-1.4146136045455933,-1.518435001373291,-0.48360341787338257
1772025089386228200,8.868228271484375,-1.140002727508545,-2.2033543586730957,-0.5583875775337219
1772025089396225300,8.878225341796876,-0.738681435585022,-2.7585012912750244,-0.5054769515991211
1772025089406222300,8.888222412109375,-0.3430744409561157,-3.0506651401519775,-0.3896649181842804
1772025089416219100,8.89821923828125,-0.06972067803144455,-3.0287528038024902,-0.2842375636100769
1772025089426216200,8.90821630859375,0.0222538523375988,-2.696967601776123,-0.23190361261367798
1772025089436214300,8.91821435546875,-0.058525945991277695,-2.071729898452759,-0.3042350709438324
1772025089446211300,8.92821142578125,-0.19707098603248596,-1.178408145904541,-0.5064435005187988
1772025089456208100,8.9382080078125,-0.26094797253608704,-0.12974078953266144,-0.7768099904060364
1772025089466205200,8.948205078125,-0.19588211178779602,0.8672812581062317,-1.0325407981872559
1772025089476202200,8.9582021484375,-0.011906690895557404,1.6847025156021118,-1.1168491840362549
1772025089486199000,8.968198974609376,0.24501509964466095,2.258357524871826,-0.9877802729606628
1772025089496196400,8.9781962890625,0.5083625912666321,2.5195565223693848,-0.6849657893180847
1772025089506194200,8.988194091796874,0.7341512441635132,2.4819161891937256,-0.26943933963775635
1772025089516191200,8.998191162109375,0.8913658857345581,2.1967668533325195,0.20223578810691833
1772025089526188000,9.00818798828125,0.9677510857582092,1.7422668933868408,0.6684919595718384
1772025089536185300,9.018185302734375,0.9417418837547302,1.228022813796997,1.1022639274597168
1772025089546182100,9.02818212890625,0.8226137161254883,0.7451241612434387,1.4856255054473877
1772025089556179200,9.03817919921875,0.6213333606719971,0.3443436920642853,1.8264387845993042
1772025089566176300,9.04817626953125,0.3549874424934387,0.052766501903533936,2.102545976638794
1772025089576174300,9.05817431640625,0.07209127396345139,-0.14127008616924286,2.304072856903076
1772025089586175000,9.068175048828126,-0.18291516602039337,-0.25162914395332336,2.435361623764038
1772025089596172000,9.078172119140625,-0.3863396644592285,-0.29836493730545044,2.4956700801849365
1772025089606169000,9.088169189453126,-0.530346155166626,-0.30014920234680176,2.4894490242004395
1772025089616166000,9.098165771484375,-0.603941798210144,-0.23996230959892273,2.409360885620117
1772025089626163000,9.108162841796876,-0.6166885495185852,-0.1357550173997879,2.2707297801971436
1772025089636160000,9.118159912109375,-0.5806823968887329,-0.02737475000321865,2.071596622467041
1772025089646157000,9.128156982421874,-0.5062261819839478,0.06531955301761627,1.8216395378112793
1772025089656155000,9.13815478515625,-0.4323468804359436,0.09747535735368729,1.5535705089569092
1772025089666152000,9.14815185546875,-0.3736611604690552,0.013316408731043339,1.274641513824463
1772025089676149000,9.15814892578125,-0.30957192182540894,-0.13330473005771637,0.9705685377120972
1772025089686146000,9.16814599609375,-0.2007843405008316,-0.2405509054660797,0.6428249478340149
1772025089696142800,9.178142822265626,-0.04321841895580292,-0.22113405168056488,0.25433820486068726
1772025089706140200,9.18814013671875,0.15004877746105194,-0.2505887746810913,-0.13794954121112823
1772025089716137000,9.198136962890626,0.2705608010292053,-0.3748020827770233,-0.5221086144447327
1772025089726135000,9.208135009765625,0.33864352107048035,-0.2979741394519806,-0.9480079412460327
1772025089736131800,9.2181318359375,0.5613570213317871,0.017968900501728058,-1.3630939722061157
1772025089746129200,9.228129150390625,1.086490511894226,0.22181536257266998,-1.7937064170837402
1772025089756126000,9.2381259765625,1.5430452823638916,0.3467106819152832,-2.3521041870117188
1772025089766123000,9.248123046875,1.3693428039550781,0.7852391600608826,-2.860995054244995
1772025089776120000,9.2581201171875,0.6290724873542786,1.1684951782226562,-3.114130973815918
1772025089786117000,9.2681171875,-0.13448204100131989,1.7244422435760498,-2.8161637783050537
1772025089796115000,9.278114990234375,-0.6126957535743713,2.06402587890625,-2.0963478088378906
1772025089806112000,9.288112060546876,-0.8979669809341431,1.634412169456482,-1.2886375188827515
1772025089816109000,9.298109130859375,-1.1172877550125122,0.6223114132881165,-0.6887719631195068
1772025089826106000,9.308106201171874,-1.2452082633972168,-0.685472309589386,-0.4276362955570221
1772025089836103000,9.31810302734375,-1.1905560493469238,-1.9549649953842163,-0.519133448600769
1772025089846100000,9.328099853515624,-0.9294195771217346,-2.7062323093414307,-0.7043920159339905
1772025089856097000,9.338096923828125,-0.5454591512680054,-2.8566324710845947,-0.8121864199638367
1772025089866093800,9.34809375,-0.1790972352027893,-2.4884896278381348,-0.7669501900672913
1772025089876092000,9.358091796875,0.08508674800395966,-1.7698593139648438,-0.6654786467552185
1772025089886089000,9.3680888671875,0.27827370166778564,-0.9267838597297668,-0.5964149236679077
1772025089896086000,9.3780859375,0.4317769706249237,-0.2280856966972351,-0.5395092964172363
1772025089906082800,9.388082763671875,0.5789473056793213,0.2363041639328003,-0.49284476041793823
1772025089916079900,9.398079833984376,0.6949860453605652,0.5443227291107178,-0.4383615553379059
1772025089926077000,9.408076904296875,0.701691746711731,0.965311586856842,-0.3439520299434662
1772025089936074000,9.418073974609374,0.6424457430839539,1.2808796167373657,-0.24648672342300415
1772025089946072000,9.428072021484375,0.5448400974273682,1.2489666938781738,-0.05773930996656418
1772025089956069000,9.438069091796875,0.4083150327205658,0.9856858849525452,0.242826908826828
1772025089966066000,9.44806591796875,0.22861672937870026,0.5911346077919006,0.6073126792907715
1772025089976063000,9.45806298828125,0.057694774121046066,0.14475390315055847,1.000881314277649
1772025089986060000,9.46806005859375,-0.056017957627773285,-0.2767762243747711,1.381646990776062
1772025089996057000,9.47805712890625,-0.08679264783859253,-0.6268154978752136,1.6981735229492188
1772025090006054000,9.488053955078126,-0.07590314000844955,-0.9027263522148132,1.8962962627410889
1772025090016051000,9.498051025390625,-0.03850064054131508,-1.0945696830749512,1.9543260335922241
1772025090026049000,9.508049072265624,-0.017337888479232788,-1.1548210382461548,1.8725519180297852
1772025090036046000,9.518046142578125,-0.029339423403143883,-1.0905542373657227,1.6803292036056519
1772025090046043000,9.52804296875,-0.08068132400512695,-0.921479344367981,1.4249680042266846
1772025090056040000,9.5380400390625,-0.1359400600194931,-0.6488832235336304,1.1499452590942383
1772025090066037000,9.548037109375,-0.15012075006961823,-0.29069674015045166,0.8815558552742004
1772025090076034000,9.558033935546876,-0.13453805446624756,0.06464084982872009,0.6422023773193359
1772025090086030800,9.56803076171875,-0.10331300646066666,0.3602447807788849,0.44890516996383667
1772025090096029000,9.57802880859375,-0.05537450686097145,0.5584923028945923,0.28457534313201904
1772025090106026000,9.58802587890625,-0.0016425640787929296,0.6402853727340698,0.12294016033411026
1772025090116023000,9.59802294921875,0.06752372533082962,0.6225204467773438,-0.05143643170595169
1772025090126019800,9.608019775390625,0.1479848325252533,0.571754515171051,-0.23109985888004303
1772025090136017200,9.61801708984375,0.21273799240589142,0.5519728064537048,-0.4056849777698517
1772025090146014000,9.628013916015625,0.22756581008434296,0.551182210445404,-0.5577582120895386
1772025090156010800,9.6380107421875,0.18336398899555206,0.5289075374603271,-0.6382988691329956
1772025090166008800,9.6480087890625,0.1440049409866333,0.3960646986961365,-0.6087639927864075
1772025090176006100,9.658006103515625,0.11948468536138535,0.2761010229587555,-0.4398719370365143
1772025090186003000,9.6680029296875,0.1969347894191742,0.2885901927947998,-0.10775156319141388
1772025090196000000,9.678,0.441049724817276,0.35039016604423523,0.2844487130641937
1772025090205997000,9.6879970703125,0.7144861817359924,0.20476748049259186,0.5671432018280029
1772025090215993900,9.697993896484375,0.7422080636024475,-0.18692173063755035,0.5084266066551208
1772025090225991000,9.707990966796874,0.44381487369537354,-0.33167290687561035,0.27357515692710876
1772025090235988000,9.717988037109375,-0.16871431469917297,-0.27502402663230896,0.02604844979941845
1772025090245986000,9.727986083984375,-0.8310223817825317,-0.11492307484149933,-0.009085499681532383
1772025090255982800,9.73798291015625,-1.197404384613037,0.06273559480905533,0.227381631731987
1772025090265980000,9.74797998046875,-1.2506076097488403,0.024646781384944916,0.5136775374412537
1772025090275977000,9.75797705078125,-1.150954008102417,-0.20574940741062164,0.6692790985107422
1772025090285974000,9.76797412109375,-0.8966003656387329,-0.5948148369789124,0.6268337368965149
1772025090295970800,9.777970703125,-0.5645196437835693,-1.059739351272583,0.4062960147857666
1772025090305968000,9.787968017578125,-0.1997040957212448,-1.4962908029556274,0.1237146332859993
1772025090315966000,9.797966064453124,0.11793352663516998,-1.7331442832946777,-0.13529109954833984
1772025090325963000,9.807962890625,0.3045400083065033,-1.7603803873062134,-0.4301236867904663
1772025090335959800,9.817959716796874,0.28931257128715515,-1.546104073524475,-0.774974524974823
1772025090345957000,9.82795703125,0.10545588284730911,-1.081298589706421,-1.155921220779419
1772025090355954000,9.837953857421875,-0.12282069027423859,-0.4851209223270416,-1.4958751201629639
1772025090365951000,9.847950927734376,-0.23420271277427673,-0.03201375529170036,-1.7787905931472778
1772025090375948000,9.857947998046875,-0.17692318558692932,0.21243487298488617,-1.9603474140167236
1772025090385945000,9.867945068359376,0.03441191837191582,0.38003531098365784,-1.9811917543411255
1772025090395943000,9.87794287109375,0.3140142858028412,0.5047900080680847,-1.8275142908096313
1772025090405940000,9.88793994140625,0.5598886609077454,0.6009669899940491,-1.5275846719741821
1772025090415937000,9.89793701171875,0.7079542875289917,0.7306599617004395,-1.109480857849121
1772025090425934000,9.90793408203125,0.7361364960670471,0.8713480830192566,-0.6250962615013123
1772025090435931000,9.917930908203125,0.6963413953781128,0.9577836394309998,-0.10875757038593292
1772025090445928200,9.92792822265625,0.6333079934120178,0.9488120079040527,0.4039042890071869
1772025090455926800,9.9379267578125,0.5705711245536804,0.8790702223777771,0.8936220407485962
1772025090465924000,9.947924072265625,0.5231717228889465,0.7474893927574158,1.3561145067214966
1772025090475921000,9.9579208984375,0.46447059512138367,0.5317515134811401,1.7568379640579224
1772025090485918000,9.96791796875,0.3885411024093628,0.2571733593940735,2.0375454425811768
1772025090495915000,9.9779150390625,0.3020240366458893,-0.0472099669277668,2.193608045578003
1772025090505912000,9.987912109375,0.20310325920581818,-0.39297744631767273,2.2400994300842285
1772025090515908900,9.997908935546874,0.09217941761016846,-0.701117992401123,2.1722867488861084
1772025090525907000,10.007906982421876,-0.0198642760515213,-0.9018118977546692,1.9870567321777344
1772025090535904000,10.017904052734375,-0.14867737889289856,-0.892720103263855,1.713634729385376
1772025090545901000,10.027901123046876,-0.26115408539772034,-0.6913947463035583,1.391686201095581
1772025090555897900,10.03789794921875,-0.3147720396518707,-0.35758188366889954,1.0170340538024902
1772025090565895200,10.047895263671874,-0.31225669384002686,0.053664758801460266,0.6197389364242554
1772025090575892000,10.05789208984375,-0.2910992205142975,0.43428507447242737,0.21929721534252167
1772025090585885000,10.067885009765625,-0.24245460331439972,0.7265406847000122,-0.16722580790519714
1772025090595882200,10.07788232421875,-0.1669638305902481,0.8906441330909729,-0.5147765278816223
1772025090605880000,10.087880126953126,-0.09633973240852356,0.9429543018341064,-0.8129428625106812
1772025090615877000,10.097877197265625,-0.06520605087280273,0.864385187625885,-1.0398775339126587
1772025090625874000,10.1078740234375,-0.02821173332631588,0.5704550743103027,-1.1663156747817993
1772025090635871200,10.117871337890625,0.08572308719158173,0.0842670425772667,-1.2252575159072876
1772025090645868000,10.127867919921876,0.268280029296875,-0.4314490854740143,-1.2866411209106445
1772025090655865000,10.137864990234375,0.44276314973831177,-0.6012772917747498,-1.3187686204910278
1772025090665862100,10.147862060546874,0.6164577603340149,-0.4711740016937256,-1.239005208015442
1772025090675860200,10.157860107421875,0.8772915005683899,-0.20102186501026154,-0.9997796416282654
1772025090685857000,10.16785693359375,1.1184126138687134,-0.26797738671302795,-0.8386440277099609
1772025090695854000,10.17785400390625,1.0224682092666626,-0.7471000552177429,-0.8970008492469788
1772025090705851100,10.18785107421875,0.5804764032363892,-0.7643431425094604,-0.8929797410964966
1772025090715848200,10.19784814453125,0.015388756059110165,-0.13479503989219666,-0.7033658623695374
1772025090725845000,10.207844970703125,-0.3123883605003357,0.6731711626052856,-0.3159407079219818
1772025090735842000,10.217842041015626,-0.36444225907325745,1.0626451969146729,0.05630422383546829
1772025090745839000,10.227839111328125,-0.40301311016082764,0.9662038683891296,0.09539198130369186
1772025090755837200,10.237837158203124,-0.5034409165382385,0.4370524287223816,-0.2917288541793823
1772025090765834000,10.247833984375,-0.5692476630210876,-0.3319922089576721,-0.9683995246887207
1772025090775831300,10.257831298828124,-0.5210734605789185,-0.9734167456626892,-1.711211085319519
1772025090785828000,10.267828125,-0.3663610517978668,-1.2068372964859009,-2.2488667964935303
1772025090795825000,10.277824951171874,-0.23799803853034973,-0.969596266746521,-2.457484006881714
1772025090805822200,10.287822265625,-0.2786939740180969,-0.23784762620925903,-2.3066980838775635
1772025090815819000,10.297819091796875,-0.43963173031806946,0.6317650079727173,-1.9510654211044312
1772025090825817000,10.307817138671876,-0.6626739501953125,1.1857212781906128,-1.5762670040130615
1772025090835814000,10.31781396484375,-0.8569965958595276,1.372110366821289,-1.3135403394699097
1772025090845811200,10.327811279296874,-0.9612980484962463,1.351465106010437,-1.2360304594039917
1772025090855808000,10.33780810546875,-0.9015955924987793,1.3421049118041992,-1.329264521598816
1772025090865805000,10.34780517578125,-0.6982564926147461,1.4227195978164673,-1.4767316579818726
1772025090875802000,10.357802001953125,-0.40399953722953796,1.4747612476348877,-1.5900582075119019
1772025090885799200,10.367799072265624,-0.06045205891132355,1.419811487197876,-1.5464962720870972
1772025090895796000,10.3777958984375,0.2747213840484619,1.2966588735580444,-1.233758807182312
1772025090905793300,10.387793212890625,0.5112901329994202,1.0438529253005981,-0.677839457988739
1772025090915791000,10.397791015625,0.6049524545669556,0.6596407294273376,0.04534805566072464
1772025090925788200,10.4077880859375,0.5813887715339661,0.16364821791648865,0.7977966666221619
1772025090935785000,10.417784912109376,0.4356076121330261,-0.39093562960624695,1.4432107210159302
1772025090945782300,10.4277822265625,0.18243087828159332,-0.9155527949333191,1.9241307973861694
1772025090955779000,10.437779052734374,-0.11397203803062439,-1.3290767669677734,2.2224161624908447
1772025090965776100,10.447776123046875,-0.37932080030441284,-1.572387456893921,2.348857879638672
1772025090975773200,10.457773193359374,-0.5507332682609558,-1.5909686088562012,2.327540636062622
1772025090985771300,10.467771240234375,-0.6098818182945251,-1.3585418462753296,2.1772263050079346
1772025090995768000,10.47776806640625,-0.5766205191612244,-0.9128844738006592,1.9347350597381592
1772025091005765000,10.48776513671875,-0.4695238769054413,-0.3734067976474762,1.6332982778549194
1772025091015762200,10.49776220703125,-0.3053503930568695,0.14939728379249573,1.312191128730774
1772025091025759200,10.50775927734375,-0.12096890062093735,0.5013332962989807,1.0288335084915161
1772025091035756000,10.517756103515625,0.06547101587057114,0.6250997185707092,0.7877870798110962
1772025091045753000,10.527753173828126,0.23036037385463715,0.5968260169029236,0.5993481874465942
1772025091055750100,10.537750244140625,0.3360532224178314,0.49429693818092346,0.47652241587638855
1772025091065747000,10.547746826171876,0.3694693446159363,0.2790955603122711,0.4140342175960541
1772025091075745000,10.5577451171875,0.35466164350509644,-0.0029196063987910748,0.3868534564971924
1772025091085742000,10.5677421875,0.3160528242588043,-0.2951423227787018,0.3866029381752014
1772025091095739100,10.5777392578125,0.24296927452087402,-0.6638002395629883,0.39593252539634705
1772025091105736000,10.58773583984375,0.05599110573530197,-1.0204277038574219,0.3241117298603058
1772025091115733200,10.597733154296876,-0.2590691149234772,-1.0763431787490845,0.22724750638008118
1772025091125730000,10.60772998046875,-0.47771209478378296,-0.7348218560218811,0.3253014087677002
1772025091135727000,10.61772705078125,-0.26039016246795654,-0.14163950085639954,0.6800246238708496
1772025091145725000,10.627724853515625,0.2626643180847168,0.18422266840934753,0.9950430393218994
1772025091155722200,10.63772216796875,0.5988934636116028,0.1492156833410263,0.9183543920516968
1772025091165719000,10.647718994140625,0.5937117338180542,0.2469921112060547,0.527829647064209
1772025091175716000,10.657716064453124,0.29695335030555725,0.6889320015907288,0.13620886206626892
1772025091185713200,10.667713134765625,-0.027862317860126495,1.3000928163528442,0.01467656809836626
1772025091195710200,10.677710205078125,-0.2924439311027527,1.3845784664154053,0.0619783028960228
1772025091205707000,10.68770703125,-0.6324920058250427,0.7875852584838867,0.03074781410396099
1772025091215704300,10.697704345703125,-0.9434722661972046,-0.08956599980592728,-0.17752815783023834
1772025091225702100,10.7077021484375,-1.0502322912216187,-0.9367981553077698,-0.5460878014564514
1772025091235699200,10.71769921875,-0.8582759499549866,-1.5026602745056152,-1.0046969652175903
1772025091245696000,10.727696044921874,-0.4455370604991913,-1.6153303384780884,-1.441676378250122
1772025091255693300,10.737693359375,-0.021691234782338142,-1.1776063442230225,-1.7612792253494263
1772025091265690000,10.747690185546874,0.2833288311958313,-0.3644945025444031,-1.9891331195831299
1772025091275687200,10.757687255859375,0.4732963740825653,0.47598502039909363,-2.1400370597839355
1772025091285684200,10.767684326171874,0.563423216342926,1.075568437576294,-2.165839195251465
1772025091295681000,10.777680908203125,0.5352723002433777,1.3519201278686523,-2.0567638874053955
1772025091305678000,10.787677978515624,0.4309879541397095,1.4038513898849487,-1.8037952184677124
1772025091315676200,10.79767626953125,0.3457702696323395,1.3624647855758667,-1.4038641452789307
1772025091325673200,10.807673095703125,0.3493524193763733,1.239818811416626,-0.8744822144508362
1772025091335670000,10.817669921875,0.4271113872528076,1.1185041666030884,-0.2340569645166397
1772025091345667000,10.8276669921875,0.5362421870231628,1.043689250946045,0.4248000979423523
1772025091355664100,10.8376640625,0.6698316931724548,1.0018919706344604,0.9628574252128601
1772025091365661200,10.8476611328125,0.7805940508842468,1.0343704223632812,1.2897073030471802
1772025091375658000,10.857657958984374,0.7995104789733887,1.0451219081878662,1.411266565322876
1772025091385655000,10.867655029296875,0.6877265572547913,0.8356238007545471,1.3718985319137573
1772025091395653000,10.877653076171875,0.47951260209083557,0.340404748916626,1.192314624786377
1772025091405650200,10.887650146484376,0.2571943998336792,-0.21058908104896545,0.9009491801261902
1772025091415647000,10.89764697265625,0.07166661322116852,-0.5514539480209351,0.6088795065879822
1772025091425644000,10.90764404296875,-0.05269337818026543,-0.6224137544631958,0.3655049204826355
1772025091435641000,10.91764111328125,-0.0853826180100441,-0.5136572122573853,0.2245459109544754
1772025091445638100,10.92763818359375,-0.014187254011631012,-0.22989477217197418,0.158901646733284
1772025091455635000,10.937635009765625,0.14285989105701447,0.1800360232591629,0.13913460075855255
1772025091465632300,10.94763232421875,0.3253021836280823,0.5744184851646423,0.13054266571998596
1772025091475630000,10.957630126953125,0.5187435746192932,0.7590605020523071,0.163414865732193
1772025091485627100,10.967627197265625,0.5601152777671814,0.7732252478599548,0.19205540418624878
1772025091495624200,10.977624267578125,0.39820629358291626,0.5985363125801086,0.2331908643245697
1772025091505621200,10.987621337890625,0.1159212589263916,0.264879435300827,0.3189181983470917
1772025091515618000,10.9976181640625,-0.16660523414611816,-0.05483706295490265,0.4583711624145508
1772025091525615000,11.007614990234375,-0.3504652976989746,-0.22496259212493896,0.6846427917480469
1772025091535612200,11.017612060546876,-0.3028967082500458,-0.3024611175060272,0.9963133335113525
1772025091545609000,11.02760888671875,-0.06851068884134293,-0.295466810464859,1.3153133392333984
1772025091555606000,11.03760595703125,0.24430499970912933,-0.2855137884616852,1.558801293373108
1772025091565604000,11.04760400390625,0.4948235750198364,-0.274681955575943,1.7340489625930786
1772025091575601200,11.05760107421875,0.6145262718200684,-0.286899209022522,1.8601057529449463
1772025091585597700,11.06759765625,0.6006355881690979,-0.4706580340862274,1.9421164989471436
1772025091595594800,11.0775947265625,0.538541316986084,-0.6920122504234314,1.961142659187317
1772025091605591800,11.087591796875,0.3707714378833771,-0.9666963219642639,1.7289278507232666
1772025091615588600,11.097588623046875,0.07163161039352417,-1.2213068008422852,1.2144477367401123
1772025091625586000,11.1075859375,-0.2774411737918854,-0.9235951900482178,0.603354275226593
1772025091635582700,11.117582763671875,-0.4480821490287781,-0.17248517274856567,-0.010697952471673489
1772025091645580800,11.127580810546876,-0.3654312789440155,0.4311791956424713,-0.6590344905853271
1772025091655577600,11.13757763671875,-0.29046088457107544,0.579486608505249,-1.2778418064117432
1772025091665575000,11.147574951171874,-0.260366827249527,0.3571099042892456,-1.8158721923828125
1772025091675571700,11.15757177734375,-0.30499929189682007,-0.17166683077812195,-2.414670467376709
1772025091685568800,11.16756884765625,-0.4512166678905487,-0.855620265007019,-3.1802866458892822
