time,seconds_elapsed,z,y,x
1772025080598770200,0.080770263671875,1.08429570415318,0.21723785256296396,0.7898306733943522
1772025080608767200,0.090767333984375,0.42098318634629245,0.3781546829670667,1.012777551253885
1772025080618764300,0.100764404296875,-0.9795686707437038,0.3198530083850026,1.9989507348291575
1772025080628761300,0.11076123046875,-0.7811357641547918,0.11112053383886814,2.773139310194552
1772025080638758100,0.120758056640625,0.8768962317764759,0.4835691141188144,1.8766971048183738
1772025080648755200,0.130755126953125,-0.0846919611185789,0.6540227114140987,0.566300734949857
1772025080658752300,0.140752197265625,-0.7161410216748714,0.15086597651094197,-0.01811608692705631
1772025080668749300,0.150749267578125,-1.3377432264775038,-0.031410452786087985,-0.06792933462709189
1772025080678746000,0.16074609375,-1.1050655204594135,-0.07901566904783248,0.3909722981598228
1772025080688743200,0.1707431640625,0.008224222987890243,-0.3344020504802465,1.5026266224250195
1772025080698740200,0.180740234375,0.5433440761238336,-0.11279665035754441,4.6007983894690865
1772025080708737000,0.190737060546875,2.1448288399249313,-0.11201923624426126,2.3203877975352105
1772025080718734300,0.200734375,1.192701133814454,-1.1535516112089157,-1.1328840862333773
1772025080728731100,0.210731201171875,0.7524825011223554,-1.7380051118344066,-1.4652613528877496
1772025080738728200,0.220728271484375,0.7554103712677955,-1.5383309730127452,-0.2760179583117366
1772025080748725200,0.230725341796875,-0.1052051723152399,-1.4770596349701284,0.584591740052402
1772025080758722300,0.240722412109375,-1.0771627835333346,-1.3038251747846603,0.6456443207778036
1772025080768719000,0.250718994140625,-0.7767845832079648,-1.1221513875558973,1.3797517917759716
1772025080778716400,0.26071630859375,0.30364509316682814,-0.8170940895035862,1.338117612747848
1772025080788713200,0.270713134765625,1.175356615781784,-0.2737012058019638,1.0382735192991792
1772025080798710300,0.280710205078125,1.362418818050623,-0.1581084949851036,1.0582641679264604
1772025080808707300,0.290707275390625,1.1911913137733936,-1.0888377314969897,1.2472294273376463
1772025080818704100,0.3007041015625,1.654862718245387,-1.9039125901326537,0.7581424996454268
1772025080828701200,0.310701171875,1.9954712221503257,-1.6513368822067975,0.2175081208717078
1772025080838698200,0.3206982421875,1.8028630761921405,-0.741362264432013,0.18925795874744653
1772025080848695300,0.3306953125,1.5211264479726552,-0.010772446165978907,0.40923634219020605
1772025080858692000,0.340692138671875,1.1315127978801727,0.40410453225970266,0.07466602247096597
1772025080868689400,0.350689453125,1.988504890269041,0.5515808663323521,-0.08578202137760818
1772025080878686200,0.360686279296875,1.458942086738348,0.6803995539471507,0.3275487505193799
1772025080888683300,0.370683349609375,1.0880173550248144,0.6228083657220006,0.48850006771497423
1772025080898680300,0.380680419921875,1.2105465871065855,0.496899135813117,0.2544908938974142
1772025080908677400,0.390677490234375,1.2092243985921143,0.709369920104742,-0.2074224148608744
1772025080918674200,0.400674072265625,0.7922446026682853,1.198131926691532,-0.44205344690382475
1772025080928671200,0.410671142578125,0.49058396131694315,1.2050818919599056,-0.0380122622039169
1772025080938668300,0.420668212890625,0.5969079085290432,0.020810148316621778,0.5056814310751855
1772025080948665000,0.4306650390625,2.0569623404234645,-1.5869041575238108,0.509526123804599
1772025080958662100,0.440662109375,3.1232810738593337,-2.03397484806776,0.2865130488410592
1772025080968659200,0.4506591796875,2.2834020288348196,-1.3048019108623266,0.6060202394630759
1772025080978656300,0.46065625,1.4215385310173034,-0.38881782353967426,0.9519754381582141
1772025080988653000,0.470653076171875,1.2436463081538676,-0.06500438709110021,1.0707171875905246
1772025080998650400,0.480650390625,1.6196856064021588,-0.24325989030897616,0.6357492419682442
1772025081008647200,0.490647216796875,2.3142367275595666,-0.27467121987789866,-0.15371047922186554
1772025081018644200,0.500644287109375,2.2295874365389348,-0.018585165743529794,-0.1684656748810783
1772025081028641300,0.510641357421875,1.9124673602491615,0.06060644439309835,0.23148855103245003
1772025081038638000,0.52063818359375,2.10643101246953,0.02589695006161928,0.22390428818222133
1772025081048635100,0.53063525390625,2.480318101119995,0.09344663772135972,-0.011684941917995456
1772025081058632200,0.540632080078125,2.8270740217387673,0.33044366824328897,-0.08137914677616208
1772025081068629200,0.550629150390625,3.110505178916454,0.6127379303455353,-0.1266336717259139
1772025081078626000,0.5606259765625,3.1947166630417105,0.7984744369685649,-0.2779327972234227
1772025081088623400,0.570623291015625,2.112229469615221,0.5579688138037919,-0.9450012152314186
1772025081098620200,0.5806201171875,1.1175053153157233,0.22042992660254238,-2.4576269613623616
1772025081108617200,0.5906171875,1.3795195904552935,-0.09033055152744054,-2.306533021314442
1772025081118614300,0.6006142578125,0.9289555048376321,-0.17094897959679364,-1.6926308694951235
1772025081128611300,0.610611328125,-2.137024303653836,-0.1852911009430885,-0.6621564065743237
1772025081138608000,0.620608154296875,-4.704303479868173,-0.5748106430113316,-0.053356044006580484
1772025081148605400,0.63060546875,-8.072598594227433,-1.3473004516348241,0.004132880287338048
1772025081158602200,0.640602294921875,-12.214585586476325,-2.5299019239783287,-0.17662581965681165
1772025081168599000,0.65059912109375,-14.852558593595028,-3.3596082422956823,-1.6663775072112679
1772025081178596400,0.660596435546875,-15.558237842488287,-2.1826769245430824,-3.1884239926382896
1772025081188593200,0.67059326171875,-15.305075566846131,-0.6442685023799538,-5.055709272119403
1772025081198590200,0.680590087890625,-14.402892918121815,0.49749973205476994,-6.693339700534939
1772025081208587300,0.690587158203125,-13.69362236673832,0.43992344913780684,-6.405170408919453
1772025081218584300,0.700584228515625,-12.543258737915753,-0.86078417814821,-4.930950089028477
1772025081228581000,0.7105810546875,-11.051505099421739,-1.9782918315514921,-3.2260622338980434
1772025081238578400,0.720578369140625,-9.214012608397006,-2.379287291879952,-1.5543262683935462
1772025081248575200,0.7305751953125,-7.547163684281706,-2.531436293938756,-0.018235183262079954
1772025081258572300,0.740572265625,-5.801071127581596,-2.3678394306704402,1.0280269967034459
1772025081268569300,0.7505693359375,-4.10972781367898,-1.8972259519755839,1.6020507271207869
1772025081278566100,0.760566162109375,-2.5990432647436856,-1.410518832091987,2.0045669672757387
1772025081288563200,0.770563232421875,-1.3370382930785416,-0.8611810685113072,2.1663246324181555
1772025081298560300,0.780560302734375,-0.13580781584978102,-0.22578531615585087,2.143532516504079
1772025081308557300,0.790557373046875,1.1361615004688501,0.33253523369506,2.06042095644474
1772025081318554000,0.80055419921875,2.475297058087587,0.8480240652963519,1.7920676875419914
1772025081328551200,0.81055126953125,3.9001387223035096,1.2994061892986297,1.7574927793756125
1772025081338548200,0.82054833984375,4.637360525929927,1.6891460961192846,2.4339650768764316
1772025081348545300,0.830545166015625,5.641060013845562,2.1170463683776557,2.0888263821959496
1772025081358542000,0.8405419921875,6.516389726957678,2.4259335999816654,1.8880470586113631
1772025081368539400,0.850539306640625,7.06013010892272,2.5371926655083894,2.020765822404623
1772025081378536200,0.8605361328125,7.57867642839849,2.4737591809958217,2.169239789212495
1772025081388533000,0.870532958984375,8.095857304739951,2.41333598421514,2.3539207954332233
1772025081398530300,0.8805302734375,8.516722417664527,2.4511643412195143,2.4651801532208917
1772025081408527000,0.890527099609375,8.96047799231112,2.4755928261637687,2.720961671450734
1772025081418524200,0.900524169921875,9.455331886032223,2.448431409124285,2.7903850440278646
1772025081428521200,0.910521240234375,9.690970779943466,2.4010848437987264,2.843522467714548
1772025081438518300,0.920518310546875,9.988992772531509,2.3954598435238004,2.879733014258742
1772025081448515000,0.93051513671875,10.249152944236993,2.4295874463140965,2.722522929418087
1772025081458512400,0.940512451171875,10.219985301941632,2.531608143374324,2.549088270485401
1772025081468509200,0.95050927734375,10.159027852153777,2.610985631471872,2.4696225195825097
1772025081478506200,0.96050634765625,10.069498972398042,2.578508718498051,2.2929412799440323
1772025081488503300,0.97050341796875,9.955752181708812,2.4646900316163896,2.31571293759197
1772025081498500400,0.980500244140625,9.733862996208668,2.3639818784594535,2.2829981242090462
1772025081508497200,0.9904970703125,9.461261276081204,2.042475549909472,2.0790946772545573
1772025081518494200,1.000494140625,9.15652721863389,1.6547352924734353,1.669901881945133
1772025081528491300,1.0104912109375,8.715980669161677,1.415317464545369,0.7042626600936055
1772025081538488000,1.020488037109375,7.8086892991214985,1.012258057424426,0.48062297766432166
1772025081548485400,1.0304853515625,6.129907945150136,0.5752446505144239,0.1561088456004858
1772025081558482200,1.040482177734375,3.2811656969606875,0.3536784133583307,-0.7687649428814649
1772025081568479200,1.050479248046875,0.10350538266003131,-0.6957748177334666,-1.5460945927515626
1772025081578476300,1.060476318359375,-2.8858126264333723,-2.724042101809382,-2.474040043763816
1772025081588474000,1.07047412109375,-6.577443038335442,-4.803811317324638,-3.946867155730724
1772025081598471200,1.08047119140625,-10.053642062574625,-6.606004531431198,-4.353002901557088
1772025081608468000,1.090468017578125,-13.230040394115447,-8.16154645922482,-4.344457483790815
1772025081618465300,1.10046533203125,-15.739257257461547,-8.498785778957604,-5.08933973904252
1772025081628462000,1.110462158203125,-18.245080386716126,-6.161075236830115,-6.658753540322184
1772025081638459100,1.120459228515625,-17.147570396202802,-3.1826620681107043,-9.559248772102594
1772025081648456200,1.130456298828125,-15.030919603013992,-2.235519456936419,-9.897054493546486
1772025081658453200,1.140453369140625,-14.091812706518173,-3.5674627649635076,-6.863107653653621
1772025081668450000,1.150449951171875,-13.310924195122718,-4.667210305270553,-4.116157554465532
1772025081678447000,1.160447021484375,-11.339674391037224,-5.065307121548057,-2.3786061777479945
1772025081688444200,1.170444091796875,-9.516015779575705,-5.148725993990898,-0.7399538589388132
1772025081698441000,1.18044091796875,-8.480268710014224,-4.6030631195306775,0.3663970251560211
1772025081708438300,1.190438232421875,-6.928125777009129,-2.985243891522288,0.7068752537447959
1772025081718435000,1.20043505859375,-4.939903795334696,-1.307880295394361,0.6142230543367564
1772025081728432000,1.21043212890625,-2.8909914903759955,0.09344809902608395,0.5347788576785475
1772025081738429200,1.22042919921875,-0.8002882083922624,1.2544170007541775,0.457577508043684
1772025081748426200,1.23042626953125,1.0181436083316802,2.020727390090376,0.47465120977833863
1772025081758423000,1.240423095703125,2.5506238094896077,2.4920126305669545,0.9104480074401944
1772025081768420000,1.250420166015625,3.837973650291562,2.7895050463229416,1.2197216810785234
1772025081778417200,1.260417236328125,5.007517195880412,2.9215926726058123,1.4057966258756815
1772025081788414000,1.2704140625,5.977536532512307,2.916806315112114,1.5149794696502386
1772025081798411000,1.280410888671875,6.781252961787581,2.9135394222706554,1.6047608628623187
1772025081808408000,1.290407958984375,7.545308996325731,2.7672259944975375,1.6542422482594847
1772025081818405000,1.300405029296875,8.134614028635621,2.5592443383187056,1.6457826090805232
1772025081828402000,1.31040185546875,8.482192956075071,2.473872578242421,1.671571276462078
1772025081838399200,1.320399169921875,8.788615112739802,2.3805080658465623,1.7026719326466322
1772025081848396000,1.33039599609375,9.157095958432555,2.30166439236477,1.7505071582719682
1772025081858393000,1.34039306640625,9.45209246571958,2.273078203219175,1.6771141514115036
1772025081868390100,1.35039013671875,9.605797757309675,2.231963664150983,1.618691042406857
1772025081878387200,1.36038720703125,9.719564421743154,2.151642027071118,1.6663877363443373
1772025081888385000,1.370385009765625,9.730450557416678,2.016000799959898,1.581977368646115
1772025081898382000,1.380382080078125,9.58775415109694,1.8760808726161717,1.535046398384124
1772025081908379100,1.390379150390625,9.398182011833786,1.6655898639649152,1.5617492580011485
1772025081918376200,1.400376220703125,9.094877694928645,1.63760587849617,1.205534677228704
1772025081928373000,1.410373046875,8.873907377839087,1.1586842979222536,1.0778181056369096
1772025081938370000,1.4203701171875,8.797517965641617,0.7908838357090949,1.9038643670767545
1772025081948367000,1.4303671875,7.896263537678122,0.8738304144650697,1.1352498655166476
1772025081958364000,1.440364013671875,6.56664808807671,0.5895303654983639,0.6631285395421087
1772025081968361200,1.450361328125,5.351701804706454,-0.06717384008467198,1.127147150016576
1772025081978358000,1.46035791015625,3.1480490198910234,-0.3086281422764063,0.34423579102400687
1772025081988355000,1.47035498046875,0.4768564647376537,-0.47713206680864095,-0.7422714151661842
1772025081998352100,1.48035205078125,-2.0154946040034294,-1.4128995897486805,-1.3292244044572115
1772025082008349200,1.49034912109375,-5.317741667437553,-2.211749582031369,-2.1122993199810383
1772025082018346000,1.500345947265625,-9.048291300320624,-2.6189187625586987,-2.7959640132039785
1772025082028343300,1.51034326171875,-11.915334928876161,-3.5682112452432513,-3.290271378958225
1772025082038340000,1.520340087890625,-14.459925887942314,-5.569366650509834,-3.100159725990891
1772025082048337200,1.530337158203125,-17.24533752747178,-6.303263109105825,-2.940118509377539
1772025082058334200,1.540334228515625,-18.172789057487247,-3.9926369732588527,-4.9229894854128355
1772025082068331000,1.5503310546875,-17.057476868301627,-1.9263231593832373,-7.191584405738115
1772025082078328000,1.560328125,-15.12840616377592,-1.9431763867676257,-6.850650323140621
1772025082088325000,1.5703251953125,-14.350702127635477,-2.9704762382403014,-5.258877390536665
1772025082098322200,1.580322265625,-13.762946662855148,-3.693274671977758,-3.8948371087640523
1772025082108319000,1.590319091796875,-11.745483389127253,-4.011126569673419,-2.782406612494588
1772025082118316300,1.60031640625,-10.131146158015728,-4.633314757670462,-1.463782658637315
1772025082128313000,1.61031298828125,-9.26344504008591,-4.551110229453444,-0.28747902606269343
1772025082138311200,1.620311279296875,-7.611524220511317,-3.5379075846552848,0.049194896605983376
1772025082148308000,1.630307861328125,-5.430686494094133,-2.22863978042528,-0.25467026905231177
1772025082158305300,1.64030517578125,-3.1422897257119415,-0.9064251085996627,-0.5282030594848096
1772025082168302000,1.650302001953125,-0.9209738584339618,0.14895517445355652,-0.4945638977985829
1772025082178299100,1.660299072265625,0.9873813903212547,0.9850725288569927,-0.3726977327354252
1772025082188296200,1.670296142578125,2.7021190238147974,1.5519462413892149,-0.3369745678493753
1772025082198293200,1.680293212890625,4.189985007220506,1.8739706024639307,-0.4128661500599235
1772025082208290000,1.6902900390625,5.663221576771139,1.9054110119968652,-0.2844873882323503
1772025082218287000,1.700287109375,6.960393723407387,1.8483631368681788,-0.22341646813265978
1772025082228284200,1.7102841796875,8.045776053753494,1.8847665756359695,-0.2502504067834467
1772025082238281000,1.720281005859375,8.945627629181741,1.9196467503592372,-0.22882124978564677
1772025082248278000,1.730278076171875,9.695954413574933,1.9871071523003279,-0.1434475169479847
1772025082258275000,1.740275146484375,10.222062692737579,2.083224616666138,0.09589783026576042
1772025082268272000,1.750272216796875,10.575651674246787,2.159841115617752,0.35584516293816265
1772025082278269000,1.76026904296875,10.858172146320342,2.212926224595308,0.4399277599867433
1772025082288266200,1.770266357421875,11.147134049618243,2.4527552636727687,0.551284513734281
1772025082298263000,1.780262939453125,11.242743126070499,2.6567893512696026,0.7103398611154407
1772025082308260000,1.790260009765625,11.190928767681122,2.7390231055811047,0.759365246373415
1772025082318257200,1.800257080078125,11.032165608179568,2.6220988538995385,0.7745564588297158
1772025082328254200,1.810254150390625,10.738003798151016,2.3859558098584412,0.915589242786169
1772025082338252000,1.820251953125,10.423061065900326,2.2777947103470564,1.0160950783040374
1772025082348249000,1.8302490234375,10.104998155802488,2.348764435583353,1.0090716094080359
1772025082358246100,1.84024609375,9.750298582702875,2.4392671288073062,0.8934757567860185
1772025082368243200,1.8502431640625,9.35380510996878,2.478117376205325,0.6505000171806663
1772025082378240000,1.860239990234375,8.77310131726563,2.4319018607363105,0.2736039559725672
1772025082388237000,1.870237060546875,7.739685321000218,2.246724449300766,-0.023094911952666004
1772025082398234000,1.880234130859375,6.060824472051858,1.8440300760999322,0.07273991781317163
1772025082408231000,1.89023095703125,3.7982173939645287,1.2211620891451835,-0.032864834579173476
1772025082418228200,1.900228271484375,0.7115636307567358,0.2996516396164894,-0.5345998843824491
1772025082428225000,1.91022509765625,-2.39934895991683,-0.6400628673836588,-1.3154974923998117
1772025082438222000,1.92022216796875,-5.217830509877205,-1.6258648795589803,-1.9908315796509384
1772025082448219100,1.93021923828125,-9.398519280964136,-2.974325022622943,-2.33211973638311
1772025082458216200,1.94021630859375,-13.577459162557124,-4.831088615828752,-1.78057277232036
1772025082468213000,1.950212890625,-16.794398763322828,-7.046658632931113,-1.1521990275561809
1772025082478210300,1.960210205078125,-19.167403321671486,-6.21216654164195,-2.53528946223557
1772025082488207000,1.97020703125,-18.47495063409805,-2.773167367245257,-5.7688481893688435
1772025082498204000,1.980203857421875,-16.517515420353412,-1.818645459474623,-6.591748627063631
1772025082508202000,1.990201904296875,-15.044105247801541,-2.0332699146687983,-5.355137624374032
1772025082518199300,2.00019921875,-13.762266279375552,-2.4945322121724485,-4.134631368789076
1772025082528196000,2.010196044921875,-11.884162376499175,-2.7550217619627713,-3.1307533094361424
1772025082538193200,2.020193115234375,-9.688491822609304,-3.1434871188029647,-1.903044282865524
1772025082548190200,2.030190185546875,-7.814539778715371,-3.696193189772963,-0.5787760760435834
1772025082558187000,2.04018701171875,-6.645735653316974,-3.7588515982598065,0.43866270848698913
1772025082568184000,2.05018408203125,-5.213481082496047,-3.3097575851947068,0.891150747904554
1772025082578182000,2.060181884765625,-3.572241815933585,-2.5090213407739994,0.6521857052452862
1772025082588179000,2.070178955078125,-1.6322575032055378,-1.3877926210209726,0.1826432167828083
1772025082598176000,2.080176025390625,0.3000257336258888,-0.4046098514333367,-0.1063204400807619
1772025082608172800,2.0901728515625,1.9856798959761857,0.2732142990678549,-0.2114039587777108
1772025082618169900,2.100169921875,3.2277333819806575,0.7549713953286409,-0.28571481113545594
1772025082628167000,2.1101669921875,4.290749566739797,1.0569006244882941,-0.36040859839618206
1772025082638163700,2.120163818359375,5.342320228376984,1.2194253284804522,-0.3581386807028204
1772025082648161000,2.1301611328125,6.352551163887977,1.1694982451424003,-0.3618156887151301
1772025082658157800,2.14015771484375,7.24569710419774,0.90006594883129,-0.2799878117907792
1772025082668156000,2.150156005859375,7.955829240846634,0.7443876036025583,-0.13476590558141469
1772025082678152700,2.160152587890625,8.490783674287796,0.7630920118115841,0.07507818346843123
1772025082688150000,2.17014990234375,8.951885520532727,0.8067861921094357,0.2568502434398979
1772025082698146800,2.180146728515625,9.304798210215568,0.6156327750042081,0.41070363826379175
1772025082708143900,2.190143798828125,9.396320894137025,0.3221358586251736,0.6835823487017303
1772025082718141000,2.200140869140625,9.260994724324345,0.15385171432346104,1.0253014441970736
1772025082728138000,2.210137939453125,9.192766406750678,0.08053484143912791,1.1682108356803655
1772025082738134800,2.220134765625,9.177538442480564,0.08435586103200912,1.0711643468361347
1772025082748132000,2.230132080078125,8.996867402553558,0.18949965854883194,0.890246565606445
1772025082758129000,2.24012890625,8.568198337879776,0.32635376858115195,0.7719214341510087
1772025082768126000,2.2501259765625,8.134902197927236,0.38386604635119437,0.6821236012607812
1772025082778123000,2.260123046875,7.597246688833832,0.46097734308242794,0.6922915056623518
1772025082788119800,2.270119873046875,7.015083929494023,0.5444874009400605,0.6717547674596309
1772025082798116900,2.280116943359375,6.226194482472539,0.598566197130084,0.6617739100627601
1772025082808114000,2.290114013671875,5.137912339031696,0.7154273204475641,0.6654957070648669
1772025082818112000,2.300112060546875,3.927917540588975,0.6447931107759476,0.542573091751337
1772025082828108800,2.31010888671875,2.477899349540472,0.5079030526474118,0.15151214719368145
1772025082838105900,2.32010595703125,0.5186895273387432,0.49635786854326724,-0.13756657828376628
1772025082848103000,2.33010302734375,-1.6491618762552738,0.2263330131664872,-0.2410093349032104
1772025082858100000,2.340099853515625,-3.4213375532388683,-0.28036329403966664,-0.7672996195692569
1772025082868096800,2.3500966796875,-5.360813916444778,-0.8448936583161354,-1.4599182382941245
1772025082878094000,2.360093994140625,-7.103716152670979,-1.9824188483536243,-1.6851044195130467
1772025082888091000,2.3700908203125,-8.705617680579424,-3.473310901582241,-0.8906198558982461
1772025082898088000,2.380087890625,-10.869220779079198,-4.9132618721246715,0.23411051530018448
1772025082908085000,2.3900849609375,-13.00765319596529,-5.6993830234766,1.1448841744981706
1772025082918082000,2.40008203125,-13.84593240457773,-5.43399371894598,1.5516031270399688
1772025082928078800,2.410078857421875,-13.542869495213031,-4.243148442131281,0.34281931182220576
1772025082938076000,2.420075927734375,-12.996174355095624,-3.328105435051024,0.20089476665779948
1772025082948073000,2.430072998046875,-12.661186029160023,-3.6587250443831083,1.9122166003584862
1772025082958071000,2.440071044921875,-12.964248938524722,-3.993057244497537,3.0736241857647895
1772025082968067800,2.45006787109375,-12.952510569936036,-3.5010558175981044,3.450645480787754
1772025082978065000,2.46006494140625,-11.666273658812045,-3.105076724126935,3.358174117839336
1772025082988062000,2.47006201171875,-10.312267279797792,-2.8130720921322703,3.059899611794948
1772025082998058800,2.480058837890625,-9.070432989501953,-1.8014397653907537,2.699666954487562
1772025083008055800,2.490055908203125,-7.234142860004305,-0.8920666206404566,2.1941040352255103
1772025083018052900,2.500052978515625,-5.515293115016818,0.1308779582321644,1.5731154322765766
1772025083028050000,2.5100498046875,-3.4490853918641804,1.278284490814805,0.9070886870749294
1772025083038046700,2.520046630859375,-1.4158534711182116,2.22177208661288,0.3823487736560404
1772025083048044000,2.5300439453125,0.27977263467013835,2.905489386805892,-0.01336377783343196
1772025083058040800,2.540040771484375,1.7195348046422003,3.178083800409734,-0.42418256690949196
1772025083068038000,2.550037841796875,2.6107617595881223,3.4857974581897255,-0.8176311189897358
1772025083078035000,2.560034912109375,3.3454695345669982,4.001839101368189,-1.0533948083244264
1772025083088033000,2.570032958984375,4.334012369883061,4.284075495803356,-1.2825791192688047
1772025083098029800,2.58002978515625,5.3009536142438645,4.276434625661373,-1.645890307238698
1772025083108027000,2.59002685546875,6.196677296087145,4.242294163389504,-2.029516991876066
1772025083118024000,2.60002392578125,7.019578318303823,4.244926265458762,-2.292249352157116
1772025083128021000,2.61002099609375,7.5424109367966645,4.295319066612422,-2.395333586795628
1772025083138017800,2.620017822265625,7.8967592122405765,4.332489105838537,-2.316639697048068
1772025083148014800,2.630014892578125,8.27243844500482,4.317388567340374,-2.201450452465564
1772025083158012000,2.640011962890625,8.70187557144165,4.368429895530641,-2.157732306770235
1772025083168008700,2.6500087890625,9.048533292382954,4.383871502551436,-1.9941475723311304
1772025083178006000,2.660006103515625,9.17909385522902,4.37123939999342,-1.825147096453607
1772025083188002800,2.6700029296875,9.22866248051822,4.533104617163539,-1.8007739949584005
1772025083197999900,2.679999755859375,9.27937326157987,4.7921004212647675,-1.771253155311197
1772025083207997700,2.689997802734375,9.214683639526367,4.906783616021276,-1.6841745913170276
1772025083217995000,2.6999951171875,9.053432170340418,4.984724349313974,-1.503142462992668
1772025083227991800,2.70999169921875,8.867278899610042,5.090349208346009,-1.341391665982455
1772025083237988900,2.71998876953125,8.607179518181086,5.254671755540371,-1.2059119130432605
1772025083247986000,2.72998583984375,8.349945463055372,5.3170127686411135,-1.1219514810696243
1772025083257983000,2.73998291015625,8.018225783526898,5.127613063335418,-1.177045153390616
1772025083267979800,2.749979736328125,7.444836697751283,4.7148850796371695,-1.2388165499098598
1772025083277977000,2.75997705078125,6.732286978566647,4.141508268821239,-1.143944117169082
1772025083287974000,2.769973876953125,5.7471665189147,3.419726026389003,-0.9011620735049247
1772025083297971000,2.779970947265625,4.0929789234519,2.5987884131997823,-0.6345318290024995
1772025083307968000,2.789968017578125,1.8977467609792946,1.2569202157467603,-0.42896775535941123
1772025083317964800,2.79996484375,-0.37456922569572926,-0.7120879468917847,-0.7322177117288112
1772025083327963000,2.809962890625,-2.3047604586839676,-2.7759599205732344,-0.9451805173210799
1772025083337960000,2.8199599609375,-4.581127766576409,-4.206021365264058,-0.6305031580083071
1772025083347957000,2.82995703125,-6.980223043993115,-6.703719640251994,0.04963219204470515
1772025083357953800,2.839953857421875,-9.751452428913115,-9.611170682519674,0.5813103802941739
1772025083367950800,2.849950927734375,-13.234271163552998,-11.273486639380454,1.90097726733312
1772025083377948000,2.859947998046875,-15.046432813966273,-12.719378690409659,3.8674955128520723
1772025083387945000,2.869945068359375,-15.21428879598379,-12.07585749926567,3.374461820295453
1772025083397941800,2.879941650390625,-14.527897600406407,-10.084196190792321,2.2073801347754896
1772025083407939000,2.88993896484375,-13.911029438388347,-9.407647174793482,2.5554268258571624
1772025083417936000,2.899935791015625,-13.47882460080385,-8.882306372871994,3.039825376537442
1772025083427933000,2.909932861328125,-12.290869200211763,-8.182199955675005,3.1997879749566316
1772025083437930000,2.919929931640625,-10.73376133827567,-7.217296354621649,2.995485007290542
1772025083447928000,2.929927978515625,-8.918613950049876,-5.687608414530754,2.7463158929377793
1772025083457924900,2.9399248046875,-6.8392778652548785,-4.095629437960684,2.478329557651281
1772025083467922000,2.949921875,-4.667966676595807,-2.6846041176512836,2.0440917529344556
1772025083477919000,2.9599189453125,-2.7486522269308566,-1.1186083081215619,1.4931322333708406
1772025083487916000,2.969916015625,-1.0003057538241147,0.43273850606977937,0.9469327678158879
1772025083497912800,2.979912841796875,0.5521884768366814,1.502618439118564,0.48736733735799787
1772025083507910000,2.989909912109375,1.5757576173484324,2.151410848663747,-0.12809914116859436
1772025083517907000,2.999906982421875,1.838731677430868,2.793540000927448,-0.6790744428232312
1772025083527903700,3.00990380859375,1.689087643930316,3.4949142461031673,-0.9177738933488726
1772025083537900800,3.01990087890625,2.046879337826371,4.1614144540354605,-1.3891642016351222
1772025083547897900,3.02989794921875,2.838710683518648,4.739729305775463,-2.130955066742748
1772025083557896000,3.03989599609375,3.7713551060020922,4.931389649489522,-2.4596625588431955
1772025083567892700,3.049892822265625,4.595500575321912,4.82320458458066,-2.5782261021643875
1772025083577889800,3.059889892578125,5.302321395465731,4.7276326252684,-2.6748335420042273
1772025083587886600,3.069886474609375,5.8932566593259565,4.452034353673458,-2.4191351720131933
1772025083597883600,3.079883544921875,6.444523345142603,4.033463781426847,-1.7939891571238635
1772025083607880700,3.089880615234375,6.86434041031897,3.681215985393524,-1.305048432969302
1772025083617877800,3.099877685546875,7.207264789950847,3.375413129670918,-0.9990389487586915
1772025083627874600,3.10987451171875,7.4801353901475665,3.2052883259385823,-0.6919738180153071
1772025083637871600,3.11987158203125,7.539900415280461,3.1716146043956277,-0.46460386301651596
1772025083647868700,3.12986865234375,7.556384517091512,3.2382606212139127,-0.640301352314651
1772025083657865500,3.139865478515625,7.665069932737946,3.475158867536485,-0.7992246708139776
1772025083667863600,3.149863525390625,7.81241737973392,3.4969743935033675,-0.8185469186604023
1772025083677860600,3.159860595703125,7.847583385661244,3.4959622938513752,-0.8221202471025287
1772025083687857700,3.169857666015625,7.73227825961411,3.700567751595378,-0.6792690886124968
1772025083697854500,3.1798544921875,7.696585599464178,3.8327357496380805,-0.48531098935008044
1772025083707851800,3.189851806640625,7.8239803917557,3.6929461706757545,-0.32998291886374354
1772025083717848600,3.1998486328125,7.55329239629507,3.145729637032747,0.045028132315352555
1772025083727845600,3.209845703125,7.308502812200785,2.686891059544682,0.3185946058217436
1772025083737842400,3.219842529296875,7.911718880963325,2.434391047203541,0.24962372625246643
1772025083747839700,3.22983984375,8.476595574459433,1.9381202724218367,0.24757965320423245
1772025083757836500,3.23983642578125,8.054936680808662,1.9762369448482988,0.3440578406412154
1772025083767834600,3.249834716796875,5.978050911775231,2.6911685907334086,0.5368231499224901
1772025083777831700,3.259831787109375,1.4613660990148782,3.1903020614698527,0.4842176776880398
1772025083787828700,3.269828857421875,-3.7324656956374644,1.8349971670776604,-0.6598809359230101
1772025083797825500,3.279825439453125,-3.5543998697727917,-0.7898945324108004,-1.754890487922728
1772025083807822600,3.289822509765625,-1.984386933556199,-3.980646091213822,-2.8299592217862606
1772025083817819600,3.299819580078125,-9.136994250646232,-6.1839388105452056,-1.683228250377625
1772025083827816700,3.309816650390625,-12.440658779662847,-6.637205140858888,1.0227994713135062
1772025083837813500,3.3198134765625,-12.34755262594223,-6.400246981042623,0.19025948220649733
1772025083847810600,3.329810546875,-15.870554902410506,-6.072355919891596,-0.554244240322709
1772025083857807600,3.3398076171875,-17.032046658968923,-4.4205195637300605,-1.2719421360507606
1772025083867805700,3.3498056640625,-14.655322203314304,-2.572003574387729,-2.0864619911521674
1772025083877802500,3.359802490234375,-13.195463586252927,-4.1030113649055355,-0.26946473727598785
1772025083887799600,3.369799560546875,-13.343327750599384,-6.416473308700323,2.7268746948868037
1772025083897796600,3.379796630859375,-12.854562236881256,-6.44708355101943,4.623220356896519
1772025083907793400,3.38979345703125,-11.661915463602542,-5.829124671155214,4.441020792227984
1772025083917790700,3.399790771484375,-10.294772539639473,-4.852870531786978,3.9774242065578695
1772025083927787500,3.40978759765625,-8.15940126388967,-3.2174183241933583,3.7835140380904075
1772025083937784600,3.41978466796875,-5.941370994153618,-2.2290619513601064,3.373877882927656
1772025083947781600,3.42978173828125,-3.4538299560427665,-1.6186410657852888,2.627286193409562
1772025083957778700,3.43977880859375,-1.0210369916856288,-0.5725055809393524,1.223926147031039
1772025083967776500,3.449776611328125,1.40349141767323,0.8496341308414935,-0.1147819789558649
1772025083977773600,3.459773681640625,3.471729185348749,1.64622231567204,-1.2913209363900124
1772025083987770600,3.4697705078125,4.314580524182319,1.5018588529229164,-2.0127040965020657
1772025083997767700,3.479767578125,3.7348604818195104,1.577910995990038,-1.855498103314638
1772025084007764500,3.489764404296875,2.441083822840452,2.3865151973068714,-1.2392094947502017
1772025084017761800,3.49976171875,1.3687813388198613,2.889010253430903,-1.6033810989417134
1772025084027758600,3.509758544921875,1.1332114184916018,3.1489073902860283,-1.065355222165957
1772025084037755400,3.51975537109375,1.0794850890010594,3.7053140693396327,0.21979836896704508
1772025084047752700,3.529752685546875,2.6088649860560893,3.258952111586928,1.0040824958838521
1772025084057750800,3.539750732421875,4.3062773907393215,2.530167881438136,0.855553730148822
1772025084067747600,3.54974755859375,5.747802478730678,1.266288932594657,0.016255772947892547
1772025084077744600,3.55974462890625,8.959065787425637,-0.7060247743953019,0.7920304484609514
1772025084087741700,3.56974169921875,10.303077426648139,-1.1424228989511727,2.273895364820957
1772025084097738500,3.579738525390625,10.240797788345812,0.6390353509668261,1.3868325438171625
1772025084107735600,3.589735595703125,9.225694278362393,1.473787481431663,0.321269231858477
1772025084117732600,3.599732666015625,8.806330802172422,1.537609965261817,-1.10628424859941
1772025084127729700,3.609729736328125,9.34899507933855,1.3479510244980453,-1.890170772767067
1772025084137726500,3.6197265625,10.520164180302618,2.447626376351714,-0.7823981853060424
1772025084147724500,3.629724609375,10.549827497160434,2.570131643036008,0.17671565336473286
1772025084157721600,3.6397216796875,7.2271058009743685,1.500458922997117,-0.6440029833115637
1772025084167718700,3.64971875,5.181294969162344,1.9892223908886313,-0.29673699427880346
1772025084177715500,3.659715576171875,5.95457125198841,2.0851222669810054,0.0490013467952609
1772025084187712800,3.669712646484375,7.024369644233584,1.027349828094244,0.032704218923673034
1772025084197709600,3.67970947265625,8.12465552920103,0.6190823309361935,-0.3697599987830966
1772025084207706600,3.68970654296875,8.754427011933922,0.6162345402896404,-1.015395917058736
1772025084217703700,3.69970361328125,8.624089736449719,0.902394245648384,-1.4296851587243378
1772025084227700700,3.70970068359375,6.763895584273338,0.738113491769135,-1.8838536985747516
1772025084237698600,3.719698486328125,3.779850547146797,0.5439148617491125,-2.42802297347635
1772025084247695600,3.729695556640625,0.005787351229786872,-0.4334834792181849,-2.6554212777867914
1772025084257692700,3.739692626953125,-4.512676161640882,-1.6244953447714447,-1.5816979671828448
1772025084267689700,3.749689697265625,-9.98915643866062,-2.641424316616356,1.2889420784294605
1772025084277686500,3.7596865234375,-12.73112641134858,-5.338387565103173,3.156125651101768
1772025084287683800,3.769683837890625,-11.375590923070908,-6.4382584395289415,2.632024912369251
1772025084297680600,3.7796806640625,-12.96947456421852,-7.0323033598423,2.2136787965282796
1772025084307677400,3.789677490234375,-14.782446361970901,-8.813358508852124,3.940325186741352
1772025084317674800,3.7996748046875,-11.627070944714546,-7.669027730453014,2.900546377445757
1772025084327672800,3.8096728515625,-9.511607900005579,-7.556797189545631,1.6630382797859609
1772025084337669600,3.819669677734375,-9.40890214329064,-9.31081761663556,3.314583690176904
1772025084347666400,3.82966650390625,-8.342848198270797,-9.769212542009353,6.202555832731724
1772025084357663700,3.839663818359375,-6.216945592612028,-9.045376874178647,7.135575518268347
1772025084367660500,3.84966064453125,-4.481396641758084,-7.901026806557178,6.729412884435058
1772025084377657600,3.85965771484375,-3.3052053287178276,-6.531677312460541,4.803923837788402
1772025084387654700,3.869654541015625,-1.8638415687680243,-4.602487949991226,3.1648373653456567
1772025084397651700,3.879651611328125,0.05661152953803539,-2.208655999930203,1.9211045479521154
1772025084407648500,3.8896484375,1.4321218843519687,0.01624006392210722,0.6157455877289175
1772025084417646600,3.899646484375,2.068578543937206,1.9887328538060187,-0.6338230962112545
1772025084427643600,3.9096435546875,2.543078800937533,3.239800836393237,-1.6468758111447095
1772025084437640700,3.919640625,2.7591999244302507,3.4710903029233213,-2.526151923795044
1772025084447637500,3.929637451171875,2.4309090503066777,3.78461001663357,-2.848759491585195
1772025084457634600,3.939634521484375,2.092676627883315,4.108002889582514,-2.86360430175662
1772025084467631600,3.949631591796875,2.383954991430044,3.7471333956763146,-3.1588749498099085
1772025084477628700,3.959628662109375,3.341490109542012,3.1402751710191366,-3.4224878923177715
1772025084487625500,3.96962548828125,4.546615840643644,2.7036069242849945,-3.4345711288213727
1772025084497623800,3.979623779296875,5.592868522128462,2.390156768679619,-2.9315871201366184
1772025084507620600,3.98962060546875,6.255003812849521,2.092730403897166,-2.124545638091862
1772025084517617700,3.99961767578125,6.627919426119327,1.7289666498541831,-1.2878541370622814
1772025084527614700,4.00961474609375,6.766476248416304,1.229033260911703,-0.7405508019186556
1772025084537611800,4.01961181640625,6.92058895176351,0.8512959265738725,-0.6728390555649996
1772025084547608600,4.029608642578125,7.102578673073649,0.8490367494702339,-0.8940918428577482
1772025084557605600,4.039605712890625,6.960138287341595,1.225844109481573,-1.1615259510889648
1772025084567602700,4.049602783203125,6.643609162682295,1.5244637757018207,-1.4501445939071476
1772025084577600500,4.0596005859375,6.553201162004471,1.5040107702597976,-1.704351410166174
1772025084587598600,4.0695986328125,6.478243828436732,1.5064479342788457,-1.7030086172550916
1772025084597595400,4.079595458984375,6.327215647101402,1.621900652103126,-1.5354254608295856
1772025084607592700,4.0895927734375,6.021996436485648,1.5681395435601473,-1.3750256400369107
1772025084617589500,4.099589599609375,5.627044932496547,1.3482429931819437,-1.3649275860011576
1772025084627586300,4.10958642578125,5.269236871987581,1.3052496546298265,-1.388530579906702
1772025084637583600,4.11958349609375,4.882224928826093,1.3007099653735756,-1.2484791351377964
1772025084647580400,4.129580322265625,3.7905081347614527,1.4428686115548013,-1.0340811091106383
1772025084657577500,4.139577392578125,2.188282197204232,1.4218664477974177,-1.1117230055872351
1772025084667575600,4.149575439453125,0.5303975007891655,1.3996703980803489,-1.4469415600821376
1772025084677572600,4.159572509765625,-0.7951607823759317,1.2835738293945789,-1.6298384593650699
1772025084687569400,4.1695693359375,-1.532628669717908,0.7131979539602995,-1.6815527183808385
1772025084697566500,4.17956640625,-1.9319997437149286,-0.5650026579633355,-1.4167726317897438
1772025084707563500,4.1895634765625,-2.7088854492098093,-2.4523782470539213,-0.6603202041231095
1772025084717560600,4.199560546875,-4.37261828713119,-4.316557961735129,1.307680973429978
1772025084727557400,4.209557373046875,-6.337767436254024,-5.9401288851380345,3.0749034119203684
1772025084737554400,4.219554443359375,-8.481537707036733,-5.67814149800539,3.3662808519273995
1772025084747552500,4.229552490234375,-10.92760867063999,-4.8827059903413055,3.064896689429879
1772025084757549600,4.239549560546875,-11.545237880158425,-5.591421830451488,3.4757995035275813
1772025084767546400,4.24954638671875,-10.00577790311575,-3.6767055222317575,2.4972622216582296
1772025084777543400,4.25954345703125,-8.908634992349148,-2.4212708688676354,1.878556468949467
1772025084787540500,4.26954052734375,-10.605957965183258,-3.1970725785180925,3.2512124572455883
1772025084797537500,4.27953759765625,-11.823457440167665,-3.4693145254224538,4.937109196180105
1772025084807534300,4.289534423828125,-10.478619871515034,-3.4057810876667496,5.725509398379922
1772025084817531600,4.29953173828125,-9.227715555056928,-2.988948006737232,5.338893176537752
1772025084827529500,4.309529541015625,-8.203438558536767,-1.9971026227444408,3.883851019847393
1772025084837526500,4.319526611328125,-6.30523060978651,-1.5853338394671677,2.382149987834692
1772025084847523300,4.3295234375,-3.803707223552465,-0.8648372529312968,1.0553598978523164
1772025084857520600,4.339520751953125,-1.2809914116859435,0.5111629312261938,-0.23297690816037356
1772025084867517400,4.349517333984375,0.606753595238924,1.3835831866323947,-1.5067808194950223
1772025084877514500,4.359514404296875,2.0017653538584708,1.5171648508653044,-2.1063351508796213
1772025084887511600,4.369511474609375,2.6489678638637066,1.7076324776634573,-2.046295400458574
1772025084897508400,4.37950830078125,2.523942723312974,2.1995216763600705,-2.144419090080261
1772025084907506400,4.38950634765625,2.5917753195673225,2.6217308973699804,-2.617606510916352
1772025084917503500,4.39950341796875,3.2236154252678153,2.73246652354449,-2.973517213371396
1772025084927500500,4.40950048828125,4.25517790262103,2.432717853294313,-2.853761245395243
1772025084937497300,4.419497314453125,5.438036272335053,2.004800776031613,-2.1652665016673502
1772025084947494400,4.429494384765625,6.39792175296545,1.559157780203223,-1.2699687901511787
1772025084957491500,4.439491455078125,6.97553400939405,1.1381649492457508,-0.6167372291147708
1772025084967488500,4.449488525390625,7.220418286034464,0.6734586487680673,-0.20760960799604652
1772025084977486300,4.459486328125,7.368391755974292,0.45811610843241213,-0.12631167322993278
1772025084987483400,4.4694833984375,7.563875165107846,0.5200292515099049,-0.21682956402301787
1772025084997480400,4.47948046875,7.456284558960795,0.7521694896504283,-0.38509529588520525
1772025085007477500,4.4894775390625,7.354637955909967,0.9220815274149179,-0.6818284177064895
1772025085017474300,4.499474365234375,7.440005039811134,1.08685123385489,-0.8895050995893776
1772025085027471600,4.5094716796875,7.728440288886428,1.3799676264837384,-1.0001664914838968
1772025085037468400,4.519468505859375,7.750541061535477,1.7350363251566885,-1.0970835817947984
1772025085047465500,4.529465576171875,7.470027837631106,2.1529528174087402,-1.1969373100794851
1772025085057463300,4.53946337890625,7.11354371920228,2.354433713391423,-1.1250165677286683
1772025085067460600,4.549460693359375,6.796445854744315,2.382998713618517,-0.8991647622078657
1772025085077457400,4.55945751953125,6.851687849494814,2.44492997687459,-0.7069019225560128
1772025085087454500,4.569454345703125,7.026573876279592,2.4986872860252856,-0.8097394889570773
1772025085097451500,4.579451416015625,7.043956388235092,2.465972472642362,-1.318158236041665
1772025085107448600,4.589448486328125,6.261966637599468,2.1265680838301777,-2.1970107164524495
1772025085117445400,4.5994453125,3.640553720137477,1.619205421669781,-3.2387855218708514
1772025085127443500,4.609443359375,-0.6616653351217507,0.9325324865415692,-3.3506200491979716
1772025085137440500,4.6194404296875,-5.617036164179444,-0.30246669703721996,-2.3614633197672665
1772025085147437600,4.6294375,-6.909461993071436,-1.3916232852250336,-1.014659419477731
1772025085157434400,4.639434326171875,-5.18225416958332,-2.437100306162238,-0.057949134817346926
1772025085167431700,4.649431640625,-5.103797303462028,-3.9626162212654945,0.16845592067204415
1772025085177428500,4.659428466796875,-8.09091867929399,-6.005014322024583,0.36555085665546355
1772025085187425300,4.66942529296875,-12.099838094311952,-7.356538821095228,1.0165005903650075
1772025085197422600,4.679422607421875,-14.801630370390415,-7.884093207412958,3.036726241478324
1772025085207420700,4.689420654296875,-14.190973337972164,-7.602533689326047,5.5009729132413865
1772025085217417500,4.69941748046875,-12.1173141297698,-5.486158790469169,4.426298147131503
1772025085227414300,4.709414306640625,-10.406893190431594,-3.8188378649279473,2.640016495645046
1772025085237411600,4.71941162109375,-9.970388609826564,-3.948736164472997,3.9908167720943686
1772025085247408400,4.729408447265625,-10.547545523703098,-4.311813689817488,5.978800853359699
1772025085257405400,4.739405517578125,-10.542019453758,-4.041254289172589,6.226141290980577
1772025085267402500,4.749402587890625,-9.612369536915422,-2.936775920951366,5.131944370537996
1772025085277400600,4.759400634765625,-7.7173413872450585,-1.602547132335603,4.0127936261028045
1772025085287397400,4.7693974609375,-5.657406753012538,-0.5928036880806088,2.889598866973817
1772025085297394400,4.77939453125,-3.7466952965199947,0.18948913715481758,1.4167410676077008
1772025085307391500,4.7893916015625,-1.60526662042737,1.2729036745592952,-0.14464403325617312
1772025085317388500,4.799388427734375,0.43025194995105265,2.3584724673882125,-1.2777221807569266
1772025085327385300,4.80938525390625,2.0232728367894888,3.089891429954767,-1.6358482211738823
1772025085337382700,4.819382568359375,2.423174656662345,3.3427129293352364,-1.414657247070968
1772025085347380500,4.82938037109375,2.004336665651202,3.363498819993436,-1.2485516158521175
1772025085357377500,4.83937744140625,1.9943565389066933,2.835896502880752,-1.3148694236293434
1772025085367374300,4.849374267578125,3.0802392199903723,1.8946046635612845,-1.831059243106842
1772025085377371600,4.85937158203125,4.217445845597982,2.0135697734206914,-2.0980843321457505
1772025085387368400,4.869368408203125,4.795475450655817,2.5764713674515485,-1.9137521393626926
1772025085397365500,4.879365478515625,4.776023731210827,2.2857088444724676,-1.7727046692937611
1772025085407362600,4.889362548828125,5.669283653289079,1.6162299129903315,-1.5326529273763299
1772025085417360600,4.899360595703125,5.971416588327288,1.709768320648372,-0.8404545068249106
1772025085427357400,4.909357421875,6.2931783529430625,1.6110095479935407,-0.4279273063957691
1772025085437354500,4.9193544921875,6.719103671866655,1.2737871793955564,-0.8870346178226173
1772025085447351600,4.9293515625,6.682732381802797,1.6930965873107313,-1.0989791862830518
1772025085457348600,4.9393486328125,6.846842747551203,1.9884592975616453,-1.3453235986039043
1772025085467345400,4.949345458984375,7.112653492364287,1.9836752781555056,-1.5427454284541309
1772025085477342500,4.959342529296875,7.845673752647638,2.0008228123113514,-1.437037421183288
1772025085487340500,4.969340576171875,7.914236416742205,2.360595743152499,-1.4293363452866672
1772025085497337600,4.979337646484375,7.378723180374503,2.9822669215381143,-1.3456651055179536
1772025085507334400,4.98933447265625,7.166654547142982,3.4984447583168743,-1.3219314709700642
1772025085517331700,4.999331787109375,6.922209246441722,3.87663860425055,-1.6152349106036126
1772025085527328500,5.00932861328125,6.775199653097987,4.208538316521048,-1.9269801619872449
1772025085537325300,5.0193251953125,6.741819361543655,4.238778556483984,-2.151276262498647
1772025085547322600,5.029322509765625,6.416127856263518,4.154624940025807,-2.4036351128034292
1772025085557320700,5.03932080078125,6.092177641692757,3.962837462800741,-2.540209382981062
1772025085567317500,5.0493173828125,4.925882284244895,3.061374945044517,-2.9684172598838803
1772025085577313500,5.0593134765625,1.2795979115009306,1.120508588784933,-3.521398056142032
1772025085587310600,5.069310546875,-2.1982114705443383,-0.5827087027847766,-3.497264608621597
1772025085597307600,5.0793076171875,-3.5090123295605182,-1.466517490428686,-2.111542510264367
1772025085607304400,5.089304443359375,-4.69179646499455,-2.5484382821440694,-0.6729243226956576
1772025085617301800,5.0993017578125,-4.457544057005643,-5.26895980861187,0.27863698170371354
1772025085627298600,5.109298583984375,-4.636808737266064,-7.265546883049607,0.6731127579398453
1772025085637296600,5.119296630859375,-8.107334392043947,-7.289145200780034,1.8201070564597843
1772025085647293400,5.12929345703125,-11.082063903814554,-8.710663858053088,3.4270468707963824
1772025085657290800,5.139290771484375,-12.516281883662938,-9.337112918365001,4.302990039631724
1772025085667287600,5.14928759765625,-9.963061043417452,-6.721919313809275,2.2698490120396015
1772025085677284600,5.15928466796875,-7.179609305784106,-4.168537730044126,1.419959445132315
1772025085687281700,5.16928173828125,-7.562797891265153,-4.807171149146557,3.1082576922506093
1772025085697279700,5.17927978515625,-8.240522965306043,-6.147892514652013,5.3146670822978015
1772025085707276500,5.189276611328125,-7.631207995146513,-6.063113459771871,6.145360950347781
1772025085717273600,5.199273681640625,-6.6114072672575706,-4.625863857142627,5.265652583760023
1772025085727270700,5.209270751953125,-5.298528432923555,-3.3672263160839675,4.048252477496862
1772025085737267500,5.219267333984375,-4.1283290537744755,-2.567665837444365,2.9932126784443853
1772025085747264500,5.229264404296875,-3.1081705984890458,-1.3836904463991522,1.5762700969152152
1772025085757261600,5.239261474609375,-2.3350457068324086,-0.004115034103393554,0.1748189528979361
1772025085767259600,5.249259765625,-1.5811264509052037,0.9557306990385055,-0.8850915209308267
1772025085777256700,5.259256591796875,-0.5316022004038096,1.6216756111755966,-1.7813447796061634
1772025085787253500,5.26925341796875,0.742531600472331,2.272866021773219,-2.722581089346111
1772025085797250600,5.27925048828125,1.7159429176300762,2.739369142539799,-3.593267652827501
1772025085807247600,5.28924755859375,2.473616557654738,2.977968932083249,-4.001050581339001
1772025085817244400,5.299244384765625,3.2197996663719413,2.832902874022722,-3.6539351797580717
1772025085827241700,5.30924169921875,4.1583220409780735,2.466984572294354,-2.7126915634945035
1772025085837237500,5.319237548828125,4.81372948474884,2.0730966058835385,-1.5233016000546513
1772025085847234800,5.32923486328125,5.339017679700255,1.6005878149613737,-0.8759184727855026
1772025085857232600,5.339232666015625,5.904072067850827,1.2382561395481229,-0.6585613777570426
1772025085867229700,5.349229736328125,6.1355117565065616,1.0866638945892453,-0.6378038364104927
1772025085877226500,5.3592265625,6.226864929080009,1.0166904869139195,-0.7017701126255095
1772025085887223800,5.369223876953125,6.309168533757329,0.992770682144165,-0.7659297194555401
1772025085897220600,5.379220703125,6.501800060591101,1.293057112532854,-0.8505842711731791
1772025085907217400,5.389217529296875,6.8009197852879755,1.762624297045171,-1.0466967719905078
1772025085917215500,5.399215576171875,7.002829428076744,1.9291832249894738,-1.2844542654909192
1772025085927212800,5.409212890625,7.141124384567141,2.1291928793758155,-1.1651671571355313
1772025085937209600,5.419209716796875,7.4451862418413155,2.422911037290096,-0.5115872210528701
1772025085947206400,5.429206298828125,7.687383471354842,2.0582158476158976,-1.4250688971005379
1772025085957203700,5.43920361328125,7.506869083294272,2.0290844456776975,-1.8929378993928432
1772025085967200500,5.449200439453125,7.177851648461818,3.063811232280731,-1.0230400751363486
1772025085977197600,5.459197509765625,6.841694863268732,3.915291283249855,-0.5365417756978422
1772025085987195400,5.4691953125,6.86370620406866,3.71516677031219,-0.8484272392697632
1772025085997192700,5.479192626953125,6.537243714416027,3.4848265673309564,-0.9873829977564513
1772025086007189500,5.489189453125,5.262106289455295,3.484789742451906,-0.7889803401753306
1772025086017186600,5.4991865234375,3.67712082503438,3.024192923119664,-0.7790171645656228
1772025086027183600,5.50918359375,0.6264385389178991,1.8542723609119653,-0.5347155101187527
1772025086037180700,5.5191806640625,-2.4719231977403164,-0.13462065189182756,-0.005224748910963535
1772025086047177500,5.529177490234375,-1.0186574030727147,-2.7748025672316547,0.016477599005028605
1772025086057175600,5.539175537109375,-2.073448195800185,-4.406248754054308,-0.48726044291742143
1772025086067172600,5.549172607421875,-6.450508264771104,-5.597832866537571,-0.7606848045393824
1772025086077169700,5.559169677734375,-8.517599785020947,-6.230036544853449,-0.24082930216118692
1772025086087166500,5.56916650390625,-11.621496943974494,-6.599086714866757,1.5166276752486825
1772025086097163800,5.579163818359375,-14.252183301216363,-6.960237656062841,4.03396004051119
1772025086107160600,5.58916064453125,-13.768112667316197,-4.727561021336913,3.7564515513807533
1772025086117158700,5.59915869140625,-11.426496934443712,-3.99821798826158,1.4997478521183132
1772025086127155500,5.609155517578125,-10.604184525769949,-6.047790802955627,1.9104149577639995
1772025086137152800,5.61915283203125,-10.952436822426318,-7.038488770478963,4.4410961955517525
1772025086147149600,5.629149658203125,-10.403380213874577,-6.936979530072212,6.144643157467246
1772025086157146600,5.639146728515625,-9.150034349483251,-6.8549155793696634,5.719400560110807
1772025086167143700,5.649143798828125,-8.012545399802923,-6.005388416033983,4.638037986800074
1772025086177140700,5.659140625,-6.675402477306127,-4.7746495202481745,3.6572777681842443
1772025086187138600,5.669138671875,-4.888806645303965,-3.4877059221595523,2.5826407037362453
1772025086197135600,5.679135498046875,-2.6418308515906332,-2.226268813510239,1.431975753879547
1772025086207132700,5.689132568359375,-0.5114280119031668,-1.3259355920448899,0.35305911241620774
1772025086217129700,5.699129638671875,0.9311837022811174,-0.7567270068243146,-0.6825096779689193
1772025086227126500,5.70912646484375,1.5200883370965719,-0.49139615448266266,-1.6398635942950843
1772025086237123600,5.71912353515625,1.5640484748542307,-0.0020554712250828743,-2.1791744693800807
1772025086247121700,5.72912158203125,1.6041098516076802,0.78884151622653,-2.6459105221197006
1772025086257118700,5.73911865234375,2.108299728950858,1.4962702391356228,-3.092985888838768
1772025086267115500,5.749115478515625,3.0906068847477433,1.7765289037570355,-3.3344580189481374
1772025086277112800,5.75911279296875,3.9738995395630594,2.039646756224334,-2.7436151095464822
1772025086287109600,5.769109619140625,3.9314357778429985,2.5767721039637923,-0.8403123218752443
1772025086297106400,5.7791064453125,4.9898862621217965,2.558504333606362,-1.2407806895896791
1772025086307103700,5.789103759765625,5.350934327465295,1.4510200615674256,-0.8090827786140143
1772025086317101800,5.799101806640625,6.80533234103322,1.3200062019959091,-1.0130980153799056
1772025086327098600,5.8090986328125,7.031078201961517,1.6674220478281379,-1.1655731806531549
1772025086337095400,5.819095458984375,6.6245438122063875,1.861641428375244,-1.1956323649607599
1772025086347092700,5.8290927734375,6.486337703043222,1.9139783493340015,-1.0771962474115193
1772025086357089500,5.839089599609375,6.5966533502399916,2.076191649289429,-0.9586346037864685
1772025086367086600,5.849086669921875,6.669166797786951,2.4122023040100933,-0.9766955995254218
1772025086377084400,5.85908447265625,6.7581912351518865,2.8009175439581275,-1.028907725060731
1772025086387081700,5.869081787109375,6.791635824114084,3.2356647595018146,-1.1062845408603548
1772025086397078500,5.87907861328125,6.687006405860185,3.6014579735457897,-1.2276948519147932
1772025086407075600,5.88907568359375,6.376555139809846,4.003191100499033,-1.525721228417009
1772025086417072600,5.89907275390625,6.103998427867889,4.445901550006866,-1.7825633616156875
1772025086427069700,5.909069580078125,5.977410275784134,4.672875491425395,-1.8964008993282913
1772025086437067500,5.919067626953125,5.635054051429033,4.768886134415864,-1.6997985691674053
1772025086447064600,5.929064697265625,4.938902509337663,4.8076884510189295,-1.3561485056094824
1772025086457061600,5.9390615234375,4.375234022587538,4.6373692937582724,-1.1414603375293313
1772025086467058700,5.94905859375,3.738574533906579,4.307470399916172,-1.3645698586046695
1772025086477055500,5.959055419921875,2.6305495791196822,3.7020658811986444,-1.768765137887746
1772025086487052800,5.969052734375,0.9749936179131269,2.544947517418861,-1.8376536729358135
1772025086497050600,5.979050537109375,-1.701922575584054,1.204469313019514,-1.1731954922251402
1772025086507047700,5.989047607421875,-5.030186708328127,0.1414244866877794,-0.07427826526239514
1772025086517044500,5.99904443359375,-7.041675583821535,-1.2209259423017502,0.1209685586363077
1772025086527041800,6.009041748046875,-7.025799384775757,-3.3440491463750597,-0.6092231271576136
1772025086537038600,6.01903857421875,-6.798043937590718,-5.640515823966265,-1.2094905752476304
1772025086547035600,6.02903564453125,-8.499712830674648,-6.52731444107592,-1.1384340485107154
1772025086557033500,6.039033447265625,-10.973100840270519,-6.5710448617309325,0.4037585683662444
1772025086567030800,6.04903076171875,-11.856537871992588,-6.37076603501439,1.8919731460139155
1772025086577027600,6.059027587890625,-11.424333034408091,-3.777486740624904,1.302275899516046
1772025086587027500,6.06902734375,-9.95536405917406,-3.7738591977775093,0.889821325931698
1772025086597024500,6.0790244140625,-8.511471657529473,-6.598809651491045,2.0401663961842655
1772025086607021600,6.089021484375,-7.245926236778497,-7.917917151081562,3.9501410628348586
1772025086617018400,6.099018310546875,-6.520962441700696,-8.265067039453983,5.282338930144905
1772025086627016400,6.109016357421875,-5.612115074390172,-7.8987839960664505,5.055687060287594
1772025086637013500,6.119013427734375,-4.614989704167843,-6.392958577600121,4.199606822046637
1772025086647010600,6.129010498046875,-3.6798704160034656,-4.907966688326001,3.1067893732637164
1772025086657007400,6.13900732421875,-2.6246985150039195,-3.5609365780651565,1.3051580308236181
1772025086667004700,6.149004638671875,-1.5562550444990395,-2.1390397351294754,-0.4644016915079206
1772025086677001500,6.15900146484375,-0.7419564309328794,-0.7201759762793779,-1.6375763601407407
1772025086686999600,6.16899951171875,-0.4178326133608818,0.6069780516445636,-2.1519658521980047
1772025086696996400,6.178996337890625,-0.6242500889629126,1.7620616947263479,-2.458223758211732
1772025086706993700,6.18899365234375,-0.38492403097152705,2.783012761694193,-2.744609673541784
1772025086716990500,6.198990478515625,0.4034486986994743,3.5080098745197055,-3.044083033981919
1772025086726987500,6.208987548828125,1.4326374326586722,3.86206325867027,-3.1370863118499517
1772025086736984600,6.218984619140625,2.3679303238242864,3.8950361384674905,-2.8597406120657918
1772025086746982700,6.228982666015625,3.277534062460065,3.68603536837399,-2.486469024965167
1772025086756979500,6.2389794921875,4.292113840830326,3.174318602657318,-2.1791332605868576
1772025086766976500,6.2489765625,4.968444245642424,2.679927358011901,-1.9766044629864394
1772025086776973600,6.2589736328125,5.19219454883933,2.4683482618629933,-1.6748016366854308
1772025086786970400,6.268970458984375,5.262193967738748,2.321995671123266,-1.3884762193709612
1772025086796967400,6.278967529296875,5.364843610352278,2.1135095725536344,-1.2637269731521605
1772025086806965500,6.288965576171875,5.567945677796006,2.005513308215141,-1.231900048519671
1772025086816962600,6.298962646484375,5.750398340442777,2.149411783801019,-1.1585131791390477
1772025086826959400,6.30895947265625,5.979996785145998,2.492712887790799,-1.2050045889399945
1772025086836956400,6.318956298828125,6.292599091750383,2.893283985227346,-1.3953848297156393
1772025086846953500,6.328953369140625,6.618941169893741,3.3542233343869445,-1.639638553367555
1772025086856950500,6.338950439453125,6.8870426559925075,3.8028789560347795,-1.8503931813910603
1772025086866948400,6.3489482421875,7.042945165365934,4.120827299842238,-1.9327211898572743
1772025086876945400,6.3589453125,7.040168101868033,4.504379457938671,-1.8098145027652381
1772025086886942500,6.3689423828125,6.924622152802348,4.8578369220227,-1.552274450430274
1772025086896939500,6.378939453125,6.863768163388967,5.002203891903162,-1.3368300571553409
1772025086906936300,6.388936279296875,6.657732965102792,4.9715503949642175,-1.121621080071479
1772025086916933600,6.39893359375,6.253491654720902,4.779304068055748,-0.8045204391345381
1772025086926931500,6.408931396484375,5.8055164165526625,4.4672664095968,-0.4255287208214402
1772025086936928500,6.418928466796875,5.135715705770254,4.0496044766277075,-0.06433627857118844
1772025086946925300,6.42892529296875,3.5346278323322533,3.509441953149438,0.07690466824322939
1772025086956922600,6.438922607421875,1.3265011169731615,3.0531723493665455,-0.21976298712641
1772025086966919400,6.44891943359375,-0.3490998533964157,2.057424112716317,-0.6235157833389937
1772025086976916500,6.45891650390625,-1.6807015083789825,0.18373101201951503,-0.9071379330441355
1772025086986914300,6.468914306640625,-2.915942391759157,-2.5417653802514075,-0.2448202714934945
1772025086996911600,6.47891162109375,-3.2962685735464095,-6.7440013817578555,1.241911885576695
1772025087006908400,6.488908447265625,-5.447669193077087,-10.573393081665039,3.5431484079182147
1772025087016905500,6.498905517578125,-10.088508793294428,-11.033339328134058,5.767160674673319
1772025087026902500,6.508902587890625,-12.81605744192004,-9.899792394077778,6.35109161272943
1772025087036899600,6.518899658203125,-11.194742188489437,-8.299867134678363,4.749745965138078
1772025087046897400,6.5288974609375,-8.694344591414929,-6.820170429202914,2.3647509631358083
1772025087056894500,6.53889453125,-8.848402349704504,-6.497765105986595,2.373745732104778
1772025087066891500,6.5488916015625,-9.876918883490562,-7.234602878731489,4.057131365001202
1772025087076888600,6.558888671875,-9.451275888639689,-7.474387201884388,4.747935116323829
1772025087086885400,6.568885498046875,-8.065805865347384,-6.88379329880774,3.9098420779332517
1772025087096883500,6.578883544921875,-7.0458286118477575,-5.905816865691542,2.6605712078958748
1772025087106880500,6.588880615234375,-5.698522022733092,-4.736096209970117,1.7340338701158762
1772025087116877600,6.598877685546875,-4.2599476012408735,-3.5296816081017255,0.9293955036900937
1772025087126874400,6.608874267578125,-3.148993607264757,-2.3613725727438926,0.45186771556213495
1772025087136871700,6.61887158203125,-2.1113784057438374,-1.149250114622712,0.2734071912914514
1772025087146868500,6.628868408203125,-1.35654963375628,-0.05677461114525795,-0.13764635638855396
1772025087156865500,6.638865478515625,-0.31672435497045515,0.8924269783854484,-0.8477643183816224
1772025087166863400,6.64886328125,0.7325432904213667,1.9819787033706902,-1.4528763569585978
1772025087176860700,6.658860595703125,1.2311901466846464,2.9098201094865797,-2.097934110020101
1772025087186857500,6.668857421875,1.6921774266391991,3.428090534630418,-2.7394991986602544
1772025087196854500,6.6788544921875,2.5359429577082393,3.693342476516962,-3.1990155292794107
1772025087206851600,6.6888515625,3.6728771961152553,3.6355578115463256,-3.515855327323079
1772025087216848400,6.698848388671875,4.588711938095092,3.3932255574762817,-3.6475595072463154
1772025087226846500,6.708846435546875,4.819804420748353,3.225809135919809,-3.537596034488082
1772025087236843500,6.718843505859375,4.863838792786002,3.0568858169317243,-3.295581760326028
1772025087246840600,6.728840576171875,4.901151747614145,2.7769875100553034,-2.94726867339313
1772025087256837400,6.73883740234375,4.725580076652765,2.4909376948118207,-2.5114368774831295
1772025087266834400,6.74883447265625,4.507580299806595,2.3173341090530157,-2.1615065646119414
1772025087276831500,6.75883154296875,4.426970639565587,2.33659176723063,-2.0157111693635583
1772025087286829600,6.76882958984375,4.778064297127724,2.392123100316524,-1.9409340146683156
1772025087296826600,6.77882666015625,5.355833789944649,2.4356881012767553,-2.103566562949121
1772025087306823400,6.788823486328125,5.997935761940479,2.711328750708699,-2.4633219581335783
1772025087316820500,6.798820556640625,6.274691094616055,3.3254899918556213,-2.484115447576344
1772025087326817500,6.808817626953125,5.273868623441458,4.064903752568364,-2.1180090759299692
1772025087336815600,6.818815673828125,5.012890121090412,4.288569884613156,-1.797805354411155
1772025087346812400,6.8288125,5.455973495563865,4.974335057246685,-1.7720266239017246
1772025087356809500,6.8388095703125,5.319253241044283,5.452794865527749,-1.6340098998308181
1772025087366806500,6.848806640625,6.655538085407018,3.7436259720772505,-2.5004963812738654
1772025087376803300,6.85880322265625,6.020992812401056,2.5628689585566518,-4.0340757758453485
1772025087386800600,6.868800537109375,4.413897222980856,2.793987744694948,-3.8806384875416753
1772025087396797400,6.87879736328125,3.0588954031884668,3.3290070600658654,-2.2598080950185655
1772025087406795500,6.88879541015625,0.7850105597615241,2.663931624239683,-0.9544250232674181
1772025087416792300,6.898792236328125,1.029737015491724,0.28610008412599564,-1.127617397876829
1772025087426789600,6.90878955078125,0.3792541686415672,-0.002565466573834419,-1.8291509252674876
1772025087436786400,6.918786376953125,-2.6082944926917553,1.076101291781664,-2.2010982780270276
1772025087446783500,6.928783447265625,-3.5642636766612528,-1.7258552398353815,-1.1495381377838552
1772025087456781300,6.93878125,-5.254534392896295,-5.563252551543712,1.251877837665379
1772025087466778600,6.948778564453125,-7.868079645723104,-7.822254883137345,2.8349241507172582
1772025087476775400,6.958775390625,-10.433769506919383,-7.866945088735222,2.889642413854599
1772025087486772500,6.9687724609375,-11.55546467514038,-8.4188956651628,4.207483254510164
1772025087496769500,6.97876953125,-10.798492461383342,-8.202174237689375,5.287601380717754
1772025087506766600,6.9887666015625,-8.439731532442568,-6.452223251995444,4.234956367847323
1772025087516763400,6.998763427734375,-6.552002307608723,-6.679033527284861,3.5977500589385625
1772025087526761500,7.008761474609375,-6.183478207296132,-7.847474664589762,4.505490634050965
1772025087536758500,7.018758544921875,-6.272045548543334,-7.918817314791679,5.699297683280706
1772025087546755600,7.028755615234375,-6.383842958730459,-7.2030024563312525,5.522063632065057
1772025087556752400,7.03875244140625,-6.00436900985837,-5.80270545078516,4.732065347018838
1772025087566749700,7.048749755859375,-4.935844290810823,-4.591856081339716,3.6639696670383213
1772025087576746500,7.05874658203125,-3.591930266743898,-3.5093940223544835,2.2921957222737372
1772025087586742000,7.068741943359375,-2.3460300421833993,-1.8882710766255855,1.2520942568950355
1772025087596739000,7.078739013671875,-1.2982774775296448,-0.2091162131667137,0.20256401504427193
1772025087606736000,7.08873583984375,-0.7140566166162491,0.981052771821618,-0.9208636029925197
1772025087616733200,7.098733154296875,-0.25847557961940765,1.707517619112134,-2.128576793304086
1772025087626730000,7.10872998046875,0.2414852818518877,2.212909857982397,-3.3096851044803857
1772025087636727000,7.11872705078125,0.9072323333293199,2.4555180063843727,-4.142889201785624
1772025087646724900,7.128724853515625,1.9805144760370252,2.5630583436489105,-4.049295264548063
1772025087656722200,7.13872216796875,3.1106717676550146,2.6645722602307793,-3.3385268758222457
1772025087666719000,7.148718994140625,4.006268023726344,2.677902866446972,-2.43044274796918
1772025087676716000,7.158716064453125,4.7130157786339515,2.3837156297162174,-1.9369170341119168
1772025087686713000,7.168713134765625,5.182076474928856,1.9147893734559416,-1.8248980901286005
1772025087696710000,7.1787099609375,5.344538488948345,1.631486811093986,-1.7996037821352482
1772025087706708000,7.1887080078125,5.2919706818431616,1.5544205225482581,-1.8409867628812788
1772025087716705000,7.198705078125,5.221249378409982,1.6076061692908405,-1.9534081501856446
1772025087726702000,7.2087021484375,5.299943560418487,1.6987971370398998,-2.0423986852809786
1772025087736699000,7.218698974609375,5.368257802709937,1.9372928816869854,-2.1781334358945488
1772025087746696000,7.228696044921875,5.397529489901662,2.3473417093038558,-2.343723226545751
1772025087756693000,7.23869287109375,5.476892949473857,2.877790063497424,-2.5111703355014323
1772025087766691000,7.248691162109375,5.589904411625862,3.459936456224322,-2.6171131744414566
1772025087776688000,7.258688232421875,5.77989565308392,3.971625164890289,-2.6936808658152818
1772025087786685000,7.268684814453125,5.818264254444837,4.424734258815646,-2.6638100436866283
1772025087796682000,7.278681884765625,5.694588774937391,4.815740240049362,-2.5559081796333194
1772025087806679000,7.288678955078125,5.5814253370940685,5.094443199661374,-2.399418664152175
1772025087816675800,7.29867578125,5.44982607885003,5.3120782348483795,-2.325207326646149
1772025087826674000,7.308673828125,5.250374935129285,5.471344667696952,-2.2788328212231397
1772025087836671000,7.3186708984375,4.730282555255293,5.690848419365286,-2.053608938342333
1772025087846668000,7.32866796875,4.126388441100716,5.647114491578936,-1.7807802775911985
1772025087856664800,7.338664794921875,3.494398113274574,5.1285342698335645,-1.5090708301283418
1772025087866662100,7.348662109375,2.6471295425206423,4.203026275101304,-0.9803555833376943
1772025087876659000,7.358658935546875,1.2281237448513507,2.7328420788586136,-0.5484818774037062
1772025087886656000,7.368656005859375,-0.5833230352908373,0.6787164231657982,0.20363018297106025
1772025087896653800,7.37865380859375,-2.346184355962276,-2.3913480242908,1.7229384756058455
1772025087906651100,7.388651123046875,-3.2684429935097694,-6.458150303956866,3.7934570476949214
1772025087916648000,7.39864794921875,-3.998679176032543,-9.050973086750506,4.78181020565778
1772025087926645000,7.40864501953125,-6.905141207262873,-8.41367471564412,3.2717166083529587
1772025087936642000,7.41864208984375,-9.066417908641695,-10.750056639516353,2.826847811767459
1772025087946639000,7.42863916015625,-10.488369696635008,-10.90821657242775,3.833764215902984
1772025087956637000,7.438636962890625,-10.221302814280985,-8.115100349870323,2.9075346288979054
1772025087966634000,7.448634033203125,-8.075038388594985,-8.040240631458163,2.090406637124717
1772025087976631000,7.458631103515625,-8.304994560694695,-8.652316883024573,2.690622939549386
1772025087986628000,7.468628173828125,-8.7786174503386,-9.519724570965767,3.692673198953271
1772025087996625000,7.478625,-7.96294111867845,-9.564553308251499,4.482685804785787
1772025088006622000,7.4886220703125,-7.050564408197999,-8.708895679336786,4.372354667758941
1772025088016620000,7.4986201171875,-6.057654025322199,-7.5489078976005315,3.2674820395231245
1772025088026617000,7.5086171875,-4.756057047981024,-5.4919940724939105,1.7768522904925048
1772025088036614000,7.51861376953125,-3.6159395033627746,-3.3586662852704525,0.3189307789735496
1772025088046611000,7.52861083984375,-2.733488560068607,-1.5405962875962256,-0.5680896641932428
1772025088056608000,7.53860791015625,-2.173092226856947,0.09810849205255508,-0.9275620046526193
1772025088066605000,7.54860498046875,-1.7234236287742852,1.2645593323230742,-1.3957934105165302
1772025088076603000,7.558602783203125,-1.1569237179905176,2.081005479311943,-2.326119034663588
1772025088086600200,7.56860009765625,-0.28875205993950365,2.845072619765997,-3.121618693605065
1772025088096597000,7.578596923828125,1.1030839912533759,3.348838718739152,-3.5851170795977114
1772025088106594000,7.588593994140625,2.5701263823390006,3.4749539926141497,-3.797281282158196
1772025088116591000,7.598591064453125,3.812355809432268,3.238239578425884,-3.6373458640068765
1772025088126588000,7.608587890625,4.76548129440844,2.88682384930253,-3.0676854433655736
1772025088136585000,7.6185849609375,5.38451511002779,2.665751825404167,-2.4992338139921424
1772025088146583000,7.6285830078125,5.692196911364793,2.4241394100412723,-2.115185396811366
1772025088156580000,7.638580078125,5.840686514133215,2.144855727931857,-2.0945810001999137
1772025088166577200,7.6485771484375,5.804707438257337,1.9874878221809862,-2.13759479701817
1772025088176574000,7.658573974609375,5.578309835422039,2.1272510976582764,-1.9859955377966165
1772025088186571000,7.668571044921875,5.448441346493363,2.6165520334273573,-1.7757789621725677
1772025088196568000,7.678568115234375,5.575108993554115,3.1717829466998575,-1.833882776094973
1772025088206566100,7.688566162109375,5.6166305059880015,3.6598838590294123,-2.113915523006022
1772025088216563000,7.69856298828125,5.723029856523871,4.23255573644638,-2.281590595498681
1772025088226560000,7.70856005859375,5.958559444841742,4.8529625939846035,-2.335874412741512
1772025088236557000,7.71855712890625,6.196722888794541,5.415495354703069,-2.438848026612401
1772025088246553900,7.728553955078125,6.421785443633794,5.717271146866679,-2.4731185450047253
1772025088256551000,7.738551025390625,6.388595706215501,5.75703091032505,-2.3312848929941654
1772025088266548000,7.7485478515625,6.1560430878818035,5.757341291448474,-2.0932158493265507
1772025088276546000,7.758546142578125,5.868697972130775,5.844352635425329,-1.9158619711235165
1772025088286542800,7.76854296875,5.639779910907149,5.979588788866996,-1.8458594834841786
1772025088296540000,7.778539794921875,5.475525168251991,6.121075819396972,-1.5808046716049313
1772025088306537000,7.788536865234375,4.902561614412069,5.96658200777769,-1.4222821889914572
1772025088316534000,7.798533935546875,4.210118863710761,5.050983412641287,-1.6823948682934045
1772025088326530800,7.80853076171875,2.93137961486578,3.515354976585507,-1.3987754950672386
1772025088336529000,7.81852880859375,1.0022054499655961,1.5863725348651407,-0.5410284926578403
1772025088346526000,7.82852587890625,-1.0412205325365065,-0.39350948848724365,0.41752164771556854
1772025088356523000,7.83852294921875,-2.7563766837030648,-3.626368542918563,1.4273390339896082
1772025088366519800,7.848519775390625,-5.913942304480075,-8.243859416252374,2.8556311309203504
1772025088376517000,7.85851708984375,-7.4730679359793655,-11.00209663313031,3.353258873268962
1772025088386514000,7.868513916015625,-8.636751065102219,-11.360732376635074,2.25423803980127
1772025088396511000,7.878510986328125,-9.43103564916551,-12.042787588834761,2.3420468177661298
1772025088406508800,7.8885087890625,-9.929984118723869,-10.649057102197409,2.4713372145459056
1772025088416506000,7.898506103515625,-8.86770910772085,-9.776998958101869,2.757409533882141
1772025088426503000,7.9085029296875,-7.8080194370359175,-9.675168230655789,4.1140550292283296
1772025088436500000,7.9185,-8.261987778139114,-9.120759739682077,5.469695146924257
1772025088446497000,7.9284970703125,-8.386998305642605,-9.364674294507504,5.45564616330564
1772025088456494000,7.938494140625,-8.066451762035488,-8.50148217843473,4.905518710651993
1772025088466492000,7.948491943359375,-6.948318085688352,-7.156597848030924,4.121592731256783
1772025088476489000,7.958489013671875,-5.823011741232872,-5.692952113646268,3.3483652560085058
1772025088486486000,7.968486083984375,-4.870554364776611,-3.8510371300041673,2.68646669665277
1772025088496483000,7.978483154296875,-4.30310928209722,-1.9512953958153723,1.2772358585447072
1772025088506479900,7.98847998046875,-3.8168957909494634,0.008123685222864151,-0.1361181969732046
1772025088516477000,7.998476806640625,-3.123924047937989,1.7356389672249555,-1.171241435547918
1772025088526474000,8.008473876953126,-2.7491052313953634,2.721107801923156,-1.8079785195097327
1772025088536472000,8.01847216796875,-1.9611399134814738,3.0062486856281754,-2.222611167785525
1772025088546468900,8.02846875,-0.5900006133586168,3.165342099997401,-2.5581299473360177
1772025088556466000,8.0384658203125,1.028927452674508,3.4820261229574676,-2.97839621758461
1772025088566463000,8.048462890625,2.4551895050823687,3.761618140363693,-3.1116902970477938
1772025088576459800,8.058459716796875,3.6968607137709855,3.7441064490705727,-2.6093647522717713
1772025088586456300,8.068456298828124,4.779971007531881,3.5502333977431055,-1.8803519740641117
1772025088596454100,8.0784541015625,5.411274522137641,3.185041656723618,-1.1003830617316066
1772025088606451200,8.088451171875,5.816532900607585,2.7989900830268857,-0.4805247049216181
1772025088616448300,8.0984482421875,6.150674838846921,2.643807120099664,-0.3590571107219904
1772025088626445300,8.1084453125,6.4758385208606715,2.7991058183610438,-0.4978217305507511
1772025088636442000,8.118442138671876,6.800026635840535,3.2572622588038445,-0.7089090245947242
1772025088646439400,8.128439453125,6.570470276713371,3.838730606138706,-0.6354228595580905
1772025088656436200,8.138436279296876,6.222628898945451,4.341949592623115,-0.6025569107340648
1772025088666434300,8.148434326171875,6.258124575218558,4.938279409003258,-0.8515688982963562
1772025088676431000,8.15843115234375,6.479399428212642,5.557412008821964,-0.9823119781024754
1772025088686428400,8.168428466796875,6.759372553890943,6.053581076794862,-0.9954702964916825
1772025088696425200,8.17842529296875,6.6389540303528305,6.336122591656446,-0.7536711994502693
1772025088706422300,8.18842236328125,6.527329054123163,6.415941393780708,-0.6577720540102571
1772025088716419300,8.19841943359375,6.522409133377671,6.506915211647748,-0.6640500383011997
1772025088726416400,8.20841650390625,6.526887740096449,6.580256342190504,-0.7412322083115577
1772025088736414200,8.218414306640625,6.393201154184341,6.612249563300609,-1.009120855377242
1772025088746411300,8.228411376953124,6.112835814318061,6.740520553904771,-0.9419617744702845
1772025088756408300,8.238408203125,5.309217000198364,6.448795031112432,-1.1013549024384468
1772025088766405400,8.2484052734375,4.275161536985635,5.82327477608323,-1.2034801558516919
1772025088776402200,8.258402099609375,3.244280027633905,5.000021287167072,-1.1000093330483882
1772025088786399200,8.268399169921874,1.7457208007782696,3.798164786994457,-0.8508584850046783
1772025088796396300,8.278396240234375,-0.2011778213828802,2.2336907802045345,-0.6548829815052449
1772025088806394400,8.288394287109375,-2.042813988083601,0.6038631344944239,-1.1843700894512235
1772025088816391200,8.29839111328125,-2.9908003566056487,-1.6960446234613655,0.19527334657944737
1772025088826388200,8.30838818359375,-4.167128447768092,-5.406097411760688,1.692811632889509
1772025088836385300,8.31838525390625,-6.707721277108788,-8.24221048000157,2.7834476459801194
1772025088846382000,8.328382080078125,-8.965878974571824,-9.334030734440685,3.3010318424254654
1772025088856379400,8.33837939453125,-9.67930781467855,-11.260542986655235,4.627088138240575
1772025088866376200,8.348376220703125,-10.336222155880927,-11.375150193566084,4.955877609536051
1772025088876374300,8.358374267578125,-9.444571422564982,-9.092662356966734,4.4210663839578626
1772025088886371000,8.36837109375,-8.241545878612994,-9.573542670392989,4.610348600363731
1772025088896368400,8.378368408203125,-8.400711189174652,-10.821051499193906,5.615378460100293
1772025088906365200,8.388365234375,-8.079405936154723,-11.02710832479,6.41552755228281
1772025088916362200,8.3983623046875,-7.3428645160079,-10.749515372246503,6.22098873052299
1772025088926359300,8.408359375,-6.712819477030634,-9.920976636403799,5.243204020586609
1772025088936357400,8.418357421875,-5.576362793007493,-8.671332549139857,4.173621901440621
1772025088946354200,8.428354248046874,-3.984837113162875,-6.874923763653635,2.8996380304291844
1772025088956351200,8.438351318359375,-2.5894664581030606,-4.6942900353759525,1.373013569562137
1772025088966348300,8.448348388671874,-1.4570418060749768,-2.6514497438073157,-0.2310905098918825
1772025088976345300,8.458345458984375,-0.4853893152832985,-0.4661439320653677,-1.2128314831733702
1772025088986342100,8.468342041015624,0.2496323479503393,1.6050626222878694,-1.7292665095835924
1772025088996339200,8.478339111328125,0.8810159420549869,2.7364643610090016,-2.248896386512369
1772025089006337300,8.488337158203125,1.6120511660009622,3.1926673292964693,-2.6052184462472794
1772025089016334300,8.498334228515626,2.392889993035793,3.52853477615416,-2.9056729266792534
1772025089026331100,8.5083310546875,3.206758398491144,3.767849143707752,-3.0959196042031047
1772025089036328200,8.518328125,4.104291175583005,3.8524803145498034,-3.0047680916815995
1772025089046325200,8.5283251953125,4.932210902744531,3.7834319127649065,-2.8770670099198816
1772025089056322300,8.538322265625,5.429251492854952,3.576305412110686,-2.7098119164049623
1772025089066319000,8.548319091796875,5.698885010826587,3.331149917313456,-2.432249651260674
1772025089076317200,8.558317138671875,5.861144780272245,3.1872038031935688,-2.137142523206025
1772025089086314200,8.568314208984376,6.03488046797812,3.2033716786623,-1.8189397662460802
1772025089096311300,8.578311279296875,6.08868512340188,3.296854849001765,-1.5729345227517186
1772025089106308000,8.58830810546875,6.046809390702843,3.4903555598855016,-1.4706206879638135
1772025089116305400,8.598305419921875,6.065929686236381,3.8663685546487567,-1.3944225605547427
1772025089126302200,8.60830224609375,6.103405138149857,4.356085085481405,-1.4193985963791609
1772025089136299000,8.618299072265625,6.213607388100027,4.877433018374443,-1.5883103710599242
1772025089146297300,8.62829736328125,6.416409011292457,5.232919357937574,-1.7644168795503674
1772025089156294400,8.63829443359375,6.427922923475504,5.462167674028873,-1.7656171952508388
1772025089166291200,8.648291259765625,6.322094066303968,5.540924399879574,-1.8022106036327779
1772025089176288000,8.6582880859375,6.3152276876658195,5.535649089825153,-1.8390585712976752
1772025089186285300,8.668285400390625,6.235051742666959,5.503160194152593,-1.9833764413394033
1772025089196282000,8.6782822265625,6.042412032526731,5.43203381704986,-2.121101050595939
1772025089206279200,8.688279052734375,5.69123361929059,5.366450461027026,-2.2630903315596282
1772025089216277200,8.69827734375,5.091128376024961,5.2105684099197385,-2.284973808196187
1772025089226274300,8.7082744140625,4.286498339036107,4.705910915064812,-2.2334838594555855
1772025089236271000,8.71827099609375,3.0325451564013957,3.9154374137222763,-2.1587083121955395
1772025089246268200,8.72826806640625,1.6769991467297076,2.686760711163282,-2.2493176806643604
1772025089256265200,8.73826513671875,0.4586684816181659,1.2493243537902832,-2.1586332011327145
1772025089266262300,8.74826220703125,-1.605147377961874,-0.21977438530325888,-1.0536709949173033
1772025089276259000,8.758259033203124,-3.549059677788615,-2.7847371012687683,0.7822393414825201
1772025089286257200,8.768257080078126,-4.525581235921383,-6.858357244256139,2.5552672513812777
1772025089296254200,8.778254150390625,-6.76454440357089,-9.488175001969934,3.251508809843659
1772025089306251300,8.788251220703126,-9.260243613696097,-8.75864375284612,3.270853561782837
1772025089316248000,8.798248046875,-10.332067374289036,-9.771703774303198,4.587721758013964
1772025089326245400,8.808245361328124,-11.53549273121357,-10.468915639102459,5.648558260646462
1772025089336242200,8.8182421875,-10.650631804168224,-7.882581633806228,4.58735467826724
1772025089346239200,8.8282392578125,-9.411951593989134,-7.313193600365519,3.9976954256922004
1772025089356236300,8.838236328125,-9.37262671481669,-7.762689764490723,4.522794235551357
1772025089366234400,8.848234375,-9.128702807641028,-7.819386049702763,5.515304220932721
1772025089376231200,8.858231201171876,-8.80450358674526,-8.285907582908868,5.993537234720588
1772025089386228200,8.868228271484375,-8.39353442941308,-7.981821175715327,5.763205799567699
1772025089396225300,8.878225341796876,-7.21110159163475,-7.418374807283282,5.062638194599748
1772025089406222300,8.888222412109375,-6.027243104967474,-6.605990502905845,3.8315117608010767
1772025089416219100,8.89821923828125,-5.005889886939525,-5.210387792655825,2.4678677848696706
1772025089426216200,8.90821630859375,-4.03673038200736,-3.445831943026185,0.8357033667750656
1772025089436214300,8.91821435546875,-3.121025403887033,-1.643131948441267,-0.7389370100464672
1772025089446211300,8.92821142578125,-2.3752479533612725,0.08708148660361767,-1.6074039247170089
1772025089456208100,8.9382080078125,-1.6262708300113677,1.4636539176911114,-2.288372656854242
1772025089466205200,8.948205078125,-0.7589449751347302,2.3463357471317052,-2.8405320537269114
1772025089476202200,8.9582021484375,0.019491466933488844,2.7474007655650374,-2.9725594742551444
1772025089486199000,8.968198974609376,1.1347533872365951,2.8364649504184722,-2.7431244034200906
1772025089496196400,8.9781962890625,2.454036827915907,2.778198639410734,-2.339856614245474
1772025089506194200,8.988194091796874,3.556477260568738,2.8063649957090613,-1.9161704525507985
1772025089516191200,8.998191162109375,4.499987360459566,2.870627916783094,-1.5322989993721245
1772025089526188000,9.00818798828125,5.1419052080601455,2.8239930068582293,-1.2794072112344204
1772025089536185300,9.018185302734375,5.551169315040111,2.7639585171341894,-1.1427861793056129
1772025089546182100,9.02818212890625,5.976728138738871,2.8365461989611385,-1.0890030050612984
1772025089556179200,9.03817919921875,6.4062406684994695,3.122767279118299,-1.2083233580991626
1772025089566176300,9.04817626953125,6.760201990452408,3.576120703193545,-1.3606889255180954
1772025089576174300,9.05817431640625,7.033698613592982,4.122456362348795,-1.4115147112615405
1772025089586175000,9.068175048828126,7.266495562076568,4.662370464023947,-1.4229894604779778
1772025089596172000,9.078172119140625,7.36460989934802,5.121642756754159,-1.4678512232504783
1772025089606169000,9.088169189453126,7.291499654951691,5.413374709287286,-1.5265622092857956
1772025089616166000,9.098165771484375,7.164537408858537,5.671457490196824,-1.5564140344530344
1772025089626163000,9.108162841796876,7.035710537937283,5.936471531674266,-1.6873633043557406
1772025089636160000,9.118159912109375,6.986215562406182,6.18370617083311,-1.842439592038095
1772025089646157000,9.128156982421874,7.013506304913759,6.396375108045339,-2.0203060959383845
1772025089656155000,9.13815478515625,7.188820786243677,6.48473611306548,-2.0923313215769825
1772025089666152000,9.14815185546875,7.217525487202406,6.447208054181933,-1.971296565836668
1772025089676149000,9.15814892578125,6.918377120932936,6.326500776830315,-1.8165470258906482
1772025089686146000,9.16814599609375,6.409367276087403,6.07835252995789,-1.7811589016452432
1772025089696142800,9.178142822265626,5.8014873071670525,5.6487628433078525,-1.9016630576401947
1772025089706140200,9.18814013671875,4.913865098714828,4.7603883551836015,-1.799062076473981
1772025089716137000,9.198136962890626,3.4569127244889732,3.186594146862626,-1.6435479818962513
1772025089726135000,9.208135009765625,1.0885650520354508,1.1802023022472858,-0.9906332317240536
1772025089736131800,9.2181318359375,-1.33642629866004,-1.534931685963273,0.5093623115450143
1772025089746129200,9.228129150390625,-3.343306803575158,-5.650023657023906,1.8204003403179347
1772025089756126000,9.2381259765625,-6.099326344403624,-10.013666610538959,1.5730641404807566
1772025089766123000,9.248123046875,-8.679622238579391,-10.944087511754036,0.6358072557657957
1772025089776120000,9.2581201171875,-9.800988320976495,-10.008027143347263,2.186018343925476
1772025089786117000,9.2681171875,-11.591474730676412,-8.87615954068005,3.447717610642314
1772025089796115000,9.278114990234375,-10.693214223831891,-7.010484326744079,3.1500299645751713
1772025089806112000,9.288112060546876,-9.443335158768296,-7.513878085273504,3.941885860186815
1772025089816109000,9.298109130859375,-9.83401030061245,-8.930563331040739,5.512175859779119
1772025089826106000,9.308106201171874,-9.735955584573745,-9.208938958394526,6.753950528842211
1772025089836103000,9.31810302734375,-9.509708203864097,-9.186744077721238,6.603161416959762
1772025089846100000,9.328099853515624,-9.147623196688293,-8.260393786945938,5.022656897345185
1772025089856097000,9.338096923828125,-7.922439596942067,-7.161488542681932,3.492879525405168
1772025089866093800,9.34809375,-6.596006869029998,-6.030517012071609,1.943938895572722
1772025089876092000,9.358091796875,-5.118106399321555,-4.186723375076055,0.4209964842192828
1772025089886089000,9.3680888671875,-3.63495224686861,-2.0330548106133937,-0.7233781333215534
1772025089896086000,9.3780859375,-2.26572141071558,-0.31952246125638484,-1.51815663838163
1772025089906082800,9.388082763671875,-0.9838730899393557,0.9189695328742266,-1.8268711437672376
1772025089916079900,9.398079833984376,0.04648351875543594,1.8276064723044634,-1.9920554223574696
1772025089926077000,9.408076904296875,0.8801099331259727,2.4890806687682865,-2.2916145613849164
1772025089936074000,9.418073974609374,2.2696084812819954,3.0836966669678687,-2.270577618575096
1772025089946072000,9.428072021484375,3.309719591271877,3.4432512788832184,-1.8937607600830495
1772025089956069000,9.438069091796875,3.8549049113482234,3.467665004649758,-1.5726276487596331
1772025089966066000,9.44806591796875,4.525303003501892,3.3992835423409935,-1.2524778493851423
1772025089976063000,9.45806298828125,5.256800584262609,3.559733047494292,-1.0597317562609911
1772025089986060000,9.46806005859375,5.841178097042441,3.898640008178353,-1.0892176707252859
1772025089996057000,9.47805712890625,6.29366759776473,4.160877570679784,-1.2544018031850457
1772025090006054000,9.488053955078126,6.520313622403145,4.281202570715546,-1.3201400575086473
1772025090016051000,9.498051025390625,6.418039242842793,4.365657800468802,-1.1560413821980355
1772025090026049000,9.508049072265624,6.2536944838166235,4.47068060195446,-1.03631843970865
1772025090036046000,9.518046142578125,6.099114162957668,4.7058208986937995,-0.9692040747262537
1772025090046043000,9.52804296875,6.048982643088698,5.089111775505542,-0.9927991775862872
1772025090056040000,9.5380400390625,6.183223355752229,5.527830525028706,-1.084339031838253
1772025090066037000,9.548037109375,6.42871202802658,5.925041790643334,-1.360910167053342
1772025090076034000,9.558033935546876,6.7931976666033265,6.263533740785718,-1.6507340940080582
1772025090086030800,9.56803076171875,7.006844508937001,6.52188890889585,-1.6971807878844438
1772025090096029000,9.57802880859375,7.066914069974422,6.661283351060748,-1.6193598815791308
1772025090106026000,9.58802587890625,6.964238123875856,6.641545800411701,-1.4869889083102346
1772025090116023000,9.59802294921875,6.743659436452388,6.532011074459552,-1.4734472896918653
1772025090126019800,9.608019775390625,6.522976704132557,6.476333026379346,-1.472480928877741
1772025090136017200,9.61801708984375,6.181657421609759,6.239279004973173,-1.487613616079837
1772025090146014000,9.628013916015625,5.549036979186535,5.755926163953542,-1.3972082457505166
1772025090156010800,9.6380107421875,4.435011907202005,4.968659934219717,-1.2468152935788035
1772025090166008800,9.6480087890625,2.809905444794893,3.8447476744711397,-1.0433969997927546
1772025090176006100,9.658006103515625,0.7099158635497093,2.373773789155483,-0.6421209689572454
1772025090186003000,9.6680029296875,-1.112946044576168,0.40237668555378914,0.3087248806491494
1772025090196000000,9.678,-2.458203299945593,-2.7616291974037885,1.6246129798017441
1772025090205997000,9.6879970703125,-4.432848007166386,-6.924427507013082,2.8236949006944894
1772025090215993900,9.697993896484375,-6.709647276735305,-9.29228067394793,2.748127326273918
1772025090225991000,9.707990966796874,-8.807699752438069,-8.211780854946374,1.6043598808459936
1772025090235988000,9.717988037109375,-10.610614266556501,-9.180375711733102,2.511125327315926
1772025090245986000,9.727986083984375,-12.221001298737525,-10.733956568586827,4.008595297630131
1772025090255982800,9.73798291015625,-11.913334694969654,-8.26216313470602,3.4368893426358698
1772025090265980000,9.74797998046875,-10.706547168135643,-7.309404144954681,2.822854065956175
1772025090275977000,9.75797705078125,-10.383631557309627,-8.60769214387834,3.3522926585853097
1772025090285974000,9.76797412109375,-9.811785609322786,-9.188283708378671,4.2775680136054754
1772025090295970800,9.777970703125,-9.335069429838656,-9.937760597944258,4.867166475903987
1772025090305968000,9.787968017578125,-8.842911351072788,-10.172663578796387,4.974767018923163
1772025090315966000,9.797966064453124,-7.989860105264186,-9.468777643060683,4.274066435225308
1772025090325963000,9.807962890625,-6.9810852137804025,-8.703587636056541,3.0503485241174695
1772025090335959800,9.817959716796874,-6.3847618271410465,-7.593231023451685,2.0041639394327997
1772025090345957000,9.82795703125,-5.855905126053094,-6.008907237809896,1.261322980750352
1772025090355954000,9.837953857421875,-5.112255919727683,-4.27955538803041,0.7799332564972341
1772025090365951000,9.847950927734376,-3.9764591609179973,-2.586642048332095,0.4332340345017612
1772025090375948000,9.857947998046875,-3.1034178510040045,-1.1900275306910275,-0.09398264429420232
1772025090385945000,9.867945068359376,-2.2525059553116558,-0.045295185753703116,-0.8519158851031213
1772025090395943000,9.87794287109375,-0.9231342513382435,0.9798340436816215,-1.6516668448135257
1772025090405940000,9.88793994140625,0.4901502460747957,1.9314573074012993,-2.2708804009139536
1772025090415937000,9.89793701171875,1.805615005248785,2.8979794495671984,-2.685188931801915
1772025090425934000,9.90793408203125,3.1181793668061495,3.874109378033876,-2.826263582138717
1772025090435931000,9.917930908203125,4.275203038039804,4.577775533539056,-2.642055307996273
1772025090445928200,9.92792822265625,5.198174207770824,4.82769897339046,-2.4009492347203194
1772025090455926800,9.9379267578125,5.9162190172404046,4.738977318364381,-2.0533115628309546
1772025090465924000,9.947924072265625,6.523520309489965,4.549562415489554,-1.6592488243751227
1772025090475921000,9.9579208984375,7.12693336212933,4.474292947232723,-1.3093046291090547
1772025090485918000,9.96791796875,7.395869545486569,4.528405645692348,-0.8094709011487662
1772025090495915000,9.9779150390625,7.420885913321375,4.598211587846279,-0.32859029546156526
1772025090505912000,9.987912109375,7.495212547770142,4.754532614892721,-0.09725655139833689
1772025090515908900,9.997908935546874,7.551716525280475,4.987158298462629,0.02193937154226005
1772025090525907000,10.007906982421876,7.5795070340037345,5.285543279144168,0.06723981799297034
1772025090535904000,10.017904052734375,7.445414789900183,5.636910492950678,-0.20497969788387416
1772025090545901000,10.027901123046876,7.392500361314416,6.132447108238935,-0.48050483117736875
1772025090555897900,10.03789794921875,7.427071908479928,6.651957304310798,-0.631808614583686
1772025090565895200,10.047895263671874,7.183113514512777,6.859221752130985,-1.010003921822086
1772025090575892000,10.05789208984375,7.03551063145101,6.799525116059184,-1.252744975888729
1772025090585885000,10.067885009765625,6.885932064402103,6.781188664379716,-1.1891769052110612
1772025090595882200,10.07788232421875,6.742269443398714,6.685680125692486,-1.2383704135775566
1772025090605880000,10.087880126953126,6.583256693050265,6.496464544782042,-1.285298753491044
1772025090615877000,10.097877197265625,6.19801059051752,6.266204421299696,-1.1349142768867313
1772025090625874000,10.1078740234375,5.372371083247661,5.846730470472574,-0.7450425603799522
1772025090635871200,10.117871337890625,4.2132320272952315,5.058676305231452,-0.3507200019441545
1772025090645868000,10.127867919921876,2.561839030987024,3.548748127621412,-0.15625351476818322
1772025090655865000,10.137864990234375,0.2669108150094747,1.3235416826456785,-0.20704685954675078
1772025090665862100,10.147862060546874,-1.8763573514699934,-1.1730302186608315,0.08370090425461531
1772025090675860200,10.157860107421875,-3.8499417359828945,-3.74502531748116,0.9371122155472635
1772025090685857000,10.16785693359375,-5.359574145516753,-6.16138327986598,1.6324943807013332
1772025090695854000,10.17785400390625,-7.591869671970605,-6.719664228358864,1.1747564579315484
1772025090705851100,10.18785107421875,-10.517679962271451,-5.054351427769661,0.735001278032735
1772025090715848200,10.19784814453125,-11.840720709657669,-6.450998678636551,2.1837828399583694
1772025090725845000,10.207844970703125,-11.719757411718367,-7.428667653238773,2.6797423568338155
1772025090735842000,10.217842041015626,-10.133891072809696,-6.5149237460583445,2.039272662214935
1772025090745839000,10.227839111328125,-9.746622524538635,-8.299629234269261,3.017471505910158
1772025090755837200,10.237837158203124,-10.304424165081977,-10.409069949948787,4.9873763251274825
1772025090765834000,10.247833984375,-10.843512337327002,-11.286890895354746,6.170685945740342
1772025090775831300,10.257831298828124,-11.137178472793101,-11.741752970427275,5.917634729257226
1772025090785828000,10.267828125,-10.656126309931278,-11.1274076048851,4.514236250564456
1772025090795825000,10.277824951171874,-9.191580996358393,-9.52018400517106,2.3868434063479302
1772025090805822200,10.287822265625,-7.233751814860105,-7.3259057824224225,0.2016713770534843
1772025090815819000,10.297819091796875,-4.64699812284708,-4.61769954764843,-1.358544899226725
1772025090825817000,10.307817138671876,-2.371874093014002,-2.0819255167663098,-2.3647931948423384
1772025090835814000,10.31781396484375,-1.0120295093655585,-0.28743337855637074,-2.5749089404404164
1772025090845811200,10.327811279296874,0.12496142766475676,0.7890627577617764,-2.1834351955644786
1772025090855808000,10.33780810546875,1.0744827506691217,1.6700573647677897,-2.0077024888224897
1772025090865805000,10.34780517578125,2.214021618616581,2.4657079764872787,-2.2336463565409184
1772025090875802000,10.357802001953125,3.3758576585680244,2.875384171399474,-2.358396771803498
1772025090885799200,10.367799072265624,4.191509440308809,2.912041292667389,-2.3215274690896273
1772025090895796000,10.3777958984375,4.666625783380866,2.902552456571162,-2.184804291960597
1772025090905793300,10.387793212890625,5.428308074524998,2.8880262108296155,-2.1028294808462262
1772025090915791000,10.397791015625,5.836354037886857,2.9642829365581274,-1.8322182038836181
1772025090925788200,10.4077880859375,6.1854427853673695,3.2296690262183545,-1.4591114519558845
1772025090935785000,10.417784912109376,6.253837107157707,3.451572240243852,-1.3365749133504927
1772025090945782300,10.4277822265625,6.1300347864001985,3.590893032650649,-1.419118318133056
1772025090955779000,10.437779052734374,5.921998185163736,3.8284444821849464,-1.4347221299782396
1772025090965776100,10.447776123046875,5.745291957214475,4.080862076939642,-1.5138349757902323
1772025090975773200,10.457773193359374,5.741474444752932,4.228448301127552,-1.556682183869928
1772025090985771300,10.467771240234375,5.8313236425042145,4.221556203526259,-1.6137091623410582
1772025090995768000,10.47776806640625,5.985901040753721,4.220614538761973,-1.7880439849838614
1772025091005765000,10.48776513671875,6.236674375432729,4.406512957948446,-1.9902733612462877
1772025091015762200,10.49776220703125,6.442930522993207,4.687417226997018,-2.124036519525945
1772025091025759200,10.50775927734375,6.611234833300113,4.892421328669786,-2.0861258910655973
1772025091035756000,10.517756103515625,6.708842390093207,4.9499581563591954,-1.8528699467681347
1772025091045753000,10.527753173828126,6.693096539428829,4.975005503854155,-1.58506364422366
1772025091055750100,10.537750244140625,6.737685622739791,4.979299401655793,-1.436188987660408
1772025091065747000,10.547746826171876,6.781428902876376,4.965842538711429,-1.3266012163467704
1772025091075745000,10.5577451171875,6.3936325313389295,4.99012240896523,-1.0987193663030863
1772025091085742000,10.5677421875,5.50064850359261,4.803426117399335,-0.7839927610211074
1772025091095739100,10.5777392578125,4.215831396138668,4.0221559132099145,-0.7535514455281198
1772025091105736000,10.58773583984375,2.328849190279841,2.917781882146001,-1.1965594166778026
1772025091115733200,10.597733154296876,-0.3517757946074009,1.4633581496149302,-1.2828747412145136
1772025091125730000,10.60772998046875,-2.804187651669979,-0.5614315214782953,-0.2556231127977371
1772025091135727000,10.61772705078125,-4.828999534595012,-3.5458956607997414,1.1788847899079322
1772025091145725000,10.627724853515625,-6.231878957849741,-6.916987712401151,1.5677058283179997
1772025091155722200,10.63772216796875,-7.741838115119934,-8.380157061445713,1.1091504516854882
1772025091165719000,10.647718994140625,-9.840379251122474,-7.85096601383686,1.1693084216587244
1772025091175716000,10.657716064453124,-11.121913099122047,-8.552251996207236,2.0274077446371317
1772025091185713200,10.667713134765625,-10.752402910381555,-8.688228738883137,2.4152255973540244
1772025091195710200,10.677710205078125,-8.884367981576919,-8.455721713256835,2.8034090685129165
1772025091205707000,10.68770703125,-8.10443808608055,-9.386795525422691,4.067938590219617
1772025091215704300,10.697704345703125,-8.450804715120793,-10.203584786760807,5.913085979911685
1772025091225702100,10.7077021484375,-8.420196226367354,-10.602962875020504,6.701532359340787
1772025091235699200,10.71769921875,-7.988404645758867,-10.311377637481689,6.081960783582925
1772025091245696000,10.727696044921874,-7.4601722140491,-9.503447389903664,4.656744440835714
1772025091255693300,10.737693359375,-6.817573398447037,-8.468921971091628,2.8278222097575663
1772025091265690000,10.747690185546874,-5.724092517319321,-6.814407627892494,1.0969723765052855
1772025091275687200,10.757687255859375,-4.432606599625945,-4.417349993783235,-0.36464755114018915
1772025091285684200,10.767684326171874,-3.403279333978891,-1.9369623345583675,-1.4126095207609235
1772025091295681000,10.777680908203125,-2.387250525844097,0.14629823020398616,-1.8585896395891903
1772025091305678000,10.787677978515624,-1.3986562526017428,1.8353081327229737,-1.7852656063117085
1772025091315676200,10.79767626953125,-0.208772514295578,3.2537370072871443,-1.6469824863895772
1772025091325673200,10.807673095703125,1.1250678595244883,4.352185155433416,-1.8480830047525465
1772025091335670000,10.817669921875,2.4112130007117987,5.115011355915665,-2.226830246785283
1772025091345667000,10.8276669921875,3.7303655084878202,5.5025049451142545,-2.372489302302897
1772025091355664100,10.8376640625,4.934809102544188,5.276099158972501,-2.1533147825889287
1772025091365661200,10.8476611328125,5.674129924276471,4.661685988891125,-1.9733463379733263
1772025091375658000,10.857657958984374,6.145451551240682,4.129940580624342,-2.115651845279336
1772025091385655000,10.867655029296875,6.543616756579279,3.9312317797034977,-2.01582895052433
1772025091395653000,10.877653076171875,6.556718230214715,3.759835348600149,-1.4292116959936916
1772025091405650200,10.887650146484376,6.1903925167292355,3.4645623624593016,-0.7772185907110571
1772025091415647000,10.89764697265625,5.697199834218621,3.0821710648357867,-0.6989515480734407
1772025091425644000,10.90764404296875,5.702177622631192,3.2141783193588256,-1.0805370822720228
1772025091435641000,10.91764111328125,5.8298336962074035,3.6836972808152435,-1.7412606064990162
1772025091445638100,10.92763818359375,6.037413201326132,4.178364127531648,-2.456376961301267
1772025091455635000,10.937635009765625,6.150432846784591,4.564935341188312,-2.9251860209226606
1772025091465632300,10.94763232421875,6.368067881971597,4.848476973003149,-3.0971020919859407
1772025091475630000,10.957630126953125,6.537524869444966,5.041683669376373,-2.9436472680255767
1772025091485627100,10.967627197265625,6.603920126372575,5.061858442398905,-2.8995816240668297
1772025091495624200,10.977624267578125,6.457036789757013,5.090749021318555,-2.575211430518329
1772025091505621200,10.987621337890625,6.2079416174232955,5.4184232248485085,-1.9868008628301321
1772025091515618000,10.9976181640625,5.800092637938261,5.708454218682647,-1.5645907650373876
1772025091525615000,11.007614990234375,5.398918898433447,5.48639902896583,-1.2457974948383868
1772025091535612200,11.017612060546876,4.990710437986254,4.930841367956996,-1.0161270078122615
1772025091545609000,11.02760888671875,4.42131422123909,4.224395226344466,-1.373522688128054
1772025091555606000,11.03760595703125,3.5385534813433885,3.285552533742785,-1.3934963856205342
1772025091565604000,11.04760400390625,2.27377846044302,1.9405729262709617,-1.2748244134888052
1772025091575601200,11.05760107421875,0.8917138616800308,0.40196225953400133,-0.6784094030432403
1772025091585597700,11.06759765625,-0.49957916867733,-1.9006582645118235,0.4856444590881467
1772025091595594800,11.0775947265625,-2.421387773245573,-4.521268048897386,1.7257604011587797
1772025091605591800,11.087591796875,-3.330307621270418,-6.161824009370804,2.1719955176614225
1772025091615588600,11.097588623046875,-4.157369270297885,-5.9903235333710905,1.8961760045312344
1772025091625586000,11.1075859375,-5.595770673310756,-5.913184764111041,1.8046397304758428
1772025091635582700,11.117582763671875,-6.3764540175229305,-7.888032300427556,2.731939577060938
1772025091645580800,11.127580810546876,-6.28626287446618,-9.439680727913975,2.9037407895728946
1772025091655577600,11.13757763671875,-6.127642338305711,-9.670116207963227,2.080670694399625
1772025091665575000,11.147574951171874,-6.142347155484557,-9.790915839773415,2.878909130655229
1772025091675571700,11.15757177734375,-5.717314986008406,-9.899887086623906,3.7946839591413735
1772025091685568800,11.16756884765625,-6.266518309554457,-10.366023419904709,4.175170884448289
