time,seconds_elapsed,z,y,x
1772024897290642000,0.078641845703125,1.8281524157494307,-0.9238245716899632,-0.4184780716575682
1772024897300638000,0.088637939453125,2.088682005289197,-0.8228285415023565,-0.4573464392341673
1772024897310635000,0.098635009765625,1.538396731725335,0.14132219535708426,-0.6597894582472741
1772024897320632000,0.108632080078125,0.7634785269111395,1.0748679505944252,-1.1032213538974522
1772024897330629000,0.118629150390625,0.7177005260765552,2.014254833075404,-1.2935593629665672
1772024897340626000,0.1286259765625,1.0151736526101827,2.6106302421629426,-1.4153133728921412
1772024897350623200,0.138623291015625,1.4352385550677775,2.1317963398724795,-1.6837367844216524
1772024897360619000,0.148618896484375,1.7869091357350348,2.1480138997018337,-1.6507019453041254
1772024897370616000,0.158615966796875,3.0801568024039265,1.3991606949925421,-0.9287978300578892
1772024897380613000,0.168613037109375,4.289863431555032,1.5238970817297697,0.6967372330248356
1772024897390610200,0.178610107421875,4.0145547905564305,2.306555525407195,1.4185514780305326
1772024897400607200,0.188607177734375,2.2579238887071607,2.4583698886841536,1.5009562049947678
1772024897410604300,0.198604248046875,1.407393101286888,2.5410043327510357,1.4051063055239617
1772024897420600000,0.20860009765625,2.1571645898848772,3.1038889756470915,0.9456499614637345
1772024897430597400,0.218597412109375,3.5247914979726076,3.823159527519345,-1.9108761455349623
1772024897440594200,0.22859423828125,4.312029670655727,4.250063920608163,-4.224091274961829
1772024897450591200,0.23859130859375,5.577115072679519,4.015402347296476,-3.6115474058836696
1772024897460588300,0.24858837890625,6.836303817880153,3.8563606631144878,-3.652134560076892
1772024897470585000,0.258585205078125,6.727553520303964,2.8509961645960806,-2.5682690640345216
1772024897480581400,0.268581298828125,5.044696295195818,0.4389911367237568,-1.7092166781149805
1772024897490578200,0.278578125,2.191243969619274,-3.0766771435946225,-2.7433383384317156
1772024897500575200,0.2885751953125,0.602911532858014,-5.179772289639711,-3.207089822402596
1772024897510572300,0.298572265625,-4.506561478152871,-6.949102514064312,-0.49440644221454855
1772024897520569300,0.3085693359375,-15.598389820134638,-7.3119070676863185,7.414567816215754
1772024897530566100,0.318566162109375,-23.689316098213194,-3.1552269486963747,12.613088060945271
1772024897540562200,0.328562255859375,-23.41207736593485,-6.22654694917202,4.365321115860342
1772024897550559200,0.338559326171875,-16.548952176624535,-5.837503207921982,-6.696033761924505
1772024897560556300,0.348556396484375,-13.469490955269336,-5.186621717143058,-7.812830636709928
1772024897570553300,0.35855322265625,-13.04353582572937,-6.356134283071756,-8.609308931425213
1772024897580550100,0.368550048828125,-12.594618338274955,-7.223966333904862,-8.171507296746968
1772024897590547200,0.378547119140625,-11.429303808557986,-7.374885209646821,-6.297587401556968
1772024897600543200,0.388543212890625,-10.425403829634188,-6.897765125536918,-4.201226532202959
1772024897610540000,0.3985400390625,-9.628301265540719,-6.500362721264362,-1.975205263713002
1772024897620537300,0.408537353515625,-8.61783827483952,-6.144364340525865,-0.4479895589545369
1772024897630534100,0.4185341796875,-6.037934010329842,-5.46888850671649,0.43628553102687
1772024897640531200,0.42853125,-2.856502360796928,-4.514752967914939,0.8865947651006281
1772024897650528300,0.4385283203125,-0.2709679814457893,-3.3441099366515874,1.5080625298686325
1772024897660524000,0.44852392578125,1.470992005494237,-1.5794909586578607,1.9370798234581945
1772024897670521300,0.458521240234375,2.9382419018507,0.5029664730280637,1.5499170736491679
1772024897680518100,0.46851806640625,3.905717399218678,2.223514254105091,0.8727538712747395
1772024897690515200,0.47851513671875,4.99092378847599,3.3150773189127443,0.3955866600874811
1772024897700512300,0.48851220703125,6.321280996355414,3.6485733604639767,0.20434941889001054
1772024897710508000,0.498508056640625,7.161013326385617,4.318400959253311,0.5362238688550889
1772024897720505300,0.50850537109375,6.683619101509452,6.133345518383384,0.384817611454986
1772024897730502100,0.518502197265625,5.685028334909677,8.035823984059691,0.07570339356153272
1772024897740499200,0.528499267578125,5.790502971816062,8.729444546368718,0.3447974800273776
1772024897750496300,0.538496337890625,6.596124942451715,8.219408281084895,0.8281464485894888
1772024897760493300,0.548493408203125,7.399213595217466,6.902540084853768,0.6779333099640905
1772024897770489000,0.558489013671875,8.063775820824503,6.1735974492728705,0.8441718468476086
1772024897780486100,0.568486083984375,8.70815742819011,5.904484155783057,1.1920687541950494
1772024897790483200,0.578483154296875,8.609881178355216,5.162189286676049,1.3061051024153827
1772024897800480000,0.58847998046875,7.727287611719966,4.429320417562127,1.7029419817596674
1772024897810477300,0.598477294921875,6.582879676431417,3.9079286455273627,2.099836436510086
1772024897820474000,0.60847412109375,5.772239585372805,3.8183185172289607,2.0361834640279413
1772024897830470400,0.618470458984375,5.618617295891046,4.04842315788865,1.150691472537443
1772024897840467200,0.62846728515625,5.595946029877663,4.664557744935155,0.2871668365746736
1772024897850464000,0.638464111328125,6.030289048534631,4.896828039196134,-0.1592102822145447
1772024897860461300,0.64846142578125,6.688679892030358,5.072824073049426,-0.28099512566979973
1772024897870458000,0.6584580078125,7.794168021816015,5.618973854243755,-0.3077512863766402
1772024897880455200,0.668455078125,7.435155846214294,4.619527932119369,-1.6690585629887877
1772024897890451200,0.678451171875,6.35914749341309,3.668686758688092,-2.54868933429569
1772024897900448300,0.6884482421875,5.644615075978637,3.9065971046626564,-2.0257580777339634
1772024897910445300,0.6984453125,5.057419583168626,4.099872190096974,-0.7778951017331331
1772024897920442000,0.708442138671875,4.700664246582985,4.071108452427387,0.09041633011475204
1772024897930439200,0.718439208984375,4.6194431764453645,3.8951311232745645,-0.4715737020291388
1772024897940436200,0.728436279296875,4.109931227296591,3.4212317547768354,-1.4499914491720496
1772024897950432300,0.738432373046875,3.162264592248201,2.434287586829066,-2.6094062533259392
1772024897960429300,0.74842919921875,2.2352175513803956,0.7528583486974239,-3.974389076645672
1772024897970426400,0.75842626953125,0.6533411588907242,-0.11569792475700377,-3.2329496553242203
1772024897980423200,0.768423095703125,-0.5652993028223514,-0.6975210768789053,-0.746508175953105
1772024897990420200,0.778420166015625,-3.3165351165056225,-5.724059784093499,0.5228782112002373
1772024898000417300,0.788417236328125,-10.21407812372446,-11.51821894032955,0.26122261330522595
1772024898010413000,0.7984130859375,-14.752698873960972,-14.93369958423376,-1.552522287711501
1772024898020410400,0.808410400390625,-15.290817908912896,-14.455888010728358,-1.7414963149510323
1772024898030407200,0.8184072265625,-15.966160471731424,-9.379723979601263,-1.8527679476983845
1772024898040404200,0.828404296875,-14.049376417326926,-4.748844632384181,-1.9105781855016946
1772024898050401300,0.8384013671875,-12.639827599310875,-5.906552778750657,-0.9796917126014828
1772024898060398000,0.848398193359375,-12.584702508938312,-7.2195683912068604,0.6713089233882725
1772024898070394400,0.858394287109375,-11.090545316433905,-7.343384155967831,3.0192697875037786
1772024898080391200,0.86839111328125,-9.688265028116106,-8.043480636292696,4.095189000716805
1772024898090388200,0.87838818359375,-8.400387364047765,-7.386872000038624,3.719189449957013
1772024898100385300,0.88838525390625,-7.261652213698625,-5.851136011955142,3.31383579441905
1772024898110382300,0.89838232421875,-6.003400457087158,-4.515597602045536,2.6075381213665008
1772024898120378400,0.90837841796875,-4.544070247814059,-3.09436185336709,1.838220805299282
1772024898130375200,0.918375244140625,-3.0761586726784707,-1.607252825808525,1.2439064203947783
1772024898140372200,0.928372314453125,-1.7318623712956904,-0.3026180882066488,0.5991084873132407
1772024898150369300,0.938369384765625,-0.5904115322470664,0.6729840169936419,0.07886168406251817
1772024898160366300,0.948366455078125,0.3551028932034969,1.796446194887161,-0.2317817070264369
1772024898170363100,0.958363037109375,1.3365093007683753,2.8811157007887958,0.0015759440798312424
1772024898180359200,0.968359130859375,1.9758102438688276,3.801159877157211,0.33143790344502777
1772024898190356200,0.978356201171875,2.918269957923889,4.38837816632092,0.7114505257710814
1772024898200353000,0.98835302734375,4.2847143782287835,4.360036453455686,1.105880490104109
1772024898210350300,0.998350341796875,5.493070761814713,4.171146451237798,1.3642698527447878
1772024898220347100,1.00834716796875,6.385694139555096,4.115913224315643,1.837340807594359
1772024898230344200,1.01834423828125,6.797657568621635,3.755849493834376,2.23762432026118
1772024898240340200,1.02834033203125,7.051953232207894,3.235824918499589,2.620909644114971
1772024898250337000,1.0383369140625,7.1461606251686804,2.877105588364601,2.7365599303379655
1772024898260334300,1.048334228515625,7.222029228362441,2.6369606152057647,2.4082725633457303
1772024898270331100,1.0583310546875,7.061724100115895,2.6146248647570607,1.9823617113389074
1772024898280328200,1.068328125,6.753330351117253,2.932774284094572,1.582729794448614
1772024898290325200,1.0783251953125,6.679314097791909,3.399331473135948,1.1487751905873418
1772024898300321000,1.088321044921875,6.722293992340564,3.846878841280937,0.8873100737631321
1772024898310318300,1.098318359375,6.7046373396188015,4.209348463860154,0.6628966304823756
1772024898320315100,1.108315185546875,6.741245361047983,4.599993795087934,0.544865659667924
1772024898330312200,1.118312255859375,6.809204798552393,4.987814716544747,0.6309937180042267
1772024898340309200,1.128309326171875,6.854087311851978,5.195932566323876,0.6732669986534864
1772024898350306300,1.138306396484375,6.769643772536516,5.219768199941516,0.611252441028133
1772024898360302300,1.14830224609375,6.703350222417712,5.238174209725856,0.6352424614898861
1772024898370299400,1.15829931640625,6.594331629294157,5.161836819976568,0.6068905925568193
1772024898380296200,1.168296142578125,6.092450028893351,5.106161109983921,0.598652487174049
1772024898390293500,1.17829345703125,5.313678071260452,5.089894450315833,0.529991148477979
1772024898400290800,1.188290771484375,4.493913593503833,4.739462471532821,0.054824646121263504
1772024898410287600,1.19828759765625,4.053454137793183,3.991620489692688,-0.28006635691970583
1772024898420284000,1.208283935546875,3.116818599846959,2.7245769393384456,-0.4882613270556554
1772024898430280700,1.21828076171875,1.3961048145532606,0.7244891633033752,-1.0177151537865399
1772024898440277500,1.228277587890625,-0.980347838422656,-2.17308638163805,-1.524248671646416
1772024898450274800,1.23827490234375,-5.267627683225274,-5.9200990735441446,-1.1107187239155172
1772024898460271600,1.248271728515625,-8.961151361528039,-8.714495983561873,-1.3056895073518155
1772024898470268700,1.2582685546875,-11.640346605873107,-9.775095170307159,-2.6276845450773836
1772024898480264700,1.2682646484375,-13.765712620437144,-10.6216208137393,-3.276773014959693
1772024898490261800,1.27826171875,-14.568631761854887,-11.291669946324825,-3.2531364110454914
1772024898500258600,1.288258544921875,-14.768677364337444,-6.475270365583897,-5.428198768931627
1772024898510255600,1.298255615234375,-14.107025473219155,-5.503630734273791,-4.8103863118007775
1772024898520252700,1.308252685546875,-13.048413076376914,-7.517592137360572,-2.8795965283975002
1772024898530249500,1.31824951171875,-12.025350131821632,-8.058693987515568,-1.7237623592093585
1772024898540245800,1.328245849609375,-10.60078728454709,-9.341057272076606,0.5199500122612342
1772024898550242600,1.33824267578125,-9.17625833954215,-10.02628994526863,2.4626520960479974
1772024898560239900,1.348239990234375,-7.598828405067324,-9.112034581434726,2.3980912149406968
1772024898570236700,1.358236572265625,-6.350725117504596,-7.203329204067588,1.741758619149029
1772024898580233500,1.3682333984375,-4.919671154645085,-5.536925101110339,1.3505787426531315
1772024898590229800,1.378229736328125,-3.507894139185548,-3.9958746400058267,0.7647692973740399
1772024898600226600,1.3882265625,-1.9924200178861617,-2.20279646024704,0.2614256615966558
1772024898610223900,1.398223876953125,-0.6281038417816162,-0.45382922489345073,0.29937055765278636
1772024898620220700,1.408220703125,0.518762592574954,0.9317430897295474,0.21798706349506972
1772024898630217700,1.4182177734375,1.3751800999462604,2.182612334874272,-0.1616992860186845
1772024898640214800,1.42821484375,2.221606374657154,3.4145728814095255,-0.23752353861406444
1772024898650211600,1.438211669921875,3.009925328314304,4.4586032106697555,-0.05219780474901199
1772024898660207900,1.448207763671875,3.952456938561797,4.96802222083807,0.2452597588893026
1772024898670204700,1.45820458984375,5.050396552664041,5.058527836671471,0.700674791669473
1772024898680201700,1.46820166015625,5.987486848640441,5.012977214851976,1.1275590918183327
1772024898690198800,1.47819873046875,6.732285225000977,4.9897716958314176,1.5399917458318173
1772024898700195800,1.48819580078125,7.043169621771574,4.792081132042408,1.9132541267126797
1772024898710191600,1.498191650390625,6.990278574061393,4.390461986857653,2.0175006831288336
1772024898720188700,1.508188720703125,6.769003721067309,4.086444553247094,1.9892856653831898
1772024898730185700,1.518185791015625,6.516215539434552,3.932043680608272,1.8187402981512248
1772024898740182500,1.5281826171875,6.3863663397282355,3.8918075318098064,1.54605279943645
1772024898750179800,1.538179931640625,6.282288710138201,3.9409471180319784,1.2342359441213309
1772024898760176600,1.5481767578125,6.167283443820476,4.170743131133913,0.8611344528906046
1772024898770172700,1.558172607421875,6.228019944334029,4.48082673291564,0.48685420020408926
1772024898780169700,1.568169677734375,6.3963575723886485,4.765546760860085,0.23398909914391114
1772024898790166500,1.57816650390625,6.413851728025079,5.024482943728566,0.017185765540692954
1772024898800163800,1.588163818359375,6.4763821262180805,5.214910238516331,-0.14719106912417337
1772024898810160600,1.59816064453125,6.550324729785323,5.38897208943665,-0.3237518059218302
1772024898820157700,1.60815771484375,6.521209109938145,5.650106659132242,-0.4216641908803955
1772024898830153700,1.61815380859375,6.449715653088688,5.7852370141118765,-0.3240237181983888
1772024898840150500,1.628150634765625,6.355391940271854,5.672489171332121,-0.2701389102105051
1772024898850147800,1.63814794921875,6.207091138073801,5.591454563677311,-0.23531737033929676
1772024898860144600,1.64814453125,5.660769507443905,5.401212562328577,-0.25247882342264055
1772024898870141700,1.6581416015625,4.775251577794552,4.899567108771205,-0.503166854438372
1772024898880138800,1.668138671875,4.4633086118817324,4.058259492248297,-0.8576745947603136
1772024898890134500,1.678134521484375,3.5505268277317286,2.529599141639471,-1.166824057497084
1772024898900131600,1.688131591796875,1.555849386307597,-0.09871054959893226,-0.9933658715583383
1772024898910128600,1.698128662109375,-1.501317001131177,-3.7605969806224104,0.022972294786572454
1772024898920125700,1.708125732421875,-4.8774569837719195,-8.40270966951549,1.1789419999878852
1772024898930122500,1.71812255859375,-8.503446171984075,-12.006025838148593,0.9888527780480683
1772024898940119800,1.728119873046875,-12.19577801015377,-12.736677031213045,-0.08044402135051787
1772024898950115600,1.738115478515625,-14.838829343450069,-13.766668898248671,0.27994075777865945
1772024898960112600,1.748112548828125,-16.02158133018017,-12.169565710532664,-0.17504618578255177
1772024898970109700,1.758109619140625,-15.255442644149063,-7.271115623092651,-1.8873491394750772
1772024898980106500,1.7681064453125,-13.728710046732425,-6.986366369053721,-0.9234753198608755
1772024898990103800,1.778103759765625,-13.107912728571891,-7.753266102585196,0.6637354193940759
1772024899000100600,1.7881005859375,-12.210843477338551,-8.227233860144018,2.148756388632208
1772024899010097000,1.798096923828125,-10.948245800477265,-8.765593718114495,3.7097365619570013
1772024899020093700,1.80809375,-9.71416168591678,-8.324199027380347,4.294398736897111
1772024899030090500,1.818090576171875,-8.2934777259022,-6.922979646292329,3.8403415484666823
1772024899040087800,1.828087890625,-6.412274687966704,-5.272378677144646,3.2187904893293977
1772024899050084600,1.838084716796875,-3.9925253295779224,-3.1431706001996993,2.011134947489202
1772024899060081700,1.84808154296875,-1.765204084405303,-1.025728948894143,0.7983033181853592
1772024899070077700,1.85807763671875,0.021853519889712333,0.5347931053996086,0.03757913148365915
1772024899080074800,1.86807470703125,1.2578864304304123,1.5619430270075798,-0.43086452889144417
1772024899090071600,1.878071533203125,2.2862065648615357,2.311104274752736,-0.7943249160736798
1772024899100068600,1.888068603515625,2.990408142417669,3.0907039153814315,-1.0960095228224993
1772024899110065700,1.898065673828125,3.6836452583670614,3.6982980530977247,-1.2672187607906757
1772024899120062500,1.9080625,4.713931139913201,3.8906981092631816,-1.0120556667201221
1772024899130058800,1.918058837890625,5.749864671957493,3.7047587735444307,-0.6055269029881805
1772024899140055600,1.9280556640625,6.560704669502377,3.5734213811069724,-0.24300591554790735
1772024899150052900,1.938052978515625,7.089957676431537,3.6803959011822935,-0.01133724044188857
1772024899160049700,1.948049560546875,7.343977445685863,3.7550153810977935,0.11845350707545876
1772024899170046500,1.95804638671875,7.366047238674759,3.6278064667671917,0.2627059106655419
1772024899180043800,1.968043701171875,7.018176634812354,3.5576954041868447,0.44486791980266566
1772024899190039600,1.97803955078125,6.545044159033894,3.673063658598065,0.40283232036679983
1772024899200036900,1.988036865234375,6.313845877918601,3.854305776411295,0.22836554190739988
1772024899210033700,1.99803369140625,6.260836756786704,4.269506287702918,-0.08236432188861072
1772024899220030700,2.00803076171875,6.222952724072337,4.669365437477826,-0.46308081816770136
1772024899230027800,2.01802783203125,6.2094876778215164,5.019947638386488,-0.8369066781502217
1772024899240024600,2.028024658203125,6.221736918541788,5.459844199517369,-1.0867689623989165
1772024899250020900,2.038020751953125,6.1904281725645065,5.793977954450249,-1.0645143874276428
1772024899260017700,2.048017578125,6.2062441658556455,6.049127019995451,-1.0561267905715852
1772024899270014700,2.0580146484375,6.141117905950546,6.294480667713284,-1.0336528737612067
1772024899280011800,2.06801171875,6.114055711501837,6.42552404564023,-0.8258508849982171
1772024899290008800,2.0780087890625,6.051145374080538,6.477820050066709,-0.7340806560564785
1772024899300004600,2.088004638671875,5.835536876285076,6.566957300156354,-0.9540402617335318
1772024899310001700,2.098001708984375,5.406865473523736,6.603709113970399,-1.2089222007751463
1772024899319998700,2.107998779296875,4.908963298147916,6.437338402074575,-1.3954882900901138
1772024899329995500,2.11799560546875,3.965353245013952,6.150960670050979,-1.6689727844014763
1772024899339992800,2.127992919921875,3.1206630003154276,5.180110727813839,-1.954432086405903
1772024899349989600,2.13798974609375,2.4754198076844216,3.3590947398155926,-1.8482006397828459
1772024899359985700,2.147985595703125,1.1653133606731891,0.8451140230685472,-1.0105596560087053
1772024899369982700,2.157982666015625,-0.7349328159064054,-3.4482062709420918,0.8776924236554652
1772024899379979500,2.1679794921875,-3.597762041637301,-8.410056525146961,2.901045266878605
1772024899389976800,2.177976806640625,-7.578174324095249,-10.443317087465523,2.961742896686494
1772024899399973000,2.18797314453125,-11.2797071213305,-10.305497347271443,2.1301807213693857
1772024899409970200,2.19797021484375,-13.045974451053143,-12.607653176414965,2.363208848260343
1772024899419966200,2.20796630859375,-13.818908788573742,-9.443132914194464,0.1800285407723859
1772024899429963000,2.217962890625,-13.083475037407874,-7.204094343221187,-1.9378418938718736
1772024899439960300,2.227960205078125,-12.618562692964076,-8.734410644343495,-1.1431999477382748
1772024899449957000,2.23795703125,-11.823239998024702,-9.55071475251317,0.30920290995705874
1772024899459954200,2.2479541015625,-10.29507532197833,-10.243631550467013,1.805946721421182
1772024899469951200,2.257951171875,-9.145640498438476,-10.323056384837626,2.330363248104602
1772024899479948300,2.2679482421875,-8.499625736913085,-9.142052118557691,2.2638307746633886
1772024899489944300,2.2779443359375,-6.6217550582706926,-7.4239225045382975,2.2406239404685793
1772024899499941000,2.287941162109375,-3.8062615842103957,-5.536217245101929,1.4362211363643407
1772024899509938200,2.297938232421875,-1.7082821737438438,-3.714167237880826,0.3042670244574547
1772024899519935200,2.307935302734375,-0.8665607157230377,-2.266413484632969,-0.765904365818575
1772024899529932300,2.317932373046875,-0.5115753114193677,-0.9103846598803996,-1.5477689557045697
1772024899539929000,2.32792919921875,-0.4472480929374695,0.42479310002326964,-1.726525394181907
1772024899549925000,2.337925048828125,0.19218144497871398,1.674678594827652,-1.780353430481255
1772024899559922200,2.347922119140625,1.5732225459128617,2.6043442937612533,-1.5670400578856467
1772024899569919200,2.357919189453125,2.636495335781574,3.299785057234764,-0.9773397426478564
1772024899579916300,2.367916259765625,3.4064772532373664,3.6515111674815413,-0.0945343781591393
1772024899589913000,2.3779130859375,4.322483260130882,3.6099493230372666,0.7294283732712269
1772024899599910100,2.38791015625,5.180163919305801,3.7648891248583793,1.2679926677726208
1772024899609906200,2.39790625,5.7778702847361565,3.9779315715581176,1.5477321308255194
1772024899619903000,2.407903076171875,6.1378714713752265,3.9585663613528013,1.6289746821425855
1772024899629900300,2.417900390625,6.467250140735507,3.8154339017033574,1.4710289765037596
1772024899639897000,2.42789697265625,6.507707823330164,3.6454946836709974,1.3103047460623085
1772024899649894100,2.43789404296875,6.36104952764213,3.708131464847922,1.050634257569909
1772024899659891200,2.44789111328125,6.133106448930501,4.12649365504086,0.6160282771278173
1772024899669887000,2.457886962890625,5.767478654581308,4.493528393578529,0.3256659324474633
1772024899679884300,2.46788427734375,5.590408269494771,4.88348048184514,0.17411584612987935
1772024899689881000,2.477881103515625,5.687770911616087,5.259200631141662,-0.01018595151491463
1772024899699878100,2.487878173828125,5.924372513079643,5.47837997316122,-0.09358611925728619
1772024899709875200,2.497875244140625,6.069006024941801,5.699724968782067,0.016697269637696445
1772024899719872300,2.507872314453125,6.1936857130557295,5.887779104697704,0.048820656466111535
1772024899729868300,2.517868408203125,6.2055836561203,5.988378244522214,-0.02050027864985168
1772024899739865000,2.527864990234375,6.122631816667318,5.970323532393574,-0.198291160030663
1772024899749862100,2.537862060546875,5.8909758549124,5.890875317147374,-0.4083970783544704
1772024899759859200,2.547859130859375,5.381022007215023,5.874903256511688,-0.6729671389240771
1772024899769856300,2.557856201171875,4.665042313581705,5.8348524011522525,-1.1172836353890596
1772024899779853000,2.56785302734375,3.6914427803754806,5.705945450732112,-1.5516688857525587
1772024899789849300,2.577849365234375,2.562549809604883,4.842453474929928,-1.786536649160832
1772024899799846100,2.58784619140625,1.3486638489425182,3.2272944060415028,-2.233213664212078
1772024899809843000,2.597843017578125,-0.1119979011952877,1.5514707328319548,-2.4740248461946845
1772024899819840300,2.60784033203125,-1.8603730158746241,-1.0349749161452055,-1.864106941705942
1772024899829837000,2.617837158203125,-3.7586668893426656,-4.988744690871238,-0.49871897165142
1772024899839834000,2.627834228515625,-5.680083864244819,-8.658003111967444,0.74772288550511
1772024899849830100,2.637830078125,-7.9963781088560815,-10.029719919717312,1.385730281663686
1772024899859827200,2.6478271484375,-10.558008465528488,-11.54705457419157,2.2399808202594516
1772024899869824300,2.65782421875,-11.060040288054942,-12.04575929812193,2.429320173680037
1772024899879821000,2.667821044921875,-10.276543639987706,-7.834124184629321,-0.3115475003218278
1772024899889818000,2.677818115234375,-8.818256802287697,-8.370728138843178,-0.6501603368975222
1772024899899815200,2.687815185546875,-7.986903593546152,-10.14850412005186,0.3574326878579333
1772024899909811200,2.697811279296875,-7.929543875989317,-10.338777685582636,1.7206962496370075
1772024899919808300,2.707808349609375,-6.9376447159826755,-10.638010807526111,3.360304700127244
1772024899929805300,2.717805419921875,-6.497351264488697,-9.865784910535812,3.232549257829785
1772024899939802000,2.727802001953125,-6.253248493614793,-7.806054274442792,3.07282105268836
1772024899949799200,2.737799072265625,-4.432678495818377,-5.539574154314399,2.871682102011144
1772024899959796200,2.747796142578125,-2.2993746739923955,-3.3306092345654963,1.2235532220654188
1772024899969792000,2.7577919921875,-1.1349228985846043,-1.6365554926604031,-0.3899258213141933
1772024899979789300,2.767789306640625,-0.9849392578661441,-0.176550745126605,-1.3692644461616872
1772024899989786000,2.7777861328125,-0.5757680898666382,1.1379629969328642,-1.7645102569222448
1772024899999783200,2.787783203125,0.2874807248294353,2.130980347314477,-1.8008327394083141
1772024900009780200,2.7977802734375,1.0374643948733806,3.070581164807081,-1.5244826265327631
1772024900019777000,2.807777099609375,1.893667382711172,3.68954133066833,-1.1397626667659728
1772024900029773300,2.817773193359375,3.011680063027143,3.75666256378293,-0.5303476702980697
1772024900039770000,2.82777001953125,4.106998680976033,3.762086342397332,-0.041102602035226296
1772024900049767200,2.83776708984375,5.04348048966527,3.762584355047345,0.2347374332931824
1772024900059764200,2.84776416015625,5.818379405257105,3.6694039670467373,0.4986977096676826
1772024900069761300,2.85776123046875,6.287685016223788,3.561798163330555,0.609812106026709
1772024900079758000,2.867758056640625,6.388944081261753,3.510536178126931,0.7235606502816081
1772024900089754000,2.877754150390625,6.421640482205152,3.376777696022391,0.8906818882837891
1772024900099751200,2.887751220703125,6.175042387384176,3.3908372010350227,0.7342381116405129
1772024900109748200,2.897748291015625,6.037485682040453,3.619892624902725,0.4770116552993655
1772024900119745300,2.907745361328125,6.008212241283059,3.9283559320062396,0.32601883753836153
1772024900129742000,2.9177421875,6.002780279362201,4.292732849511504,0.16222035075072197
1772024900139739400,2.927739501953125,6.089004856875539,4.665055757585168,0.00838798044854775
1772024900149736200,2.937736083984375,6.2225920740664,5.011818692466616,-0.0013462909092660992
1772024900159732200,2.947732177734375,6.251950855019688,5.288118098068237,0.050523478328622876
1772024900169729300,2.957729248046875,6.358450158798695,5.4738247940748925,0.19802143971119074
1772024900179726000,2.96772607421875,6.399127037101984,5.54082152402699,0.2394087678387761
1772024900189723100,2.97772314453125,6.370117215716839,5.567666860854626,0.05261244996450841
1772024900199720200,2.98772021484375,6.284872296890616,5.485718060964346,-0.1569372957812622
1772024900209717200,2.99771728515625,6.019895080292224,5.4911728192389,-0.4853523077411577
1772024900219713300,3.00771337890625,5.586133076393604,5.500564916962385,-0.9281751681149005
1772024900229710000,3.0177099609375,4.991064658251404,5.296349335318803,-1.3923380093656479
1772024900239707100,3.02770703125,3.7374224412620065,4.728728896072506,-1.830885640105605
1772024900249704200,3.0377041015625,1.4875579403698445,3.7072406534880398,-1.859274699243903
1772024900259701200,3.047701171875,-0.10189034867882728,1.7929565992057321,-1.862964932063967
1772024900269698000,3.057697998046875,-1.7892630053848027,-1.1656447845846414,-1.326938923868537
1772024900279694000,3.067694091796875,-4.208320874378085,-5.24380023291409,0.1983747466608882
1772024900289691100,3.077691162109375,-7.546658072847127,-8.429493631544709,1.7654478300333023
1772024900299688200,3.087688232421875,-11.936512156939505,-9.927038128399849,2.7736431680634617
1772024900309685200,3.097685302734375,-14.593956757247447,-12.023000353825092,3.5802988656610246
1772024900319682000,3.10768212890625,-14.875836593329906,-9.557755903196334,1.4616753110945224
1772024900329679400,3.117679443359375,-13.439881414425372,-5.569608642572164,-1.7554719410724937
1772024900339675100,3.127675048828125,-11.111368324232101,-6.990088019925356,-0.8424776832155882
1772024900349672200,3.137672119140625,-10.554192706632614,-8.669570800164342,1.0735832445461302
1772024900359669200,3.147669189453125,-10.246783292496204,-10.14037225152254,3.15643895483464
1772024900369666000,3.157666015625,-8.23289963082075,-10.993900467193127,4.622577675078809
1772024900379663000,3.1676630859375,-6.791546392264962,-10.443795226371288,4.252230450992286
1772024900389660200,3.17766015625,-5.983120470124483,-8.509691203853487,3.9325022380307315
1772024900399656000,3.187656005859375,-3.833776783123612,-6.715851392072439,3.221691471467912
1772024900409653200,3.1976533203125,-2.1279951940238475,-4.756970655694603,1.5061232323691247
1772024900419650000,3.207650146484375,-1.2055927640914916,-2.4959108070492744,-0.15993614880368112
1772024900429647000,3.217647216796875,-0.1571188994258642,-0.7022258935689926,-1.3876008978411554
1772024900439644200,3.22764404296875,0.7159019522219896,0.5541618227362632,-2.145113502085209
1772024900449641000,3.237640869140625,1.0099544566571712,1.7151047132402657,-2.3447502315059303
1772024900459638000,3.247637939453125,1.4881290182560682,2.6578905905097723,-1.9390012930400669
1772024900469634000,3.257634033203125,2.4254238968938586,3.206932001492381,-1.2547948941558598
1772024900479631000,3.267631103515625,3.5009243001729247,3.440180200874805,-0.5812933560941368
1772024900489628200,3.277628173828125,4.668678624257445,3.5215474014848467,-0.09417590184397995
1772024900499625200,3.287625244140625,5.686109700405598,3.4659622923851012,0.43240627844072876
1772024900509622000,3.2976220703125,6.385424674963951,3.1497219215393066,0.9698683107886463
1772024900519619000,3.307619140625,6.872617824798822,2.7584546590209005,1.4298606614217162
1772024900529615000,3.317614990234375,6.957806045001745,2.484042090079188,1.7404826078638433
1772024900539612200,3.327612060546875,6.9385629998713725,2.305276591512561,1.7858831536881625
1772024900549609200,3.337609130859375,7.052144955387711,2.232964219495654,1.5911835884086787
1772024900559606000,3.34760595703125,7.063980939131975,2.4104671507805584,1.1726929495304823
1772024900569603300,3.357603271484375,7.136867311644553,2.811774161276221,0.7938710348263383
1772024900579600100,3.36760009765625,7.2669690248072145,3.250451409745216,0.5050095231629907
1772024900589596200,3.37759619140625,7.202959786233306,3.7700457769691944,0.27274806979559363
1772024900599593200,3.38759326171875,7.109464340934157,4.314415689009428,0.09967117479201405
1772024900609590000,3.397590087890625,7.163575285828113,4.731453352600336,-0.08243727752696722
1772024900619587000,3.407587158203125,7.257375851553678,4.979798583349585,-0.1352554426640272
1772024900629584100,3.417584228515625,7.216189270162582,5.160552625384926,-0.24413612515423447
1772024900639581200,3.427581298828125,7.004023606297373,5.291580805742741,-0.4606467959538102
1772024900649578000,3.437577880859375,6.789615716463327,5.400733254379034,-0.624796470799297
1772024900659574000,3.447573974609375,6.544358514857292,5.5059711599200964,-0.9234951936051249
1772024900669571000,3.457571044921875,5.811177511054277,5.555694098988175,-1.3373099496267735
1772024900679568100,3.467568115234375,5.251953144231439,5.204240375941992,-1.713822126083821
1772024900689565200,3.477565185546875,4.458817730203271,4.57747099763453,-1.9757447774171828
1772024900699562000,3.48756201171875,2.395871054673195,3.316954218700528,-2.004303055642545
1772024900709559300,3.497559326171875,-0.6739876410782337,0.6770142954230308,-1.786655160973966
1772024900719555000,3.50755517578125,-4.17494701256454,-2.3883038342893124,-0.9737315620880573
1772024900729552100,3.51755224609375,-7.585287955492735,-5.145017202600837,0.007416779062524437
1772024900739549200,3.527549072265625,-10.48735964280963,-7.821871436777711,0.39838312240559604
1772024900749546000,3.5375458984375,-13.786457302302122,-9.53625952618122,0.46031197450887407
1772024900759543300,3.547543212890625,-16.447707140111923,-9.886870953184365,0.6775992557041347
1772024900769540000,3.5575400390625,-17.45475886106491,-6.313349034312367,-1.4647538417570292
1772024900779536100,3.5675361328125,-16.607120287954807,-4.164769901943207,-2.6203695458889005
1772024900789533200,3.577533203125,-14.166727369987964,-5.53817247082293,-1.0080193238761275
1772024900799530000,3.587530029296875,-12.010697337090969,-7.389454417747259,0.17304536735415457
1772024900809527000,3.597527099609375,-10.690058974671363,-9.121010499572753,1.91580848737061
1772024900819524000,3.607524169921875,-8.65347657445371,-9.958173271375895,3.690413729588687
1772024900829521200,3.617521240234375,-6.69941872818768,-10.119273349392413,4.1537884892016645
1772024900839517200,3.62751708984375,-6.036392626106739,-8.796627738803625,4.3064571312204
1772024900849514000,3.637513916015625,-4.589029918003082,-7.279544428741931,4.241744128291309
1772024900859511000,3.647510986328125,-2.2008552630513907,-5.528482266935706,2.8976854350566863
1772024900869508000,3.657508056640625,-0.6976888346612453,-2.994754062667489,1.1810920906938611
1772024900879505200,3.667505126953125,0.6528589283317328,-0.8494768944531679,0.027621454032976177
1772024900889502000,3.677501953125,1.80443076390028,0.7373866387993097,-0.8456982526972889
1772024900899499300,3.687499267578125,2.8462399099797007,1.8224059810519218,-1.4080236542753874
1772024900909495000,3.6974951171875,3.656017831251025,2.7096722156733275,-1.4118214391231536
1772024900919492000,3.7074921875,4.255194269233942,3.428827032211423,-0.8892635459184646
1772024900929489200,3.7174892578125,5.1322413076579565,3.614778058367967,-0.3799081025056541
1772024900939486000,3.72748583984375,6.214258545485139,3.594031038415432,-0.1431723076026421
1772024900949483300,3.737483154296875,7.097591532310843,3.5703906351089474,0.19418091170024127
1772024900959480000,3.74747998046875,7.585641006714106,3.4707699849277733,0.48924873065780844
1772024900969476000,3.75747607421875,7.854315908786654,3.3005069417685267,0.6588355185233056
1772024900979473200,3.76747314453125,8.190458665454388,3.0817858649104832,0.8083269918106496
1772024900989470000,3.777469970703125,8.252568207886815,2.8330267926633357,0.8955979365717619
1772024900999467000,3.787467041015625,8.111872035473585,2.6830244472444056,0.9219304285064339
1772024901009464000,3.797464111328125,7.9797192350000135,2.674923558375239,0.8419723640419542
1772024901019461000,3.807461181640625,7.913589351010322,2.9088766911566255,0.5914623930068686
1772024901029457200,3.81745703125,7.901141372847556,3.2659856634855267,0.26174943192461503
1772024901039454000,3.827453857421875,7.850231854343414,3.7297102594494818,0.03970756748025305
1772024901049451000,3.837450927734375,7.785509499064087,4.172717646077275,-0.15090902106822468
1772024901059448000,3.847447998046875,7.797773937353491,4.481547448405623,-0.27870080418754367
1772024901069445000,3.857445068359375,7.812848756888508,4.792512509196996,-0.2981503316754475
1772024901079442000,3.86744189453125,7.714003767254948,5.018126852700114,-0.2983049011826515
1772024901089439200,3.877439208984375,7.6217936855912205,5.173708459556102,-0.29105971582736817
1772024901099435000,3.88743505859375,7.321523621815443,5.38320987264812,-0.2907628700389527
1772024901109432000,3.89743212890625,6.7426973134219645,5.483854020658135,-0.3856432120915502
1772024901119429000,3.90742919921875,6.25064211050868,5.377154225870966,-0.5941340964341536
1772024901129426000,3.917426025390625,5.640854262140393,5.187655151844024,-0.9813302735887467
1772024901139423200,3.92742333984375,4.14857513846755,4.748508532297611,-1.2935554174438118
1772024901149420000,3.937419921875,1.1939999414533375,3.633430736389756,-1.1913018614757804
1772024901159416300,3.947416259765625,-2.852550992822647,1.6570026528835295,-0.9017751639019698
1772024901169413000,3.9574130859375,-6.548599805688857,-0.9685533557325601,-1.0985900408349931
1772024901179410000,3.967409912109375,-9.201333744087815,-3.646432841303944,-1.4255150334328412
1772024901189407200,3.9774072265625,-12.123916889035701,-6.214552559995651,-1.217849092139676
1772024901199404000,3.987404052734375,-15.029161361169814,-8.400634616807103,-0.7485385127369314
1772024901209401000,3.997401123046875,-17.54250728714466,-9.400817621034383,-0.8578069159030913
1772024901219398100,4.007398193359375,-18.880417102360724,-7.261707158756256,-1.8832398044601082
1772024901229394200,4.017394287109375,-18.38140375087261,-4.396109637355805,-3.578063946215808
1772024901239391000,4.027390869140625,-16.03627621048689,-5.23475475667119,-2.4572508215263484
1772024901249388000,4.037387939453125,-13.40241823747158,-7.036244206422567,-0.5533624159868806
1772024901259385000,4.047385009765625,-11.049362242174148,-8.085446385362744,0.5515871134100482
1772024901269382000,4.0573818359375,-8.579464412781595,-8.45864198461771,2.13833217138201
1772024901279379200,4.067379150390625,-6.479218226426839,-8.766472254514694,3.368431600220501
1772024901289375000,4.077375,-5.752757470789551,-8.142140332487225,4.299287970243394
1772024901299372300,4.087372314453125,-5.032970786088705,-6.661243019050359,4.960933139359951
1772024901309369000,4.097369140625,-2.7824609730303287,-5.748182417958975,4.040195135508477
1772024901319366000,4.107365966796875,-0.8754314199209213,-4.338198715656995,2.0463801561325785
1772024901329363200,4.11736328125,-0.15969079574048517,-2.015087192246318,0.4377656135167926
1772024901339360000,4.127360107421875,0.6998679322659969,-0.11194178709387778,-1.3061340362489222
1772024901349357000,4.137357177734375,1.3989812467724083,1.524111016741395,-2.377998713374138
1772024901359353000,4.14735302734375,2.0643255626678467,3.036438656708598,-2.738207989805937
1772024901369350100,4.15735009765625,3.3123546159505843,3.844041864289343,-2.6939631898880005
1772024901379347200,4.16734716796875,4.505713921412825,4.2254511651381845,-2.118410934729129
1772024901389344000,4.177343994140625,5.574930129855871,4.401212221191823,-1.352608056523651
1772024901399345400,4.187345458984375,6.634102498668432,4.329080758699774,-0.6053131141070276
1772024901409342500,4.197342529296875,7.35746645733416,4.017942971689999,-0.05144559814222157
1772024901419338500,4.20733837890625,7.864214786988496,3.482782786543667,0.5144662836205214
1772024901429335300,4.217335205078125,8.3605253092587,2.9673893781408665,0.9930869815517216
1772024901439332600,4.22733251953125,8.62115777465105,2.746334597638249,1.2538774870499967
1772024901449329400,4.237329345703125,8.691586817139386,2.578801856225729,1.1708502442732454
1772024901459326500,4.247326416015625,8.682371245026587,2.491123572772741,0.9393399745993316
1772024901469323500,4.257323486328125,8.434317106178403,2.642591899091005,0.5673634688105433
1772024901479320600,4.267320556640625,7.976578598886728,2.9820857197523116,0.31822979109734295
1772024901489316400,4.27731640625,7.552339625614881,3.3731963304042814,0.07775500146225095
1772024901499313400,4.2873134765625,7.309737906953692,3.796130066296458,-0.23161435110289602
1772024901509310500,4.297310546875,7.172000584346056,4.179509790435433,-0.403219858379662
1772024901519307300,4.307307373046875,7.058355500465631,4.436309545797109,-0.4597551443437114
1772024901529304600,4.3173046875,6.9522051562547675,4.657857370513677,-0.541953754276596
1772024901539301400,4.32730126953125,6.879763020378351,4.871530516332387,-0.3928357539441436
1772024901549297400,4.33729736328125,6.754300657454133,5.023383458054066,-0.28622992105074224
1772024901559294500,4.34729443359375,6.580746171534061,5.096715820768475,-0.36400581917054947
1772024901569291300,4.357291259765625,6.313608562031388,5.13790474024713,-0.36962881015148014
1772024901579288600,4.36728857421875,5.8377849474728105,5.142488560906052,-0.3930103067934513
1772024901589285400,4.377285400390625,4.771309562170505,4.846652680185437,-0.7406659527309238
1772024901599282400,4.387282470703125,3.4132840106427667,4.262645754283667,-1.3807722208648918
1772024901609279500,4.397279541015625,1.2037111881285905,3.4413299554318186,-1.787042991247773
1772024901619275300,4.407275146484375,-1.766983369037509,1.3989303933680057,-1.71194055012092
1772024901629272600,4.4172724609375,-4.816997546634077,-1.5227484962165354,-1.821080431536585
1772024901639269400,4.427269287109375,-7.1841188921630375,-4.795430442470312,-1.953041947221756
1772024901649266400,4.437266357421875,-10.384311940789223,-8.320328323426843,-0.9261126826271414
1772024901659263500,4.447263427734375,-15.052874245190619,-10.996959854763746,-0.1590169333332218
1772024901669260500,4.457260498046875,-17.73537028464675,-11.90104804484844,0.09571463745227082
1772024901679257300,4.46725732421875,-18.76362261453867,-8.218811484235525,-2.4161903507329523
1772024901689253400,4.47725341796875,-17.889423366761207,-5.815325278383493,-3.4778988138943907
1772024901699250400,4.48725048828125,-15.520339781248568,-7.303349082699418,-1.7922757773347198
1772024901709247200,4.497247314453125,-14.251391858577728,-8.32396755671203,-1.0267311116740108
1772024901719244500,4.50724462890625,-12.537169188869,-8.664951908192037,-0.22732019757293162
1772024901729241300,4.517241455078125,-10.252848291623591,-8.766641765862703,0.849964239578694
1772024901739238400,4.52723828125,-9.125296214067935,-8.460881287977099,1.8043508305318652
1772024901749234400,4.537234375,-8.355385023760794,-6.682291067776084,2.498479488493502
1772024901759231200,4.547231201171875,-5.672774418014288,-4.9225680451303715,2.356544275804609
1772024901769228500,4.557228515625,-3.0310429351449013,-3.154631905412674,1.1776768754228948
1772024901779225300,4.567225341796875,-1.5311381388992071,-1.4087293183267116,0.07322068250086158
1772024901789222400,4.577222412109375,-0.6748287680774927,0.021260814693570135,-0.40552272849455473
1772024901799219500,4.587219482421875,0.10812076750099658,1.3368021462351083,-0.6416094392385333
1772024901809216500,4.597216552734375,1.1031173090010882,2.263089893168211,-0.7787696926105767
1772024901819212500,4.607212646484375,1.8404226992577313,3.2427894968152042,-0.47978725749254225
1772024901829209300,4.617209228515625,2.84512288864851,4.0317613614231345,-0.06385485172979534
1772024901839206400,4.627206298828125,4.178928191155195,4.439865192452073,0.4488848272938281
1772024901849203500,4.637203369140625,5.397742255869508,4.687476263707876,0.9261693081852048
1772024901859200500,4.647200439453125,6.470200222712755,4.756313653090596,1.2730610570780931
1772024901869197300,4.657197265625,7.2293737459063525,4.681256366279721,1.5591250469774007
1772024901879194600,4.667194580078125,7.61524762494862,4.508683292612433,1.8683213445305824
1772024901889190400,4.6771904296875,7.7665452708750955,4.321241735637187,2.048725111823529
1772024901899187200,4.687187255859375,7.839186728715896,4.286419428581,2.138865109214932
1772024901909184500,4.6971845703125,7.904614601916074,4.23415966451168,2.0402301090702415
1772024901919181300,4.707181396484375,7.809373189732432,4.239584612169861,1.8673177204459905
1772024901929178400,4.717178466796875,7.681154806098341,4.44391768271327,1.6305135821476577
1772024901939175400,4.727175537109375,7.566247739458084,4.738371753686666,1.289298198390752
1772024901949171500,4.73717138671875,7.543256155449152,5.0111359708994625,0.9709816788580268
1772024901959168500,4.74716845703125,7.541554612228274,5.233385806405544,0.7480024330988526
1772024901969165300,4.757165283203125,7.472786780950426,5.39689762173891,0.6229675018064678
1772024901979162400,4.767162353515625,7.443695126500725,5.492500268450379,0.5939695535222068
1772024901989159400,4.777159423828125,7.370719906660914,5.576986477863788,0.6410041668217629
1772024901999156500,4.787156494140625,7.174681201732159,5.637416688907146,0.6314060251321644
1772024902009153300,4.7971533203125,7.078673481351137,5.677856251323223,0.5335235238552093
1772024902019149600,4.807149658203125,7.030591295227408,5.774787516289949,0.32835948238037527
1772024902029146400,4.817146484375,6.802786748203634,5.928490469792485,0.05406465806681662
1772024902039143400,4.827143310546875,6.539620380419493,5.965642681100964,-0.21506671906895936
1772024902049140500,4.837140380859375,5.905648523387312,5.716717020115256,-0.48846316977068777
1772024902059137300,4.84713720703125,4.622960244655609,5.165782342731952,-0.6113436995081604
1772024902069134600,4.857134521484375,2.9393530779629944,4.108419653689861,-0.7587023254852742
1772024902079131400,4.86713134765625,0.4045703962057829,2.1321090590834615,-0.7393653915263712
1772024902089127400,4.87712744140625,-2.0854934383809565,-1.300334410059452,-0.44395416595861315
1772024902099124500,4.88712451171875,-4.775020691648125,-5.564178434216976,-0.06579146408187225
1772024902109121300,4.897121337890625,-8.915057134351134,-8.866265338653326,0.25512173914685843
1772024902119118300,4.907118408203125,-13.874064274084567,-10.803804596316814,0.15015344432741404
1772024902129115400,4.917115478515625,-17.14304035155773,-10.74732107707262,-1.0539134253710507
1772024902139112400,4.927112548828125,-18.145674256068467,-6.604030601009726,-4.4743663047298785
1772024902149108500,4.9371083984375,-16.46239149902463,-4.390938956719637,-5.679699833363294
1772024902159105500,4.94710546875,-14.691345118331908,-6.155201960882544,-4.076367395868897
1772024902169102300,4.957102294921875,-14.710007733225822,-7.999235836374759,-2.417324907720834
1772024902179099400,4.967099365234375,-13.635612076318264,-8.402528467729686,-0.3714129536218941
1772024902189096400,4.977096435546875,-11.530679777973889,-8.628481249406933,2.0786833199746906
1772024902199093200,4.98709326171875,-10.519610053551196,-8.787268958827852,3.257285055157542
1772024902209090600,4.997090576171875,-10.48683357310891,-8.224460888299346,3.9251653192713856
1772024902219086300,5.00708642578125,-9.055774934074282,-7.127271215781569,3.851763398452103
1772024902229083600,5.017083740234375,-6.916148338967561,-5.087228445976972,2.0398302960976955
1772024902239080400,5.02708056640625,-4.726121928444504,-3.0181735166996715,-0.11602226134054362
1772024902249077200,5.0370771484375,-2.9764912607461214,-1.1309539949536322,-1.638262296578288
1772024902259074600,5.047074462890625,-1.8602742316752672,0.40868250769972797,-2.30453673293069
1772024902269071400,5.0570712890625,-0.5774491748213768,1.2768570883601904,-2.307276825419068
1772024902279068400,5.067068359375,0.7442968565791845,1.9883534990996121,-2.024040606291592
1772024902289064400,5.077064453125,2.056049901753664,2.7172493729293343,-1.5647022625878453
1772024902299061500,5.0870615234375,3.4766730714917182,3.4866666422396895,-0.9163566469620913
1772024902309058300,5.097058349609375,5.111438173604011,4.022035501700639,-0.21773739958293734
1772024902319055400,5.107055419921875,6.652595017692446,4.113836418041586,0.4364541655920446
1772024902329052400,5.117052490234375,7.735068182593584,4.24766328920722,1.0178136457249523
1772024902339049200,5.12704931640625,8.438979252770542,4.511810484722257,1.5775415781557558
1772024902349045500,5.13704541015625,8.862427367925644,4.451224790856242,2.1075193922281263
1772024902359042300,5.147042236328125,9.036074208304285,4.1236248216062785,2.469982585066557
1772024902369039600,5.15703955078125,9.006657559683918,3.8517601835817095,2.6362761400729418
1772024902379036400,5.167036376953125,8.964928541979193,3.700697515454888,2.4944649921551347
1772024902389033200,5.177033203125,8.838194259423018,3.8122751454114914,2.1271717488117514
1772024902399026200,5.187026123046875,8.591694948801397,4.096061691898107,1.5827105052262544
1772024902409023000,5.19702294921875,8.508681150028108,4.335151603046059,1.0807479485437272
1772024902419019000,5.20701904296875,8.325504264760017,4.556805226224661,0.8209412664510309
1772024902429016000,5.21701611328125,8.031414935445785,4.752466330012679,0.6080412604292854
1772024902439013000,5.22701318359375,7.88414581438303,4.906332365122437,0.4936864573769271
1772024902449010200,5.23701025390625,7.727579288142919,4.99269664336741,0.4880475747071206
1772024902459007000,5.247007080078125,7.563303502699732,5.03247569604814,0.5111879560695961
1772024902469004000,5.257004150390625,7.431541162848472,5.110533918240666,0.47433936735019083
1772024902479001000,5.2670009765625,7.3391557246178385,5.055986335495114,0.3789423262134194
1772024902488996900,5.276996826171875,7.0617883975237605,4.994557761064171,0.28246022978629914
1772024902498994200,5.286994140625,6.602169483312964,4.887694884669781,0.0728117363737896
1772024902508991000,5.296990966796875,6.094896253001689,4.573305110126734,-0.4058315752480179
1772024902518988000,5.306988037109375,5.408207535782456,3.8870553688466547,-0.8091194573625922
1772024902528984000,5.316984130859375,3.9869805549323556,2.626554372003674,-1.1564525933474301
1772024902538980000,5.32697998046875,1.9300281513810156,0.1705126340061426,-1.0233305094502865
1772024902548977200,5.33697705078125,-0.6405833841264248,-4.267853844320774,0.07519187297597527
1772024902558974000,5.346973876953125,-3.8036803355455397,-9.692820207202434,1.508993673238903
1772024902568971300,5.35697119140625,-9.290272841256856,-13.488726401615143,2.9672818261131644
1772024902578968000,5.366968017578125,-14.796804557669162,-15.048401483690737,2.8441479061365125
1772024902588964900,5.37696484375,-17.162750429677963,-13.270648298835754,-0.09669833299368619
1772024902598962200,5.386962158203125,-17.311707649958134,-8.870320751523971,-3.7011180789545177
1772024902608958000,5.3969580078125,-15.838124458926915,-7.351136669790744,-3.8660631419613956
1772024902618955000,5.406955078125,-16.059783342802525,-7.5284350184142586,-2.7950875226303933
1772024902628952000,5.4169521484375,-15.724024617016315,-7.9107935828119516,-1.735550412158668
1772024902638949000,5.42694921875,-13.86059221357107,-7.6691791216224425,-0.22318521666005253
1772024902648946000,5.43694580078125,-12.230344296622276,-7.820556847047805,1.4414328796632587
1772024902658943000,5.44694287109375,-10.848839669829607,-7.255141808891296,2.30760459606871
1772024902668940000,5.45693994140625,-8.519138831156491,-5.9350721862703555,2.076674025978893
1772024902678936000,5.46693603515625,-5.765089713618159,-4.419358410996199,1.3767647387892008
1772024902688933000,5.47693310546875,-3.4501889691919088,-2.999623714530468,0.5379334492519497
1772024902698930000,5.486929931640625,-1.5374854620993137,-1.8557289894610642,-0.7173294277418404
1772024902708927200,5.49692724609375,-0.5181745635539293,-0.7256716510862111,-1.9730252893254159
1772024902718924000,5.506924072265625,0.18138649471998214,0.44877369506955145,-2.4632465548098086
1772024902728920800,5.5169208984375,1.223179274186492,1.543540524354577,-2.58646493819952
1772024902738917000,5.526917236328125,2.5691736116588113,2.2152508681505916,-2.6287360999569294
1772024902748914000,5.536913818359375,4.000203609120845,2.5896307087540626,-2.2555358245268464
1772024902758911200,5.5469111328125,5.352073560628295,2.8683745848983526,-1.5801955997958779
1772024902768908000,5.556907958984375,6.504685845160484,2.8772949734568596,-0.7912178169038147
1772024902778905000,5.566905029296875,7.423743640840053,2.7670155666172502,0.014443243633210659
1772024902788902100,5.576902099609375,8.260327735972403,2.70259891628623,0.7320002695858479
1772024902798899000,5.58689892578125,8.863229331958294,2.586699331477284,1.3227861881032585
1772024902808895200,5.596895263671875,9.229986422598362,2.4584984834998846,1.8084240713201463
1772024902818892000,5.60689208984375,9.395461646959186,2.3767034128665925,2.0486150755777954
1772024902828889000,5.61688916015625,9.227102976116537,2.3572785814285275,2.0815045148752627
1772024902838886100,5.62688623046875,8.730627034151553,2.4371646035701033,1.9559911524161695
1772024902848883200,5.63688330078125,8.195317795923351,2.7965029423862693,1.615378556858003
1772024902858880000,5.6468798828125,7.854909198504686,3.2897739508301016,1.2316197702735663
1772024902868877000,5.656876953125,7.612049705690145,3.727201491498947,0.9399935431372374
1772024902878873000,5.666873046875,7.295591892701387,4.1346056498259305,0.6836194658417254
1772024902888870000,5.676869873046875,7.009487132400274,4.46993299845755,0.5690592398777604
1772024902898867200,5.6868671875,6.914647871276736,4.712843344676494,0.5215251160908491
1772024902908864000,5.696864013671875,6.872500335898995,4.950178521111607,0.47418596688676623
1772024902918861000,5.706861083984375,6.80242142202258,5.140750777328014,0.5785132603889331
1772024902928858000,5.716858154296875,6.485373826447129,5.3662382795810695,0.6462631833285093
1772024902938855200,5.726855224609375,6.059063307598233,5.525291946461796,0.6034972603240981
1772024902948851200,5.736851318359375,5.681444631204009,5.513509154209494,0.5723232101097703
1772024902958848000,5.746847900390625,5.051197347652912,5.192803036126494,0.35449703626483675
1772024902968845000,5.756844970703125,3.986706414166093,4.478707256543636,-0.1350961239164695
1772024902978842000,5.766842041015625,2.399965630510449,3.3590070615321395,-0.5768284856397659
1772024902988839200,5.776839111328125,0.27906945483684537,1.9338368960142134,-0.8062466053400188
1772024902998836000,5.7868359375,-1.7673036870330572,-0.49867082166075705,-1.0211388446249068
1772024903008833300,5.796833251953125,-4.079883879557252,-4.449233909299969,-1.0880397129870951
1772024903018829000,5.8068291015625,-7.3184472831100225,-8.74113147703111,-0.5094899930452927
1772024903028826000,5.816826171875,-11.414915217721461,-10.726481702661514,-0.6896040932092815
1772024903038823200,5.8268232421875,-16.02103421769142,-11.054199745333195,-1.0088424037620425
1772024903048820000,5.836820068359375,-16.977405552721024,-10.818695875978468,-1.3760212269455194
1772024903058817000,5.846817138671875,-16.32898840622902,-5.970006721529364,-3.7024835220888255
1772024903068814000,5.85681396484375,-14.713428355324268,-4.918623691418767,-3.3770883694067595
1772024903078811100,5.86681103515625,-13.848034345293044,-6.16806027341187,-0.996250267888233
1772024903088807200,5.87680712890625,-13.792096769493817,-6.65954439843893,0.533753533218801
1772024903098804000,5.886803955078125,-12.300334947693347,-7.392447169822454,1.8553418898396192
1772024903108801000,5.896801025390625,-10.59064115358591,-7.352502697446942,2.3417340985551474
1772024903118798000,5.906798095703125,-8.725660936176777,-6.2490364288777105,2.0616924376852808
1772024903128797000,5.916796875,-6.19661241415739,-4.897602530699968,2.191166228207946
1772024903138794000,5.9267939453125,-3.5042408773750067,-3.5057273165404794,1.8285051747098564
1772024903148790000,5.9367900390625,-1.0066168366670607,-2.57007143728137,1.299784082700312
1772024903158787000,5.946787109375,0.9754758484721183,-2.1247055048286914,0.6385371191211044
1772024903168784100,5.9567841796875,2.1511586274683476,-1.152239944088459,0.027802564487233755
1772024903178781000,5.966781005859375,2.892280945664644,-0.062306526309251785,-0.18862645591087637
1772024903188778200,5.9767783203125,3.766110775607824,0.8688239844799042,-0.23538879160769283
1772024903198775000,5.986775146484375,4.933189392387867,1.736999149662256,-0.06924670083597302
1772024903208771800,5.996771728515625,5.838528459316492,2.5217098496943713,0.22835597036145627
1772024903218768100,6.00676806640625,6.360422335654497,3.0918641913324594,0.5534783705167472
1772024903228765000,6.016764892578125,6.759253895947337,3.11981953522861,1.0570834337092936
1772024903238762200,6.02676220703125,7.309211252731084,3.1712738281339403,1.659520627053827
1772024903248759000,6.036759033203125,8.086472805801034,3.544065522763133,1.4973216478846967
1772024903258756000,6.046756103515625,8.855994704529643,3.145895641249418,1.1949977933842688
1772024903268753200,6.056753173828125,8.57179080941379,3.35376565374732,1.8497462617896496
1772024903278750000,6.06675,7.750926261460781,3.2580022635161874,2.162062298798561
1772024903288746200,6.076746337890625,7.084246313047409,3.0175135914862152,2.4380258965745565
1772024903298743000,6.086742919921875,5.995913316202163,3.170021782246232,2.4129180510640142
1772024903308740000,6.096739990234375,5.28943677945137,3.50809463019371,2.137310865510255
1772024903318737200,6.106737060546875,5.008844060570001,3.7513708871155975,2.107258695465326
1772024903328734200,6.116734130859375,5.0149371167480945,4.140273758590221,1.6276982324659823
1772024903338731000,6.12673095703125,5.345346298199892,4.495828487214446,1.135569160598889
1772024903348728000,6.13672802734375,5.602735251626372,4.791461831100285,0.9655222444083541
1772024903358724000,6.14672412109375,5.850630400520563,5.13913574334681,0.7667438853826374
1772024903368721000,6.156720947265625,6.225323544856906,5.282006921711564,0.712414183171466
1772024903378718200,6.16671826171875,6.315038302573561,5.189128731527925,0.37418190687857567
1772024903388715000,6.176715087890625,6.41851095200777,4.987312612241507,-0.16563359326031057
1772024903398712800,6.186712890625,6.635328825592994,4.7115799006119365,-0.7113357402849942
1772024903408710000,6.1967099609375,6.047036185196042,4.427609229730069,-1.3460593655325472
1772024903418707000,6.20670703125,5.275511129951477,4.201783873824775,-1.9771736411765217
1772024903428702700,6.21670263671875,4.5946126865714785,3.6547464961409566,-2.6237024897038936
1772024903438700000,6.226699951171875,3.5089965474694966,2.8527947384506462,-3.013526567676663
1772024903448696800,6.23669677734375,1.8933429730623959,1.5303209772974251,-3.083179072834551
1772024903458694000,6.24669384765625,-0.24912498295009133,-0.8071861512124537,-2.423329262702167
1772024903468691000,6.25669091796875,-3.2815643408894535,-4.244418608197569,-0.7412517897948623
1772024903478688000,6.26668798828125,-6.915265126392245,-7.566857980310917,0.9204664203684777
1772024903488684800,6.276684814453125,-10.66578027346134,-8.943088466092943,1.1782866778843104
1772024903498680800,6.286680908203125,-14.83986979241371,-9.63771557509601,0.6489297721892595
1772024903508678000,6.296677978515625,-16.644871049678326,-10.62598368512392,0.895870689098537
1772024903518675000,6.306675048828125,-15.698263568294047,-6.111709440636634,-2.8138106355398893
1772024903528672000,6.316672119140625,-14.416170917367934,-5.5439720970124,-4.344570296515524
1772024903538668800,6.326668701171875,-13.310524382150172,-7.459995103916525,-2.418368133163452
1772024903548666000,6.336666015625,-12.879571590453386,-7.982648274189233,-0.7116239826418459
1772024903558663000,6.346662841796875,-11.765142029321193,-8.816634754043816,1.1495000707957892
1772024903568660000,6.356659912109375,-10.105375756943225,-9.080436497122049,2.366925530695915
1772024903578656000,6.366656005859375,-8.520363989037275,-7.750504236656427,2.258760631792247
1772024903588652800,6.37665283203125,-6.614053397852182,-6.160601774099469,2.355122280177474
1772024903598649900,6.38664990234375,-4.262112085798383,-4.432369868260622,1.8904831997171043
1772024903608647000,6.39664697265625,-2.32847801887989,-2.531812141513824,0.9011965602964163
1772024903618644000,6.40664404296875,-0.3771194947004318,-1.1652870571881533,-0.019910276867449284
1772024903628640800,6.416640869140625,1.0307488228827715,-0.15169745889902114,-0.6525546846881508
1772024903638638000,6.42663818359375,2.015066149458289,0.7884428722977638,-0.8321759233012795
1772024903648633900,6.4366337890625,3.0342876161545513,1.5081348644524812,-0.7796117694579064
1772024903658631000,6.446630859375,4.02524218878746,2.016684982831776,-0.4525811610611155
1772024903668628000,6.4566279296875,4.9781835493683815,2.6260733104884624,-0.073517404991691
1772024903678624800,6.466624755859375,5.842049619179964,3.0136420107498765,0.31931006061471995
1772024903688622000,6.4766220703125,6.654291300216316,3.0120690623447297,0.8759194956988096
1772024903698619000,6.486618896484375,7.393847099748253,3.1500928006783124,1.4031122090972958
1772024903708616000,6.496615966796875,7.829843146309256,3.069945497252047,1.457034207290411
1772024903718612000,6.506612060546875,8.347706159695983,2.927300528858602,1.5277384134583174
1772024903728608800,6.51660888671875,8.634948984116315,2.7830075009971855,1.6741230067715047
1772024903738606000,6.526606201171875,8.422872167578339,2.5839558779880405,1.6991488730870186
1772024903748603000,6.536602783203125,8.155418916255234,2.4988050671860575,1.5842998202443122
1772024903758600000,6.546599853515625,8.019007873815298,2.3545228529796005,1.3855818131037057
1772024903768597000,6.556596923828125,7.83403183017075,2.308385078921914,1.1918005317129194
1772024903778594000,6.566593994140625,7.459900411370397,2.4391861725255843,0.8123506943687796
1772024903788590800,6.5765908203125,7.218373043942451,2.6274422607541084,0.6126222680766135
1772024903798587000,6.5865869140625,7.048543716025352,2.9110303620591758,0.5187054555602372
1772024903808584000,6.596583984375,6.9828615758031605,3.143044051210582,0.38332660571224986
1772024903818581000,6.6065810546875,7.096503152552247,3.359833867745101,0.12086764641194604
1772024903828578000,6.616578125,7.100925060647725,3.618604338657856,-0.03846846327250823
1772024903838574800,6.626574951171875,7.013029335051774,3.8822494298696517,-0.13618949037743733
1772024903848572000,6.636572021484375,6.822454740747809,4.122971910655498,-0.282733274574019
1772024903858569000,6.64656884765625,6.596518910205364,4.319978583833575,-0.37657552401684224
1772024903868564700,6.656564697265625,6.191637548354268,4.550757762753963,-0.4353635573437437
1772024903878562000,6.66656201171875,5.637523071891069,4.776165770030022,-0.44202772794067857
1772024903888558800,6.676558837890625,4.9163703595340245,4.865272624981403,-0.7291547439616173
1772024903898556000,6.686555908203125,3.8866584784835574,4.625640277519822,-1.1033739871758967
1772024903908553000,6.696552978515625,2.418106851878762,3.7367040638595816,-1.3158207330048084
1772024903918550000,6.706550048828125,0.2664998961210251,1.674525450092554,-1.269001260293275
1772024903928546800,6.716546875,-2.9901673193991183,-1.4513403795629738,-0.5166133786518127
1772024903938544000,6.726544189453125,-6.439954722052812,-5.485650840947032,0.9388122243981808
1772024903948540000,6.736539794921875,-10.817511634629964,-8.851851028853654,2.45383487560302
1772024903958537000,6.746536865234375,-16.21337231453657,-10.083589457070827,2.6914491612404583
1772024903968534000,6.756533935546875,-18.93529318640828,-9.828665432453155,1.98597040335536
1772024903978530800,6.76653076171875,-18.62922700357437,-4.633764547264576,-1.6053027146540582
1772024903988528000,6.776528076171875,-17.010800457322595,-2.6944343145310876,-3.6053514738529917
1772024903998525000,6.78652490234375,-16.303313866746425,-4.927428344643116,-2.615299695278704
1772024904008522000,6.79652197265625,-16.760954758882523,-6.508084255427121,-1.419741418467462
1772024904018519000,6.80651904296875,-15.145187787228823,-7.816216772016882,0.10190788433551788
1772024904028514800,6.816514892578125,-13.461512231475114,-8.57331933415532,1.5691007898077367
1772024904038511900,6.826511962890625,-12.181843008303641,-7.619003178089857,2.222894953162968
1772024904048509000,6.836509033203125,-9.499355736675858,-5.830648519721627,2.307859593743086
1772024904058506000,6.846506103515625,-6.18545973650217,-4.565432769316435,2.0336708966851234
1772024904068502800,6.856502685546875,-3.7871284291952847,-3.530532671973109,1.025127622000128
1772024904078500000,6.8665,-2.1609183894604445,-2.59737503927052,0.1621104241028428
1772024904088497000,6.876496826171875,-0.45136020443141456,-1.7658131562143564,-0.6023786680903286
1772024904098493000,6.886492919921875,0.9505833992779255,-0.8653677065461873,-1.3744171527497469
1772024904108490000,6.896489990234375,2.431642625278234,0.06127075352072715,-1.780756458324194
1772024904118486800,6.90648681640625,3.9119904881387946,0.7794616934627294,-1.641441072744876
1772024904128484000,6.916484130859375,5.1624137430816885,1.3093810553461311,-1.21869745259732
1772024904138481000,6.92648095703125,6.290816299986839,1.641600501090288,-0.9971969741538167
1772024904148478000,6.93647802734375,7.275279757034778,1.7856676112413405,-0.7077410767938941
1772024904158475000,6.94647509765625,7.9977417984247205,2.0085919850081204,-0.06917962694913149
1772024904168471800,6.956471923828125,8.603506382626295,2.2563965330094096,0.4833857569085434
1772024904178468000,6.966468017578125,9.118043466460705,2.4612509970784187,1.0080961885046213
1772024904188465000,6.97646484375,9.401930550712347,2.788140772232413,1.4332827448248862
1772024904198462000,6.9864619140625,9.61904594593942,3.0428046846091745,1.7360462328515947
1772024904208459000,6.996458984375,9.631478142011165,3.269298149034381,1.8712711342468857
1772024904218456000,7.0064560546875,9.608497079396248,3.6147850726306436,1.8507699057489633
1772024904228452900,7.016452880859375,9.619147652748227,3.8441765965849157,1.708833962407708
1772024904238450000,7.026449951171875,9.345837492090464,4.134180702412128,1.5831674552135169
1772024904248447000,7.036447021484375,9.099298433980346,4.498334917077422,1.6388607008628546
1772024904258442800,7.04644287109375,9.112930068969726,4.7571997882753605,1.6108292229905723
1772024904268440000,7.056440185546875,9.074628103104233,4.7589685515135525,1.4896994824431835
1772024904278436900,7.066436767578125,8.856364706885815,4.665025362446904,1.3948676739737391
1772024904288434000,7.076433837890625,8.580586694809794,4.6647541442900895,1.0941286775119603
1772024904298431000,7.086430908203125,8.096731749486922,4.646982925277948,0.7172333469562232
1772024904308427800,7.096427734375,7.38973148112297,4.574533190616965,0.10360946408901363
1772024904318424800,7.1064248046875,6.657201050183176,4.495888108447194,-0.3801054882412776
1772024904328422000,7.116421875,5.526524703127145,4.275158029854297,-0.7145507568087428
1772024904338418000,7.12641796875,3.874800282907486,3.755709208580851,-1.158368363840878
1772024904348415000,7.1364150390625,1.984987237536907,2.8970792858570813,-1.8320621365390717
1772024904358412000,7.146412109375,-0.2168593746393919,1.8921745138049124,-2.42492252324298
1772024904368408800,7.156408935546875,-3.184285285398364,0.44065176341235635,-2.422946693125367
1772024904378406000,7.166406005859375,-6.3595964062243695,-1.8534347410440444,-2.2484914589732883
1772024904388403000,7.17640283203125,-9.098419313058256,-4.944737791362405,-1.613828697067499
1772024904398403000,7.186403076171875,-11.698415348482131,-7.317104636329412,-1.1798870988182724
1772024904408400100,7.196400146484375,-15.054889676666258,-8.61258108496368,-0.7571734354175627
1772024904418396000,7.20639599609375,-17.246114941585063,-8.726739379063249,-0.0980924542332068
1772024904428393200,7.216393310546875,-16.871131289869545,-5.269253238600492,-2.17526357954666
1772024904438390000,7.22639013671875,-14.958567483508586,-4.158867399901151,-2.7512945581331847
1772024904448387000,7.236386962890625,-13.338034320366383,-5.8382420435905455,-0.29385391312316056
1772024904458384100,7.246384033203125,-12.854810074162483,-6.692656394445896,1.2194766933415084
1772024904468381200,7.256381103515625,-12.146570619392394,-7.359198980215192,2.4868372737556697
1772024904478378000,7.2663779296875,-10.571361283576488,-7.645585480067133,3.5907770050555468
1772024904488375000,7.276375,-8.832268961027264,-7.476666252732277,3.639652679644525
1772024904498371000,7.28637109375,-7.299415834903717,-6.64889616317451,3.200564220026135
1772024904508368100,7.2963681640625,-5.711588425055146,-5.437550534644723,2.794825072301924
1772024904518365200,7.306365234375,-3.923489787274599,-3.836538649052381,1.9059268525645137
1772024904528362000,7.316362060546875,-2.0849673686802386,-2.1802900294065473,0.7885270434498787
1772024904538359000,7.326359130859375,-0.40731881813108917,-0.7557932331055403,-0.012068335761991329
1772024904548356000,7.336356201171875,0.780282946717739,0.5052028537780047,-0.3586717646662146
1772024904558353000,7.346352783203125,1.839272944700718,1.1624626474171875,-0.5214652391297743
1772024904568350000,7.356349853515625,2.6250223401308057,1.5104951638430355,-0.3260787510320544
1772024904578346000,7.366345947265625,3.2071938672989604,2.0842142122253775,-0.004430904823509627
1772024904588343000,7.376343017578125,3.9593788467794653,2.5595243243038652,0.44648598599117245
1772024904598340000,7.386340087890625,4.835476621654629,2.881888730987906,0.9074516751684248
1772024904608337200,7.396337158203125,5.619051011133194,3.017003011615574,1.4796093194529414
1772024904618334000,7.406333984375,6.154079094332456,3.122491677047312,2.0198378939047457
1772024904628331000,7.4163310546875,6.631236587843299,3.3857977455630897,2.1587579965561625
1772024904638328000,7.426328125,7.1480527225255965,3.3328485379248853,2.2213050536230203
1772024904648324900,7.436324951171875,7.404495919534564,3.2169626893803476,2.3710994553796945
1772024904658321200,7.446321044921875,7.679400655907392,3.318632381045818,2.5508210856273767
1772024904668318000,7.45631787109375,7.908149205783009,3.321808088472485,2.8319638396069404
1772024904678315300,7.466315185546875,7.846644058984517,3.3080756234571336,2.9671470938175917
1772024904688312000,7.47631201171875,7.633537899398803,3.518708378666639,2.7592046006053685
1772024904698308900,7.486308837890625,7.530043622654676,3.742289755037427,2.607545720151067
1772024904708306200,7.49630615234375,7.602460039567947,3.818398012205958,2.426309155295789
1772024904718303000,7.506302978515625,7.235642158651351,3.9528514908373356,2.041666279353201
1772024904728300000,7.516300048828125,7.007372916725277,4.397472742402553,1.913375853396207
1772024904738296000,7.526296142578125,6.795344030982256,4.712458144751191,1.8790052356302738
1772024904748293000,7.536293212890625,6.529644929850101,4.91900772230029,1.4286400335855782
1772024904758290200,7.546290283203125,6.063817224127054,5.240054032123089,0.8895085336554795
1772024904768287000,7.556286865234375,5.229218749853969,5.79476004473865,-0.08965515475021675
1772024904778284000,7.566283935546875,4.21090387660861,5.711246479749679,-0.8547332806114107
1772024904788281000,7.576281005859375,3.8420097739398478,4.913820090529322,-1.3019190489023924
1772024904798278100,7.586278076171875,2.806284916210174,3.807778418514132,-1.997616271355003
1772024904808275000,7.59627490234375,0.788067609244585,2.4771762959629298,-2.5484850438952447
1772024904818271200,7.606271240234375,-0.9183552003681659,1.1898767240434884,-2.3175620725899932
1772024904828268000,7.61626806640625,-2.486957100743055,-0.523594835036993,-1.8682370272479951
1772024904838264800,7.626264892578125,-4.399769913429021,-3.262216666340828,-1.4706854237630962
1772024904848262100,7.63626220703125,-5.992977847272157,-7.3337436364412305,-0.5577645234033465
1772024904858259000,7.646259033203125,-8.160056512928008,-10.45129113508463,-0.41325657414961603
1772024904868256000,7.656256103515625,-11.990001755064725,-9.76847253729701,-1.3382830324426294
1772024904878253000,7.666253173828125,-13.644451216334105,-9.514557981982827,-1.6300881963424383
1772024904888250000,7.67625,-13.410097686058283,-7.627910707166791,-3.442685169433057
1772024904898246100,7.68624609375,-13.839773881947993,-5.944367837882042,-5.484718528532982
1772024904908243000,7.696242919921875,-13.034162432706355,-7.46416449855566,-4.1603976782083505
1772024904918240000,7.706239990234375,-12.348314842486381,-8.334107257932423,-2.624446001547575
1772024904928237000,7.716237060546875,-10.477967545086145,-8.924132421210407,-1.1460249420311301
1772024904938234000,7.726234130859375,-9.565770282825827,-9.22376009542942,0.4971771855695173
1772024904948231000,7.73623095703125,-8.319445110851525,-7.817186493831873,2.147405558545142
1772024904958228200,7.746228271484375,-6.349609265217184,-5.961465687677264,2.322674301037192
1772024904968225000,7.75622509765625,-3.8424768069297075,-4.85500199085772,1.815134674874693
1772024904978221000,7.766220947265625,-1.3940186559289693,-3.2267174829363823,1.0594375956200062
1772024904988218000,7.776218017578125,0.16079028141498564,-0.21177578776478767,0.19665469966894014
1772024904998215000,7.78621484375,0.6580488981902599,1.8899422247081994,-1.1064226341567933
1772024905008212000,7.7962119140625,0.7881517803966999,1.7585674228698014,-1.6667745437048374
1772024905018209000,7.806208984375,1.1672241627305746,1.4931751957297323,-2.331766977422684
1772024905028206000,7.8162060546875,1.2155986097991467,1.9310300218999386,-2.8857264094546435
1772024905038203000,7.826202880859375,2.34019125302732,1.4298837500363588,-2.5834745242118835
1772024905048200200,7.8362001953125,4.82915384837389,0.8876461738497018,-1.4050230111546813
1772024905058196000,7.846196044921875,7.005152318066358,1.1661509805411099,-0.2757461191004142
1772024905068193000,7.856193115234375,7.6047297380656,2.0727742420613766,-0.23362315190834923
1772024905078190000,7.866190185546875,7.470538709762692,3.06472659355998,-0.08262781339669599
1772024905088187000,7.876186767578125,7.554664269170164,3.7502620490908622,0.7599653311584145
1772024905098184200,7.88618408203125,8.123254430231452,3.5302521014660595,1.0299368489127605
1772024905108181000,7.896180908203125,7.883792178639769,3.937525911411643,0.9184248315382748
1772024905118178000,7.906177978515625,6.446876630270481,5.118946357277036,0.9317326414007693
1772024905128175000,7.916175048828125,6.006479133880138,5.577776166936755,0.8368549479629844
1772024905138171000,7.9261708984375,7.039211239534616,5.164485873180627,0.9390360232166945
1772024905148168200,7.936168212890625,7.216336569678783,5.381154109162092,0.9947568144600838
1772024905158165000,7.9461650390625,6.301138956558704,6.224148655858635,0.9465500521086155
1772024905168162000,7.956162109375,5.4737733561486,6.537851032659411,0.7408878518532961
1772024905178159000,7.9661591796875,5.6851803106009955,6.444174970096349,0.8738519687097519
1772024905188156200,7.97615625,5.722379868182539,6.485059938192367,1.0719659455426036
1772024905198153000,7.986153076171875,5.412886048987508,6.872560541653633,0.8711921749159693
1772024905208150300,7.996150390625,4.314756465271115,7.456671512451767,0.6721981273129582
1772024905218147000,8.00614697265625,3.5884161211431023,7.381294492167234,0.6961369290441274
1772024905228143000,8.01614306640625,2.88449336052835,6.58311582327485,0.18386572604877874
1772024905238140200,8.02614013671875,2.5716630903869864,5.969882218366861,0.05497154377866536
1772024905248137000,8.036136962890625,2.149831178256869,6.139452018564939,0.4999556738395244
1772024905258134000,8.046134033203124,1.7262953848183153,5.427136108136176,0.5136802843419834
1772024905268131000,8.056131103515625,0.9378069198131561,2.803422512516379,-0.12055727442167699
1772024905278128000,8.066128173828124,2.011901547947526,-0.3013461685746908,-2.500504564580321
1772024905288125000,8.076125,1.4107792365938425,-3.8861592967897653,-3.886048822152614
1772024905298122200,8.086122314453124,-0.417213020157814,-7.869357410573959,-1.210200915474072
1772024905308118000,8.096117919921875,-4.103263586100936,-9.00290317558646,1.9685484361723065
1772024905318115000,8.106114990234374,-9.538747251343727,-8.132200537753105,2.805284214735031
1772024905328112000,8.116112060546875,-11.7242839492321,-9.389562067526578,2.566399178509414
1772024905338109000,8.12610888671875,-12.17529870122671,-10.487094269871712,1.3836971684008836
1772024905348106200,8.136106201171875,-10.81754086072445,-9.07166808425486,0.3229233557410538
1772024905358103000,8.14610302734375,-7.760725770941376,-8.473948859342933,0.2131146351531148
1772024905368100000,8.15610009765625,-5.227585011172295,-9.16377938171923,0.7997396345987916
1772024905378097200,8.16609716796875,-3.7573429472625253,-9.752174897968768,1.27445178078413
1772024905388093000,8.176093017578125,-4.640251571196317,-10.054548071503639,0.6479247598651796
1772024905398086100,8.186086181640626,-4.081309528446197,-9.951108739817142,0.27787418063767255
1772024905408083000,8.1960830078125,-2.5070161384314296,-9.171943983474373,0.7477960968717933
1772024905418079700,8.206079833984376,-2.5615572914361953,-6.2067076917141675,1.9415010009013116
1772024905428077000,8.2160771484375,-4.929198861446976,-3.012579642215371,1.7859359067887066
1772024905438073900,8.226073974609376,-4.736683069947362,-1.5593956806123255,0.772672910105437
1772024905448071000,8.23607080078125,-2.3280489798128605,-0.08845335947871208,1.36472738725394
1772024905458068000,8.24606787109375,-2.8479151497155426,0.7449170343041419,0.9965828608434647
1772024905468064000,8.25606396484375,-2.7253186976164576,1.5042524700611828,0.44330812314003704
1772024905478061000,8.26606103515625,-1.3619769195020197,3.1492011125355956,0.3657878802817315
1772024905488057900,8.276057861328125,0.44197278288304803,4.446928554967045,0.30224103505518285
1772024905498055000,8.286054931640624,2.5551433327406645,4.719276592594385,0.32754546258375045
1772024905508052000,8.296052001953125,4.149363073974848,4.551001508381963,0.7676334546335041
1772024905518049000,8.306049072265624,5.627587368810176,4.088059002706408,0.7907647393740713
1772024905528045800,8.3160458984375,6.597862726029753,3.002560937026143,0.468911424017325
1772024905538043100,8.326043212890625,7.4671794624626635,1.812407149606943,0.15562807634621859
1772024905548039000,8.336038818359375,8.050364550587535,1.435472948345542,-0.2786760716050863
1772024905558036000,8.346035888671874,8.21003313449621,1.8433856407165525,-0.5118947160994634
1772024905568033000,8.356032958984375,8.025835089486836,2.5996383080273864,-0.5010691149741411
1772024905578029800,8.36602978515625,7.478864055037498,3.295128171339631,-0.43506190751604734
1772024905588027000,8.37602685546875,6.643000090873241,3.901372648012638,-0.5598980648333206
1772024905598024000,8.38602392578125,5.757740519899129,4.484458951938152,-0.275591476527974
1772024905608021000,8.39602099609375,5.167734645843505,5.125035906323791,-0.040231006832467386
1772024905618017800,8.406017822265625,4.7471536105573175,5.670230578750371,-0.08058549391413107
1772024905628015000,8.41601513671875,4.713704345420003,5.92667202219367,-0.21915260014310478
1772024905638011000,8.426010986328125,5.253735351473093,5.889642560482025,-0.3858570009727031
1772024905648008000,8.436008056640626,5.679160904181003,5.612132610046864,-0.6564088758982718
1772024905658005000,8.4460048828125,6.842279969680309,5.743973275831341,-0.19862146969726308
1772024905668001800,8.456001708984376,7.718640779405832,5.99220744742155,-0.18502209300966932
1772024905677999000,8.4659990234375,8.478108901631831,6.377579806682467,-0.28897202283311635
1772024905687996000,8.475995849609374,7.996503781062364,6.213913093048334,-0.491901583254151
1772024905697993000,8.485992919921875,4.832240708473324,4.800501169863343,-1.0178742898710071
1772024905707990000,8.495989990234374,1.2690204033851622,2.9256752657443283,-1.3819770666100084
1772024905717985800,8.50598583984375,-1.730255520620942,1.2773960175424814,-1.1306119035176931
1772024905727983000,8.515983154296874,-3.6178760243833064,-1.3071475972056388,0.06418225705325603
1772024905737980000,8.52597998046875,-3.688453535431623,-5.455594725379347,0.9269466492332518
1772024905747977000,8.53597705078125,-4.891844990086555,-9.20104499027431,1.698928946726024
1772024905757974000,8.54597412109375,-8.35977595219612,-9.742540223661065,2.7377476788178083
1772024905767971000,8.55597119140625,-12.760370041489601,-8.32704447993934,2.859523754444718
1772024905777967900,8.5659677734375,-14.755434436404704,-10.390140793073178,1.593724358932674
1772024905787965200,8.575965087890625,-15.741976453292368,-9.282796806287765,0.20721074487157165
1772024905797961000,8.5859609375,-14.018833979547024,-6.600452742522955,-0.5025855108864605
1772024905807957800,8.595957763671874,-10.397497585576772,-8.020989403021336,-0.15561784721314906
1772024905817955000,8.605955078125,-8.492832423511148,-8.421250703856348,0.4502794965226203
1772024905827951900,8.615951904296875,-6.306711203733086,-9.177467715331911,0.5979226385295391
1772024905837949000,8.625948974609376,-5.018368260240554,-10.36577792071104,-0.016512304992228746
1772024905847946000,8.635946044921875,-5.702341873282194,-8.85308846169412,-0.3485703496295959
1772024905857943000,8.645943115234376,-5.595587717959284,-6.315221842446923,-0.49126807112358506
1772024905867939800,8.65593994140625,-4.447649270457029,-4.348722447758913,-0.40298320007957517
1772024905877937200,8.665937255859374,-3.315494083020091,-2.468338909512758,-0.1755162875123322
1772024905887933000,8.675932861328125,-2.2620739941239356,-0.7954039434820414,0.16404577607959508
1772024905897930000,8.685929931640626,-1.399088214278221,0.5872913543999195,0.5397355302378535
1772024905907927000,8.695927001953125,-0.6499696366310119,1.645632533085346,0.571280276928097
1772024905917923800,8.705923828125,0.19624211854636667,2.185928912076354,0.4196675737030804
1772024905927921200,8.715921142578125,1.0441396348536014,2.438093993374705,0.3374235171932727
1772024905937918000,8.72591796875,2.404519056031108,2.7314959249466657,0.2834443089202046
1772024905947915000,8.7359150390625,4.354931239271163,2.931270893794298,0.4093429443698376
1772024905957912000,8.745912109375,6.073108199563622,2.846653751477599,0.3467979331295937
1772024905967907800,8.755907958984375,6.9147600994795555,2.701006094136834,-0.09039989043660461
1772024905977905200,8.7659052734375,7.701342438602447,2.9032781404972074,-0.11595299549661577
1772024905987902000,8.77590185546875,8.009720990031957,3.201016055446863,-0.35611974209584296
1772024905997899000,8.78589892578125,7.99343328757584,3.1239743168205023,-0.8344428453199565
1772024906007896000,8.79589599609375,7.5858245465874665,3.131460288661718,-1.0683141450367868
1772024906017893000,8.80589306640625,6.644163289433718,3.34324718234241,-1.1378667700167744
1772024906027890000,8.815889892578125,5.759441478598117,3.48021293605566,-0.930464448095858
1772024906037887000,8.825886962890625,5.257746340680122,3.5642777051866052,-0.7594904801882802
1772024906047884000,8.835884033203126,5.331305497887731,3.7567180933624504,-0.773409699947387
1772024906057879800,8.8458798828125,5.811325979614257,4.217669132959842,-0.751443002006784
1772024906067877000,8.855877197265626,6.064210607358813,4.74004407081306,-0.9462225006546825
1772024906077874000,8.8658740234375,6.0564715375393625,5.1360003679305315,-1.094242293954268
1772024906087871000,8.87587109375,5.991375088250637,5.509164403003454,-0.8614375274904071
1772024906097868000,8.885867919921875,5.80257451788187,5.877020394796133,-0.5963967441365122
1772024906107864800,8.89586474609375,5.518576374471187,6.147666304680705,-0.36758462750539184
1772024906117862000,8.90586181640625,5.154341495785117,6.2296484223186965,-0.11493358932100235
1772024906127859000,8.91585888671875,4.849644263216853,6.244211785200238,0.327739377720654
1772024906137855000,8.92585498046875,4.687171727803349,6.019385961726307,0.7487059782583266
1772024906147852000,8.93585205078125,4.31605235030055,5.518158441320061,0.9189894066184758
1772024906157849000,8.94584912109375,3.337224853312969,4.428312701824307,0.9984186249032616
1772024906167846000,8.955845947265624,1.9278128134191035,2.5997183875262735,0.5909015442537143
1772024906177843000,8.965843017578125,0.723262251856923,-0.049531215888261794,-0.3656492024634033
1772024906187840000,8.975840087890624,-0.3441314173340797,-4.2181741598725315,-1.5638791096366942
1772024906197836800,8.9858369140625,-1.8075164549559353,-9.432672310456633,-2.6136878761678934
1772024906207834000,8.995834228515625,-5.441203211933374,-11.698667861938477,-0.9991650593563913
1772024906217831000,9.005830810546875,-11.642882261830568,-10.071149662214516,1.5918308002710342
1772024906227827200,9.0158271484375,-15.917216115820407,-12.470945196855068,1.403522251202911
1772024906237824000,9.025823974609375,-17.905613454061747,-13.269139063316583,0.4750472233586013
1772024906247820800,9.03582080078125,-17.261029602122306,-8.49327315301597,0.2826967054232955
1772024906257817900,9.04581787109375,-13.400060276168585,-8.08043411015868,0.24835666545871643
1772024906267815000,9.05581494140625,-11.01401737254858,-8.202969187459349,0.5735105932634323
1772024906277812000,9.06581201171875,-9.718184950083494,-8.467764033228159,0.5296006513230502
1772024906287808800,9.075808837890625,-8.052566444545985,-9.83755250326395,-0.19945465085208414
1772024906297806000,9.08580615234375,-7.710765515986084,-8.548614516487717,-0.5149311611859128
1772024906307801900,9.0958017578125,-6.578642477253079,-6.754488288980722,-0.8625644126284867
1772024906317799000,9.105798828125,-5.070029473894834,-5.93193096563518,-0.987773458378762
1772024906327796000,9.1157958984375,-4.374211693802476,-4.350856537178158,-0.42077498695570975
1772024906337792800,9.125792724609376,-4.020941276723146,-2.487135964441299,0.37170499537102875
1772024906347790000,9.1357900390625,-3.0691210291266438,-0.7337205175071955,0.8030461287982762
1772024906357787000,9.145786865234374,-1.5218962633013724,0.7913356711298227,0.9103288380399346
1772024906367784000,9.155783935546875,0.07242869187295436,1.9825614716947078,0.8292835628606379
1772024906377781000,9.165781005859374,1.6101929709136484,3.1104560790777205,0.5808830217275768
1772024906387778000,9.175778076171875,2.9774738420426843,4.0690585341602565,0.2527341864231974
1772024906397774600,9.185774658203124,4.31664973167181,4.774763502016663,-0.18821845963187514
1772024906407772000,9.19577197265625,5.62840102328062,4.9938504895776505,-0.44452612062767144
1772024906417768700,9.205768798828124,6.919383083105087,4.9104538289666175,-0.7394117148861289
1772024906427765500,9.215765625,8.089587722951173,5.280099042263627,-0.7980774735402315
1772024906437762800,9.2257626953125,9.085969581329822,5.66501138279736,-0.6397473716937006
1772024906447759600,9.235759521484376,9.385215562754869,5.599257346382736,-0.5610717482551932
1772024906457756700,9.245756591796875,8.798212962168455,5.097164149057865,-0.623280513278395
1772024906467753700,9.255753662109376,8.007340232375263,4.854746554791927,-0.6288179814003407
1772024906477750800,9.265750732421875,7.231005146500467,5.098730667722225,-0.2661482331391424
1772024906487746800,9.275746826171876,6.588876871019601,5.309309939178824,0.19215967153832314
1772024906497743600,9.28574365234375,6.217013981673121,5.36282525626719,0.575824203968048
1772024906507740700,9.29574072265625,5.735685339957476,5.409294746497273,0.8414901334829628
1772024906517737700,9.30573779296875,5.682237242886424,5.606083393010497,0.8475143622085451
1772024906527734800,9.31573486328125,6.008461832129955,6.053959262457489,0.8502619073510169
1772024906537729800,9.325729736328125,6.175663149631023,6.482883178675174,0.9614438890535384
1772024906547726600,9.3357265625,5.889579432117938,7.013516826307773,1.1400750206507742
1772024906557723600,9.3457236328125,5.321488452750444,7.2986162089586255,0.9709205232553183
1772024906567720700,9.355720703125,4.987142516371607,7.235697103708982,0.6919143429130316
1772024906577717800,9.3657177734375,4.938253105518221,6.929229354336857,0.5475805081171915
1772024906587713800,9.3757138671875,5.293126866140962,6.390683033883572,0.5294456068918109
1772024906597710600,9.385710693359375,5.405060469928383,5.548920659330487,0.45212680488973855
1772024906607707600,9.395707763671876,5.178726579979061,4.372053054463863,0.03476306941593066
1772024906617704700,9.40570458984375,4.281962449172139,2.917184500774741,-0.6367069810844957
1772024906627701800,9.41570166015625,2.3674247123897074,1.236545536237955,-1.4076084976032375
1772024906637698600,9.425698486328125,-0.12294073549211025,-1.0055641127437354,-1.9739137625977397
1772024906647696000,9.43569580078125,-2.28662742062211,-4.851429977589845,-1.7621935044124721
1772024906657692700,9.445692626953125,-4.067784276440739,-9.634728668239712,-0.8217718720562756
1772024906667689700,9.455689697265624,-6.157080029714107,-11.258701742702723,0.6267997734457254
1772024906677685800,9.465685791015625,-11.596037508547305,-9.875836348950862,1.907078652948141
1772024906687682600,9.4756826171875,-17.558188840401172,-10.268007282310723,1.771271567750722
1772024906697680000,9.485679931640625,-18.849295987910033,-9.828333424019814,0.6765005737472325
1772024906707676700,9.4956767578125,-17.12674154318571,-6.140367964366078,0.7660783341459929
1772024906717673700,9.505673828125,-14.20144329406023,-5.020915022113919,0.6842772721633315
1772024906727670800,9.5156708984375,-11.287066251921653,-6.091219025793671,-0.23787724742256103
1772024906737667800,9.525667724609375,-9.661554131323099,-6.947136766949296,-0.8805312272779643
1772024906747664600,9.53566455078125,-8.27876180280745,-8.389100246357918,-1.9238436175271867
1772024906757661700,9.54566162109375,-6.192742294725775,-8.67634248625636,-2.5572709924191237
1772024906767657700,9.55565771484375,-4.606447501271963,-7.071324872153997,-1.948734459286183
1772024906777654500,9.565654541015626,-4.314026397430896,-5.544333916062116,-1.0110303422603755
1772024906787651800,9.57565185546875,-4.270671239829063,-3.9328427220314737,-0.10570577878113835
1772024906797648600,9.585648681640626,-3.974609149137139,-2.228361694136262,0.5211203346822411
1772024906807645700,9.595645751953125,-3.4723031858444213,-0.6560141774922609,0.7278966336593031
1772024906817642800,9.605642822265626,-2.2481553588867187,0.22869945003688333,0.44986949094962325
1772024906827639800,9.615639892578125,-0.4795142857700586,0.8056009278476238,0.1357341660916805
1772024906837636600,9.62563671875,1.4229180026769637,1.4938029722392558,0.043614502657763655
1772024906847634000,9.635634033203125,2.955712092089653,2.075305806365609,-0.01886562665272504
1772024906857629700,9.645629638671876,4.193676847475767,2.5014491519540547,-0.14391027562152595
1772024906867626800,9.655626708984375,5.517630033531785,2.889054384833574,-0.099319036886096
1772024906877623800,9.665623779296874,6.815705851009488,3.201605253511667,0.09034697293927893
1772024906887620600,9.67562060546875,8.05415868217349,3.2852707941919563,0.2790074041849933
1772024906897618000,9.685617919921874,9.149504188129304,3.0487843435406683,0.3057891742571257
1772024906907614700,9.69561474609375,9.440579138058423,2.6458658061951397,0.12723583887014536
1772024906917611800,9.70561181640625,9.169792942920326,2.2091379382282494,-0.34390265007950366
1772024906927608800,9.71560888671875,8.38551478908658,1.6555635599911211,-0.6143432466503232
1772024906937605600,9.725605712890625,7.367199915841222,1.5990455539554356,-0.4783303001498803
1772024906947602000,9.735601806640625,6.5748039220035075,2.393376899769902,-0.3106763435104862
1772024906957598700,9.7455986328125,5.7233320543408395,3.730573598280549,0.20246906676981596
1772024906967595800,9.755595703125,5.044148013663292,4.954347915750741,0.5536106551269069
1772024906977592800,9.7655927734375,4.99922399930954,5.755330536147952,0.667774757912755
1772024906987590000,9.77558984375,5.473823625031113,5.99618044270575,0.5809335828710347
1772024906997586700,9.785586669921875,5.973643616726994,6.032982525402307,0.4412368698239326
1772024907007583700,9.795583740234376,6.2995671771973365,6.181584356373548,0.43053949818816034
1772024907017580800,9.805580810546875,6.552574554538727,6.340319458824395,0.30460739886034277
1772024907027577600,9.81557763671875,6.677185269069671,6.2624570514649145,0.0707365010023117
1772024907037574000,9.825573974609375,6.159936588189005,5.9565165408372875,-0.12093465636670589
1772024907047570700,9.83557080078125,5.171785382539033,5.277345359641314,-0.014831329635344444
1772024907057567700,9.845567626953125,4.035623297548294,4.092686077985167,0.19995843565575777
1772024907067564800,9.855564697265624,2.1179706436157226,2.267514723873138,0.021454401036910712
1772024907077561600,9.8655615234375,0.12427987514138221,-0.7151672082066536,-0.4832260363021865
1772024907087558700,9.87555859375,-1.1037304724633692,-4.649420381557941,-0.8827925963386892
1772024907097555700,9.8855556640625,-2.026834328663349,-7.683820225915312,-0.563919794630073
1772024907107552800,9.895552734375,-3.399497477352619,-8.508981009757518,-0.10030936309769749
1772024907117549600,9.905549560546875,-6.36444443077743,-7.537837637531757,0.017172814727574585
1772024907127545900,9.9155458984375,-10.874910515153408,-8.147484616124629,0.1928317255809903
1772024907137542700,9.925542724609375,-14.124489818239212,-8.629051742771267,0.554796321247518
1772024907147540700,9.935540771484375,-14.136603449881076,-5.564826668992638,1.5144259274207055
1772024907157537800,9.945537841796876,-12.267572495776415,-3.986072207915783,2.019189951390028
1772024907167534800,9.955534912109375,-10.60186748099923,-4.914307581785321,1.7386457478255033
1772024907177531600,9.96553173828125,-9.028893941411376,-5.998800269815326,1.5102701229155062
1772024907187528700,9.97552880859375,-7.026907638278603,-7.295502460852265,0.8491962508808821
1772024907197525800,9.98552587890625,-5.808611459958553,-8.578196584802866,0.07024652552828192
1772024907207522600,9.9955224609375,-5.42425909139514,-8.060297915580868,-0.49580323033519086
1772024907217519900,10.005519775390624,-5.127606633594632,-6.256341783455014,-0.713791097547859
1772024907227516700,10.0155166015625,-4.2094893336355685,-4.30228919788599,-0.4600226727060973
1772024907237513700,10.025513671875,-3.546322361779213,-2.3864473927676677,0.1418124630920589
1772024907247509800,10.035509765625,-3.2419729197353124,-0.9172352564275265,0.5886874118681996
1772024907257506600,10.045506591796874,-2.377214869520068,0.3155564802348614,1.0468130918465555
1772024907267503600,10.055503662109375,-1.1016986743748187,1.4402420624434946,1.478729614008963
1772024907277500700,10.065500732421874,0.30241350554525853,1.9929384888023136,1.1521513159569352
1772024907287497700,10.075497802734375,1.2665987291961907,2.5391303555727003,0.6649702949512749
1772024907297494500,10.08549462890625,2.508897129872441,3.102015582990646,0.06603533757403493
1772024907307491800,10.095491943359375,4.2840509458839895,3.435868767416477,-0.373149933482334
1772024907317488600,10.105488525390625,5.791320133417845,3.5132916143149133,-0.6103090226981789
1772024907327485700,10.115485595703126,6.948933002716302,3.279592164033651,-0.7345085260797292
1772024907337481700,10.125481689453125,7.990769621324539,2.9127988330364225,-0.6523880228843539
1772024907347478500,10.135478515625,8.690859671908617,2.497573187303543,-0.45691206640489396
1772024907357475800,10.145475830078125,8.94889569106698,2.24789173951447,-0.23597492093257605
1772024907367472600,10.15547265625,8.54073866854608,2.422244682335853,-0.11742167980968951
1772024907377469700,10.1654697265625,7.532435486227273,3.024616116967797,0.028694764086604117
1772024907387466800,10.175466796875,6.599653701099753,3.85972312528491,0.21343772962763904
1772024907397463800,10.1854638671875,5.5835489051193,4.898522568154335,0.39170506941378114
1772024907407460600,10.195460693359376,4.98305320123136,5.573627230563759,0.37960013253502545
1772024907417457700,10.205457763671875,5.029637842273712,5.737174117210507,0.1827565409641713
1772024907427454700,10.215454833984374,5.154954659247398,5.8238511146664615,-0.019840353436395525
1772024907437450800,10.22545068359375,5.394871668869257,5.913530216547846,-0.2713640680912882
1772024907447447800,10.23544775390625,5.516190940639376,5.937103984358906,-0.45183140213973816
1772024907457444600,10.245444580078125,5.465352149283886,6.19021482207477,-0.48129634688124057
1772024907467442000,10.25544189453125,5.525999802470207,6.588738923853636,-0.3399538028558716
1772024907477438700,10.265438720703125,5.493613198128342,6.649214727604389,-0.08725530880056322
1772024907487435500,10.275435546875,4.949824885368347,6.341913450017571,0.23193094277139753
1772024907497432800,10.285432861328125,3.9298575687408444,5.653568197762966,0.22716551846787333
1772024907507429600,10.2954296875,2.9127298594534397,4.258792001464963,-0.3104262777395546
1772024907517426700,10.3054267578125,2.2597148637771607,1.9103969837158916,-0.8448036419451236
1772024907527423700,10.315423828125,1.3914964439749717,-1.578867273801565,-1.2289283392325043
1772024907537419800,10.325419677734375,0.8496142570972443,-5.339124647206067,-1.2688675509110092
1772024907547416600,10.33541650390625,0.2157218950420618,-6.86946842085719,-0.9928132061116397
1772024907557413600,10.34541357421875,-2.590696876680851,-6.240028362035751,-0.833677413905412
1772024907567410700,10.35541064453125,-7.374220023736357,-6.391725820934772,-0.5315226323615759
1772024907577407500,10.365407470703126,-10.826633683240413,-7.143070257937908,0.14148052772395311
1772024907587404800,10.37540478515625,-10.29149454088211,-6.409604591974616,1.0890415104407816
1772024907597401600,10.385401611328126,-8.435444648903609,-4.644987952068448,1.715982665118575
1772024907607398700,10.395398681640625,-8.692129253453016,-4.029436717867851,1.4634201089352368
1772024907617395700,10.405395751953124,-9.695629419404268,-4.51128149241209,1.1099817879430949
1772024907627391500,10.4153916015625,-9.365027345728874,-5.2776791216403245,0.9258929754618554
1772024907637388800,10.425388916015624,-8.492521457865834,-5.348717820459604,0.8531016608215868
1772024907647385600,10.435385498046875,-8.024660200488567,-4.862467504432797,0.834337996705994
1772024907657382700,10.445382568359374,-7.301753337940573,-4.31137208352983,0.6853404444154352
1772024907667379700,10.455379638671875,-6.084333942455053,-4.0378304522037505,0.25556813120748845
1772024907677376800,10.465376708984374,-4.606588955569267,-4.118874996730685,-0.19873386229686438
1772024907687373600,10.47537353515625,-3.4708202538102864,-4.082636393135786,-0.45400889230929314
1772024907697371000,10.485370849609374,-2.726948344644904,-3.803118610009551,-0.6020279184238985
1772024907707367700,10.49536767578125,-2.1459131280303,-3.17211378608942,-0.5512441086586565
1772024907717364700,10.50536474609375,-1.5191326438069344,-2.3841467146098614,-0.4074927499258891
1772024907727360800,10.51536083984375,-0.9236860400021075,-1.701769430848956,-0.163570596315898
1772024907737357600,10.525357666015625,-0.2706026552647352,-1.148580837059021,0.05204509840533137
1772024907747354600,10.535354736328125,0.5289338579773902,-0.7519020708858967,0.15858458806425332
1772024907757351700,10.5453515625,1.3730962794095276,-0.4369909028172493,0.10580171343628317
1772024907767348700,10.5553486328125,2.2657202416718003,-0.050848143705725664,-0.013040281500108539
1772024907777345500,10.565345458984375,2.9880238776296375,0.320749372702837,-0.2446352703154087
1772024907787342800,10.5753427734375,3.3719179810315367,0.7102724219024181,-0.48032238728255033
1772024907797339600,10.585339599609375,3.5203958933621644,1.355881525236368,-0.5045260504949838
1772024907807336400,10.59533642578125,3.726125386700034,2.0400041913598774,-0.5506235656075179
1772024907817333800,10.605333740234375,3.6181332140147684,2.6807494880497456,-0.5227951360266655
1772024907827329500,10.61532958984375,3.3290181659817693,3.177995829865336,-0.513033401273191
1772024907837326800,10.625326904296875,3.1266648710787295,3.287153539198637,-0.49282114578448233
1772024907847323600,10.63532373046875,3.080513945278525,3.175073804938793,-0.3563748859006911
1772024907857320700,10.64532080078125,3.1191543493181464,2.968005756473541,-0.2894182687632739
1772024907867317800,10.65531787109375,3.050318128979206,2.5247002636820075,-0.31736404111348093
1772024907877314600,10.665314453125,3.075965195932984,2.000565330418944,-0.3476462935872376
1772024907887311600,10.6753115234375,2.8329671714305875,1.700452503031492,-0.32516433960087593
1772024907897308700,10.68530859375,2.171467256003618,1.745856409856677,-0.11920308333374559
1772024907907305700,10.6953056640625,1.286389471337199,1.951639094686508,-0.020262889697402715
1772024907917302500,10.705302490234375,0.5948065523356199,2.247805230274796,-0.017601415403187274
1772024907927298800,10.715298828125,0.13497837928831577,2.4286492886811493,-0.0005395137041807175
1772024907937295600,10.725295654296875,-0.1612362716168165,2.2252152128040787,-0.16374036339223383
1772024907947292700,10.735292724609375,-0.18283610900640487,1.8529589402258395,-0.3229077197805047
1772024907957289700,10.745289794921876,0.05211597168445587,1.4751403573453425,-0.38332594812512394
1772024907967286500,10.75528662109375,0.2389133855372667,0.9233096079051494,-0.40462008056640625
1772024907977283800,10.765283935546876,0.1372422325670719,0.4058247801810503,-0.35094248558841645
1772024907987280600,10.77528076171875,0.03088847473859787,0.07768062105178833,-0.25787695613913236
1772024907997277700,10.785277587890626,-0.0680441931784153,-0.0029758009403944015,-0.08097206381261349
1772024908007274800,10.795274658203125,-0.35272272006869315,0.11062252118885517,0.022268092039972542
1772024908017271800,10.805271728515624,-0.8671908303201198,0.3156885821819305,0.16209434975087642
1772024908027267600,10.815267578125,-1.2987363272130488,0.4349602737724781,0.0972944722559303
1772024908037264600,10.8252646484375,-1.2763906398922205,0.4211334084719419,-0.056148003679513926
1772024908047261700,10.83526171875,-0.7458417479336261,0.3710983347147703,-0.12169943019412457
1772024908057258500,10.845258544921874,-1.0460814165711403,-0.0005196399599313736,-0.3446456504665315
1772024908067255800,10.855255859375,-1.174703704831004,-0.41527299200594425,-0.44478440623767673
1772024908077252600,10.865252685546874,-0.9734943192660808,-0.608111439588666,-0.37401853301040827
1772024908087249700,10.875249755859375,-0.8730009779036044,-0.7769570171654224,-0.399046445152536
1772024908097246700,10.885246826171874,-0.7244424015522003,-0.831385941967368,-0.37842933518998323
1772024908107243800,10.895243896484375,-0.5725450361669063,-0.7727911296576261,-0.33917993240654465
1772024908117240600,10.905240478515625,-0.7796417262047529,-0.6182645848125219,-0.2825079048529267
