time,seconds_elapsed,z,y,x
1772025033398569500,0.080569580078125,0.22518125176429749,0.2813052535057068,-0.24467648565769196
1772025033408566300,0.090566162109375,0.3137381970882416,0.5748233199119568,-0.31739550828933716
1772025033418563300,0.100563232421875,0.42502477765083313,0.7374857068061829,-0.41001731157302856
1772025033428560400,0.110560302734375,0.5612313747406006,0.7867698669433594,-0.48852846026420593
1772025033438557400,0.120557373046875,0.6759204268455505,0.6907631754875183,-0.516128659248352
1772025033448554200,0.13055419921875,0.6966260075569153,0.5158609747886658,-0.4616737961769104
1772025033458551300,0.14055126953125,0.564915120601654,0.3956272602081299,-0.3961128890514374
1772025033468548400,0.15054833984375,0.32899072766304016,0.41298481822013855,-0.3985793888568878
1772025033478545200,0.160545166015625,0.03632396459579468,0.7776213884353638,-0.36931923031806946
1772025033488542200,0.170542236328125,-0.20940808951854706,1.24056875705719,-0.2594834566116333
1772025033498539300,0.180539306640625,-0.36831918358802795,1.5570076704025269,-0.03458135947585106
1772025033508536300,0.190536376953125,-0.4190632700920105,1.8881182670593262,0.30170682072639465
1772025033518533000,0.200533203125,-0.4002895951271057,2.37198543548584,0.7223413586616516
1772025033528533800,0.21053369140625,-0.3349064886569977,2.954180955886841,1.2305265665054321
1772025033538530800,0.22053076171875,-0.249049112200737,3.6354527473449707,1.7635483741760254
1772025033548527600,0.230527587890625,-0.1531541496515274,4.300164699554443,2.2866852283477783
1772025033558525000,0.24052490234375,0.018767021596431732,4.45557975769043,2.8156704902648926
1772025033568521700,0.250521728515625,0.31814268231391907,3.5721778869628906,3.248361349105835
1772025033578518500,0.2605185546875,0.6681699156761169,2.808154821395874,3.4072301387786865
1772025033588515800,0.270515869140625,0.7708563208580017,0.7447701692581177,3.331354856491089
1772025033598512600,0.2805126953125,0.5257746577262878,-1.0522338151931763,2.9569852352142334
1772025033608509700,0.290509765625,0.15935693681240082,-2.044727087020874,2.4674580097198486
1772025033618506800,0.3005068359375,-0.0829094871878624,-2.2843194007873535,2.1150317192077637
1772025033628502800,0.310502685546875,-0.16053111851215363,-2.384892463684082,1.8504911661148071
1772025033638499800,0.320499755859375,-0.1739920675754547,-2.645967483520508,1.5373082160949707
1772025033648496600,0.33049658203125,-0.23685050010681152,-3.06575083732605,1.1639631986618042
1772025033658493700,0.34049365234375,-0.35122236609458923,-3.369856357574463,0.8515293598175049
1772025033668490800,0.35049072265625,-0.4984322786331177,-3.431159257888794,0.641523003578186
1772025033678487800,0.36048779296875,-0.6423574686050415,-3.359222412109375,0.4896690547466278
1772025033688484600,0.370484619140625,-0.7222622632980347,-3.100107431411743,0.3491538465023041
1772025033698482000,0.38048193359375,-0.6642141342163086,-1.503884196281433,-0.11177144199609756
1772025033708478700,0.390478759765625,-0.4336256682872772,-0.9459291696548462,-0.13348256051540375
1772025033718475800,0.400475830078125,-0.23624417185783386,-0.255778968334198,-0.017033450305461884
1772025033728472800,0.410472900390625,-0.20685239136219025,-0.23998607695102692,-0.015033901669085026
1772025033738470000,0.420469970703125,-0.2734261155128479,-0.8502201437950134,-0.11924339085817337
1772025033748466700,0.430466796875,-0.3382641077041626,-1.4903826713562012,-0.14002560079097748
1772025033758463700,0.440463623046875,-0.35704633593559265,-1.8228247165679932,-0.03585793077945709
1772025033768460800,0.450460693359375,-0.3452605903148651,-1.866403341293335,0.1305600255727768
1772025033778457600,0.46045751953125,-0.3691065311431885,-1.8079644441604614,0.3134574294090271
1772025033788454700,0.47045458984375,-0.49112778902053833,-1.7525917291641235,0.42747771739959717
1772025033798451700,0.48045166015625,-0.6859753131866455,-1.747246503829956,0.441724568605423
1772025033808448800,0.49044873046875,-0.903420090675354,-1.756561279296875,0.3283159136772156
1772025033818445600,0.500445556640625,-1.067358136177063,-1.6096826791763306,0.14226563274860382
1772025033828443000,0.51044287109375,-1.1069411039352417,-1.4610011577606201,0.02599553018808365
1772025033838439700,0.520439697265625,-1.01972496509552,-1.5283781290054321,-0.06311783194541931
1772025033848436700,0.530436767578125,-0.862138569355011,-1.6244672536849976,-0.09838230162858963
1772025033858433800,0.540433837890625,-0.652114748954773,-1.3933275938034058,-0.007457722444087267
1772025033868430800,0.550430908203125,-0.4428822696208954,-1.0062644481658936,0.14542564749717712
1772025033878427600,0.560427734375,-0.3462017774581909,-0.7297122478485107,0.32503029704093933
1772025033888424700,0.5704248046875,-0.404532790184021,-0.7245047688484192,0.4401361048221588
1772025033898421800,0.580421875,-0.5496470928192139,-0.9715862274169922,0.509418249130249
1772025033908418600,0.59041845703125,-0.69509357213974,-1.3445062637329102,0.6172299385070801
1772025033918416000,0.600415771484375,-0.9158169031143188,-1.4365813732147217,0.7425109148025513
1772025033928412700,0.61041259765625,-1.1718521118164062,-1.6795514822006226,0.6820440888404846
1772025033938409700,0.62040966796875,-1.2989524602890015,-2.00817608833313,0.3675476312637329
1772025033948406800,0.63040673828125,-1.1463189125061035,-1.928621530532837,0.010777685791254044
1772025033958403800,0.64040380859375,-0.8076554536819458,-1.5360997915267944,-0.19523726403713226
1772025033968400600,0.650400634765625,-0.5230858325958252,-1.3231502771377563,-0.17472629249095917
1772025033978398000,0.66039794921875,-0.6271909475326538,-0.4777377247810364,-0.28193825483322144
1772025033988394800,0.670394775390625,-0.8506898880004883,0.18653838336467743,-0.43880099058151245
1772025033998391600,0.6803916015625,-1.134730577468872,0.4895211458206177,-0.39568787813186646
1772025034008387800,0.690387939453125,-1.4040299654006958,0.6231586337089539,-0.4813380241394043
1772025034018384600,0.700384521484375,-1.5539424419403076,0.7339757084846497,-0.8487232327461243
1772025034028382000,0.7103818359375,-1.676016926765442,0.6889423131942749,-1.3260804414749146
1772025034038378800,0.720378662109375,-1.8408187627792358,0.4634183645248413,-1.802010416984558
1772025034048375800,0.730375732421875,-1.9732518196105957,0.08274144679307938,-2.2192773818969727
1772025034058372600,0.74037255859375,-2.0678083896636963,-0.30525875091552734,-2.514380931854248
1772025034068369700,0.75036962890625,-2.1222567558288574,-0.6110206246376038,-2.7010865211486816
1772025034078366700,0.76036669921875,-2.140026569366455,-0.8383288383483887,-2.8406178951263428
1772025034088363500,0.770363525390625,-2.143218517303467,-0.9151261448860168,-2.947256565093994
1772025034098360800,0.78036083984375,-2.11533784866333,-0.7939179539680481,-3.0063018798828125
1772025034108357600,0.790357666015625,-2.0689332485198975,-0.5253627896308899,-3.01190447807312
1772025034118354700,0.800354736328125,-2.0224413871765137,-0.20864051580429077,-2.9289605617523193
1772025034128351700,0.810351806640625,-1.9037498235702515,0.1835840791463852,-2.726327657699585
1772025034138348800,0.820348876953125,-1.685253381729126,0.5746567845344543,-2.450270175933838
1772025034148345600,0.830345703125,-1.4037648439407349,0.8989402651786804,-2.139875650405884
1772025034158343000,0.840343017578125,-1.0853866338729858,1.069124698638916,-1.7874352931976318
1772025034168339700,0.850339599609375,-0.7617620229721069,1.0360426902770996,-1.3955790996551514
1772025034178336800,0.860336669921875,-0.49162665009498596,0.7629796862602234,-0.9706973433494568
1772025034188333800,0.870333740234375,-0.33494722843170166,0.21439090371131897,-0.5027496814727783
1772025034198330600,0.88033056640625,-0.2893613576889038,-0.6518672108650208,0.0069202701561152935
1772025034208327700,0.89032763671875,-0.29728415608406067,-1.3150830268859863,0.5609524846076965
1772025034218324700,0.90032470703125,-0.2544251084327698,-1.7052446603775024,1.0863003730773926
1772025034228321800,0.91032177734375,-0.13491027057170868,-1.9205098152160645,1.5007078647613525
1772025034238318600,0.920318603515625,0.04556175693869591,-1.9755475521087646,1.8393999338150024
1772025034248316000,0.93031591796875,0.24251718819141388,-1.9441180229187012,2.107210636138916
1772025034258312700,0.940312744140625,0.4060584306716919,-1.913503646850586,2.274479866027832
1772025034268309800,0.950309814453125,0.5696078538894653,-1.829710841178894,2.347423791885376
1772025034278306800,0.960306884765625,0.7296249270439148,-1.6762701272964478,2.376880645751953
1772025034288303900,0.970303955078125,0.9398217797279358,-1.056001901626587,2.410629987716675
1772025034298300700,0.98030078125,1.0865592956542969,-0.5454105734825134,2.2821593284606934
1772025034308297700,0.990297607421875,1.1997672319412231,-0.5841214060783386,2.229851484298706
1772025034318294800,1.000294677734375,1.1488087177276611,-0.6674668788909912,2.1343331336975098
1772025034328291600,1.01029150390625,0.9522611498832703,-0.9166387915611267,1.8350024223327637
1772025034338289000,1.020288818359375,0.711763322353363,-1.338331937789917,1.521008849143982
1772025034348285700,1.03028564453125,0.507091224193573,-1.93117356300354,1.135159969329834
1772025034358282800,1.04028271484375,0.5684241056442261,-2.2223241329193115,0.7179582715034485
1772025034368279800,1.05027978515625,0.8136793375015259,-1.6738916635513306,0.49237120151519775
1772025034378276900,1.06027685546875,0.9788880348205566,-0.12173525989055634,0.6471269726753235
1772025034388273700,1.070273681640625,1.0602854490280151,1.570041537284851,1.1107608079910278
1772025034398270700,1.080270751953125,1.0594156980514526,2.296135187149048,1.579809546470642
1772025034408267800,1.090267822265625,0.8431804776191711,2.0305521488189697,1.7782667875289917
1772025034418264600,1.1002646484375,0.4686712920665741,1.3522415161132812,1.8459970951080322
1772025034428261600,1.11026171875,0.16973620653152466,0.8256402015686035,2.032819986343384
1772025034438258700,1.1202587890625,-0.03526914119720459,0.6729990243911743,2.2644975185394287
1772025034448255700,1.130255859375,-0.26459094882011414,0.6381015777587891,2.1958532333374023
1772025034458252500,1.14025244140625,-0.5003252029418945,0.42709025740623474,1.6039743423461914
1772025034468249900,1.150249755859375,-0.651677668094635,0.1527937352657318,0.6298614144325256
1772025034478246700,1.16024658203125,-0.7235156297683716,0.006781391799449921,-0.5813682079315186
1772025034488243700,1.17024365234375,-0.8443331122398376,-0.11589366942644119,-1.8665252923965454
1772025034498239700,1.18023974609375,-1.0575045347213745,-0.43861767649650574,-2.8709425926208496
1772025034508236500,1.190236572265625,-1.3901959657669067,-0.6794549822807312,-3.529381275177002
1772025034518233900,1.20023388671875,-1.6915966272354126,-0.855277419090271,-3.8154473304748535
1772025034528227300,1.210227294921875,-1.9306588172912598,-0.9901946783065796,-3.7481093406677246
1772025034538224400,1.220224365234375,-2.005143642425537,-0.9884657263755798,-3.4700443744659424
1772025034548221400,1.230221435546875,-1.8706471920013428,-0.7366116046905518,-3.157618761062622
1772025034558218500,1.240218505859375,-1.5797114372253418,-0.1378941535949707,-2.9447906017303467
1772025034568215300,1.25021533203125,-1.2394195795059204,0.6659947037696838,-2.8293817043304443
1772025034578212400,1.26021240234375,-0.9191941022872925,1.3367334604263306,-2.656179189682007
1772025034588209400,1.27020947265625,-0.6071956157684326,1.788658618927002,-2.4289820194244385
1772025034598206200,1.280206298828125,-0.30665838718414307,1.9645997285842896,-2.156190872192383
1772025034608203500,1.29020361328125,-0.036941200494766235,1.8561674356460571,-1.8073763847351074
1772025034618200300,1.300200439453125,0.18352167308330536,1.509308099746704,-1.401834487915039
1772025034628197400,1.310197265625,0.35992199182510376,0.9591836929321289,-0.9709893465042114
1772025034638194400,1.3201943359375,0.5114700198173523,0.27797001600265503,-0.5375622510910034
1772025034648191500,1.33019140625,0.6534821391105652,-0.41089242696762085,-0.07983601093292236
1772025034658188300,1.340188232421875,0.7995210886001587,-1.0232994556427002,0.3851175606250763
1772025034668185600,1.350185546875,0.8986128568649292,-1.4594364166259766,0.8429725170135498
1772025034678182400,1.360182373046875,0.9356217384338379,-1.6766990423202515,1.2618192434310913
1772025034688179200,1.37017919921875,0.921884298324585,-1.730858564376831,1.6074732542037964
1772025034698176300,1.38017626953125,0.8555883765220642,-1.6737767457962036,1.8648693561553955
1772025034708173300,1.39017333984375,0.7589113116264343,-1.5254616737365723,1.985684871673584
1772025034718170400,1.40017041015625,0.6628859639167786,-1.3478049039840698,1.9237173795700073
1772025034728167200,1.410167236328125,0.5676182508468628,-1.1619837284088135,1.7157772779464722
1772025034738164500,1.42016455078125,0.4721658229827881,-1.0109587907791138,1.4311604499816895
1772025034748161300,1.430161376953125,0.3632924258708954,-0.9716019034385681,1.1253843307495117
1772025034758158300,1.440158447265625,0.2618100047111511,-1.118666410446167,0.8495495319366455
1772025034768155400,1.4501552734375,0.2442147433757782,-1.3235164880752563,0.7468200922012329
1772025034778152400,1.46015234375,0.3747493326663971,-1.3514524698257446,0.8711140751838684
1772025034788149200,1.470149169921875,0.48007673025131226,-1.1464704275131226,1.0209853649139404
1772025034798146600,1.480146484375,0.4021821916103363,-0.6475875973701477,1.0876541137695312
1772025034808143400,1.490143310546875,0.25044846534729004,0.2429986596107483,1.3283796310424805
1772025034818140200,1.50014013671875,0.14103728532791138,0.900760293006897,1.869438886642456
1772025034828137500,1.510137451171875,-0.05665156990289688,1.0557981729507446,2.2612857818603516
1772025034838134300,1.52013427734375,-0.40811294317245483,0.9185881614685059,2.3622817993164062
1772025034848131300,1.53013134765625,-0.5595332980155945,0.8324639797210693,2.3851592540740967
1772025034858128400,1.54012841796875,-0.48264914751052856,0.9898000955581665,2.414686441421509
1772025034868125400,1.55012548828125,-0.42266765236854553,1.1884204149246216,2.416144847869873
1772025034878122200,1.560122314453125,-0.33385682106018066,1.1181806325912476,2.140172004699707
1772025034888119600,1.57011962890625,-0.23802965879440308,0.8588500618934631,1.4970042705535889
1772025034898116400,1.580116455078125,-0.10193174332380295,0.6187730431556702,0.6894207000732422
1772025034908113400,1.590113525390625,0.021014779806137085,0.30627062916755676,-0.17400425672531128
1772025034918110500,1.6001103515625,-0.009382275864481926,-0.03118784725666046,-0.8919621706008911
1772025034928107300,1.610107177734375,-0.08665710687637329,-0.2574720084667206,-1.225990653038025
1772025034938104300,1.620104248046875,-0.1550998091697693,-0.43769851326942444,-1.2026046514511108
1772025034948101400,1.630101318359375,-0.28667083382606506,-0.5882291793823242,-0.9522489309310913
1772025034958098400,1.640098388671875,-0.449005663394928,-0.6874838471412659,-0.6683878898620605
1772025034968095200,1.65009521484375,-0.5940501093864441,-0.6480386853218079,-0.4452376961708069
1772025034978092500,1.660092529296875,-0.6648877859115601,-0.4091635048389435,-0.26931512355804443
1772025034988089300,1.67008935546875,-0.6354275941848755,-0.03840872272849083,-0.1594494879245758
1772025034998086400,1.68008642578125,-0.5107969641685486,0.41574493050575256,-0.12018994987010956
1772025035008083500,1.69008349609375,-0.3246871531009674,0.9109509587287903,-0.09556709229946136
1772025035018080500,1.70008056640625,-0.1234230175614357,1.311324119567871,-0.0393296554684639
1772025035028077300,1.710077392578125,0.05017612501978874,1.5109772682189941,0.0691220685839653
1772025035038074400,1.720074462890625,0.20488715171813965,1.5340017080307007,0.221522256731987
1772025035048071400,1.730071533203125,0.3379030227661133,1.4295111894607544,0.3893446922302246
1772025035058068200,1.740068115234375,0.4346250295639038,1.2228394746780396,0.538298487663269
1772025035068065300,1.750065185546875,0.5198941230773926,0.9421727061271667,0.6585503816604614
1772025035078062300,1.760062255859375,0.6048263311386108,0.6306539177894592,0.7457470297813416
1772025035088059400,1.770059326171875,0.6846522092819214,0.32699671387672424,0.7905186414718628
1772025035098056200,1.78005615234375,0.7533695101737976,0.04055510833859444,0.7999502420425415
1772025035108053500,1.790053466796875,0.8195250034332275,-0.19695140421390533,0.7729595303535461
1772025035118050300,1.80005029296875,0.8521804213523865,-0.3817734718322754,0.7201748490333557
1772025035128047400,1.81004736328125,0.8484570384025574,-0.5271581411361694,0.6441567540168762
1772025035138044400,1.82004443359375,0.8060150146484375,-0.6440858244895935,0.5648896098136902
1772025035148041500,1.83004150390625,0.7501359581947327,-0.6907080411911011,0.4982391595840454
1772025035158038300,1.840038330078125,0.6778668165206909,-0.686669111251831,0.4193475544452667
1772025035168034300,1.850034423828125,0.5919634103775024,-0.6725857853889465,0.34012743830680847
1772025035178032400,1.860032470703125,0.5086656212806702,-0.6588670611381531,0.25132301449775696
1772025035188028400,1.8700283203125,0.4194360375404358,-0.7029146552085876,0.11708807945251465
1772025035198025500,1.880025390625,0.31720900535583496,-0.7812057733535767,-0.03983175754547119
1772025035208022300,1.890022216796875,0.23266705870628357,-0.8914141058921814,-0.20420469343662262
1772025035218019600,1.90001953125,0.20523357391357422,-1.057674765586853,-0.3233598470687866
1772025035228016400,1.910016357421875,0.3031018078327179,-1.2373675107955933,-0.27784964442253113
1772025035238013200,1.92001318359375,0.5201696157455444,-1.3066627979278564,-0.04751870781183243
1772025035248010500,1.930010498046875,0.7141390442848206,-1.2977129220962524,0.40642479062080383
1772025035258007300,1.94000732421875,0.7645758390426636,-1.2746493816375732,1.2228584289550781
1772025035268004400,1.95000439453125,0.5364474654197693,-1.4411308765411377,2.1203696727752686
1772025035278001400,1.96000146484375,-0.05207252874970436,-1.9449971914291382,2.6059205532073975
1772025035287998500,1.96999853515625,-0.5461142063140869,-2.207141160964966,2.7241504192352295
1772025035297995300,1.979995361328125,-0.7101122140884399,-1.833491563796997,2.4765212535858154
1772025035307992600,1.98999267578125,-0.7293148636817932,-0.7829854488372803,1.8820538520812988
1772025035317989400,1.9999892578125,-0.6545023918151855,0.2225285768508911,0.8208197951316833
1772025035327986400,2.009986328125,-0.5027920603752136,0.9920855760574341,-0.5363506078720093
1772025035337983500,2.0199833984375,-0.4265599250793457,1.543129563331604,-1.906942367553711
1772025035347980300,2.029980224609375,-0.4946574568748474,1.7099143266677856,-3.1306848526000977
1772025035357977300,2.039977294921875,-0.7106518149375916,1.5207105875015259,-3.9311916828155518
1772025035367974400,2.049974365234375,-0.9353232979774475,1.238704800605774,-4.1511030197143555
1772025035377971500,2.059971435546875,-1.0768992900848389,0.9135439395904541,-3.9022533893585205
1772025035387968300,2.06996826171875,-1.1320123672485352,0.6177875399589539,-3.3806493282318115
1772025035397965300,2.07996533203125,-1.153119444847107,0.4245573580265045,-2.7651612758636475
1772025035407962400,2.08996240234375,-1.1322081089019775,0.347202330827713,-2.2190189361572266
1772025035417959400,2.09995947265625,-1.0295406579971313,0.3820194602012634,-1.781270146369934
1772025035427956200,2.109956298828125,-0.8171740174293518,0.5440350770950317,-1.433083176612854
1772025035437953500,2.11995361328125,-0.4925173819065094,0.802608847618103,-1.1210200786590576
1772025035447950300,2.129950439453125,-0.10714124888181686,1.0642592906951904,-0.8097014427185059
1772025035457947100,2.139947021484375,0.2884763777256012,1.2622069120407104,-0.478090763092041
1772025035467944400,2.1499443359375,0.6461885571479797,1.3220887184143066,-0.1424475610256195
1772025035477941200,2.159941162109375,0.9262647032737732,1.236276388168335,0.1781509667634964
1772025035487938300,2.169938232421875,1.115575909614563,1.002386212348938,0.4920508563518524
1772025035497935400,2.179935302734375,1.219419240951538,0.6317330002784729,0.805342435836792
1772025035507932400,2.189932373046875,1.250403642654419,0.184976726770401,1.121168613433838
1772025035517929200,2.19992919921875,1.2287204265594482,-0.2851108908653259,1.4176958799362183
1772025035527926500,2.209926513671875,1.1875032186508179,-0.7083876729011536,1.668190598487854
1772025035537923600,2.219923583984375,1.1267451047897339,-1.0444309711456299,1.829958200454712
1772025035547920400,2.22992041015625,1.044529676437378,-1.2542344331741333,1.889768123626709
1772025035557917700,2.239917724609375,0.9365528225898743,-1.335671305656433,1.8289299011230469
1772025035567914500,2.24991455078125,0.8179513216018677,-1.3047832250595093,1.6710939407348633
1772025035577911300,2.259911376953125,0.6629449725151062,-1.1673779487609863,1.4162741899490356
1772025035587908600,2.26990869140625,0.46133384108543396,-0.9747965335845947,1.0715855360031128
1772025035597905400,2.279905517578125,0.24354638159275055,-0.7460610866546631,0.648870050907135
1772025035607902500,2.28990234375,0.06830645352602005,-0.5321248769760132,0.1929710954427719
1772025035617899500,2.2998994140625,-0.07747951149940491,-0.4143550992012024,-0.2280578911304474
1772025035627896600,2.309896484375,-0.21656565368175507,-0.48607707023620605,-0.511922299861908
1772025035637893400,2.319893310546875,-0.3780464231967926,-0.7493923902511597,-0.5759223699569702
1772025035647890700,2.329890625,-0.541578471660614,-1.1680749654769897,-0.4053157567977905
1772025035657887500,2.339887451171875,-0.7397969961166382,-1.463123083114624,-0.09159006178379059
1772025035667884500,2.349884521484375,-1.0026911497116089,-1.2455642223358154,0.2357199490070343
1772025035677881600,2.359881591796875,-1.1951487064361572,-0.3495367765426636,0.4776247441768646
1772025035687878700,2.369878662109375,-1.2962170839309692,0.5646771192550659,0.3982543647289276
1772025035697875500,2.37987548828125,-1.3682903051376343,0.9597256183624268,0.05157364904880524
1772025035707872500,2.38987255859375,-1.3972139358520508,0.8629064559936523,-0.3394835889339447
1772025035717869600,2.39986962890625,-1.3753893375396729,0.6076467037200928,-0.4916616678237915
1772025035727866400,2.409866455078125,-1.2929104566574097,0.5533342361450195,-0.33878543972969055
1772025035737863400,2.419863525390625,-1.2204232215881348,0.8323962092399597,0.10654621571302414
1772025035747860500,2.429860595703125,-1.1512590646743774,1.0941880941390991,0.49847567081451416
1772025035757857500,2.439857421875,-1.0190088748931885,1.2263871431350708,0.40653908252716064
1772025035767854300,2.449854248046875,-0.7863909006118774,1.4865964651107788,-0.09911619871854782
1772025035777851600,2.4598515625,-0.4911571443080902,1.8132927417755127,-0.7387603521347046
1772025035787848400,2.469848388671875,-0.3031461536884308,1.8103176355361938,-1.372355341911316
1772025035797845500,2.479845458984375,-0.2610703408718109,1.5661333799362183,-1.8180502653121948
1772025035807842600,2.489842529296875,-0.2644292414188385,1.2411197423934937,-1.9650275707244873
1772025035817839400,2.49983935546875,-0.23732012510299683,0.9475206136703491,-1.7965620756149292
1772025035827836400,2.50983642578125,-0.1575317084789276,0.6907687187194824,-1.3731924295425415
1772025035837833500,2.51983349609375,-0.041967831552028656,0.48037099838256836,-0.8096532225608826
1772025035847830500,2.52983056640625,0.09481780976057053,0.3268899917602539,-0.24250611662864685
1772025035857827300,2.539827392578125,0.21716448664665222,0.1883677989244461,0.2464047223329544
1772025035867824600,2.54982470703125,0.30171865224838257,0.04967338591814041,0.6377660036087036
1772025035877821400,2.559821533203125,0.3534582853317261,-0.028881609439849854,0.939812421798706
1772025035887818500,2.569818603515625,0.44162940979003906,0.012953021563589573,1.148026943206787
1772025035897815600,2.579815673828125,0.5816224813461304,0.14589163661003113,1.2468841075897217
1772025035907812600,2.5898125,0.7411481738090515,0.35153481364250183,1.2321357727050781
1772025035917809400,2.599809326171875,0.8609997630119324,0.5765644907951355,1.1075961589813232
1772025035927806500,2.609806396484375,0.9351358413696289,0.7328778505325317,0.9232542514801025
1772025035937803500,2.619803466796875,0.9824573397636414,0.8076034784317017,0.7580820918083191
1772025035947800300,2.62980029296875,0.8870378732681274,0.761255145072937,0.6936282515525818
1772025035957797600,2.639797607421875,0.8544394373893738,0.6209419965744019,0.7438181638717651
1772025035967794400,2.64979443359375,0.8956977128982544,0.4325702488422394,0.8507440090179443
1772025035977791500,2.65979150390625,0.8604497313499451,0.198060542345047,0.9381899237632751
1772025035987788500,2.66978857421875,0.7327420115470886,-0.08480657637119293,0.9880601763725281
1772025035997785600,2.67978564453125,0.6165152788162231,-0.33129462599754333,1.0853968858718872
1772025036007782400,2.689782470703125,0.5592913031578064,-0.4860413372516632,1.1435574293136597
1772025036017778400,2.6997783203125,0.46053066849708557,-0.5456117391586304,1.0939913988113403
1772025036027775500,2.709775390625,0.31108272075653076,-0.5667232871055603,0.9403030276298523
1772025036037772500,2.7197724609375,0.1542837917804718,-0.5631623864173889,0.7204510569572449
1772025036047769600,2.72976953125,0.01066570170223713,-0.552210807800293,0.47152838110923767
1772025036057766400,2.739766357421875,-0.13692721724510193,-0.5839301347732544,0.19790932536125183
1772025036067763500,2.749763427734375,-0.32248836755752563,-0.6751310229301453,-0.09148973971605301
1772025036077760500,2.759760498046875,-0.560814380645752,-0.8504290580749512,-0.3707861006259918
1772025036087757600,2.769757568359375,-0.7052609920501709,-0.9895090460777283,-0.596653401851654
1772025036097754400,2.77975439453125,-0.6505990624427795,-0.7897834181785583,-0.6825089454650879
1772025036107751700,2.789751708984375,-0.4850333034992218,-0.1872774213552475,-0.6553229689598083
1772025036117748500,2.79974853515625,-0.2906177341938019,0.530178964138031,-0.5507614016532898
1772025036127745300,2.809745361328125,-0.04976430535316467,1.1114791631698608,-0.26386958360671997
1772025036137742600,2.81974267578125,0.14868779480457306,1.2725636959075928,0.13691645860671997
1772025036147739400,2.829739501953125,0.19863998889923096,0.9516772031784058,0.39440038800239563
1772025036157736400,2.839736328125,0.045628342777490616,0.17513562738895416,0.3871310353279114
1772025036167733500,2.8497333984375,-0.24483472108840942,-0.732317328453064,0.37190020084381104
1772025036177730600,2.85973046875,-0.44882914423942566,-1.0113637447357178,0.47745752334594727
1772025036187727400,2.869727294921875,-0.541944682598114,-0.6434155106544495,0.5975337028503418
1772025036197724700,2.879724609375,-0.5945985913276672,-0.4120209217071533,0.3705649971961975
1772025036207721500,2.889721435546875,-0.565778911113739,-0.23333030939102173,-0.18576398491859436
1772025036217718500,2.899718505859375,-0.4368979334831238,-0.019614549353718758,-0.8495143055915833
1772025036227715600,2.909715576171875,-0.29458847641944885,0.005033006425946951,-1.5439192056655884
1772025036237712400,2.91971240234375,-0.22343170642852783,-0.13791882991790771,-2.0802412033081055
1772025036247709400,2.92970947265625,-0.1831987202167511,-0.37707576155662537,-2.2426018714904785
1772025036257706500,2.93970654296875,-0.21314437687397003,-0.761702835559845,-2.034165382385254
1772025036267703600,2.94970361328125,-0.2972582280635834,-1.2611777782440186,-1.5831778049468994
1772025036277700400,2.959700439453125,-0.38281601667404175,-1.7523770332336426,-1.0851701498031616
1772025036287697700,2.96969775390625,-0.4445760250091553,-2.0936226844787598,-0.6686649918556213
1772025036297694500,2.979694580078125,-0.48639270663261414,-2.190810441970825,-0.42541128396987915
1772025036307691500,2.98969140625,-0.49615272879600525,-2.003483295440674,-0.44235464930534363
1772025036317688600,2.9996884765625,-0.48921626806259155,-1.5092493295669556,-0.6875670552253723
1772025036327685600,3.009685546875,-0.45588356256484985,-0.7540469169616699,-1.0423423051834106
1772025036337682400,3.019682373046875,-0.372898668050766,0.10734717547893524,-1.402003288269043
1772025036347679500,3.029679443359375,-0.23478947579860687,0.931856095790863,-1.7034893035888672
1772025036357676500,3.039676513671875,-0.0562966950237751,1.5696271657943726,-1.8940613269805908
1772025036367673300,3.04967333984375,0.11439066380262375,1.953229308128357,-1.931093692779541
1772025036377670400,3.05967041015625,0.2464597374200821,2.0895209312438965,-1.8250905275344849
1772025036387667500,3.06966748046875,0.3569208085536957,1.964796781539917,-1.6087676286697388
1772025036397664500,3.07966455078125,0.42821282148361206,1.627364993095398,-1.284863829612732
1772025036407661300,3.089661376953125,0.4559836983680725,1.1469944715499878,-0.8889962434768677
1772025036417658600,3.09965869140625,0.4383048117160797,0.6055817604064941,-0.45838305354118347
1772025036427655400,3.109655517578125,0.37777259945869446,0.09447149932384491,-0.03607489913702011
1772025036437652500,3.119652587890625,0.2827427387237549,-0.30085745453834534,0.3465656638145447
1772025036447649500,3.1296494140625,0.21478834748268127,-0.5520070791244507,0.6738020777702332
1772025036457646600,3.139646484375,0.2007255256175995,-0.7000894546508789,0.9185223579406738
1772025036467643400,3.149643310546875,0.2400507628917694,-0.7693735361099243,1.070886254310608
1772025036477640400,3.159640380859375,0.3067064881324768,-0.760801374912262,1.1297492980957031
1772025036487637500,3.169637451171875,0.37000367045402527,-0.7421918511390686,1.126625657081604
1772025036497634300,3.17963427734375,0.4161362648010254,-0.7730115652084351,1.0776010751724243
1772025036507631600,3.189631591796875,0.37796807289123535,-0.8788682818412781,1.0114364624023438
1772025036517628400,3.19962841796875,0.25851330161094666,-1.040041208267212,0.9873764514923096
1772025036527625000,3.209625,0.12589028477668762,-1.2784994840621948,1.061169147491455
1772025036537621800,3.219621826171875,0.04152480512857437,-1.5572816133499146,1.245359182357788
1772025036547618800,3.229618896484375,-0.01859562285244465,-1.8736636638641357,1.4428925514221191
1772025036557615900,3.239615966796875,-0.10517817735671997,-2.0649871826171875,1.6419707536697388
1772025036567613000,3.249613037109375,-0.11059830337762833,-1.6839479207992554,1.753813624382019
1772025036577609700,3.259609619140625,0.034903764724731445,-0.958838701248169,1.5153546333312988
1772025036587606800,3.269606689453125,0.20689189434051514,-0.11573521047830582,0.8835884928703308
1772025036597603800,3.279603759765625,0.20027340948581696,0.3792164623737335,-0.08678003400564194
1772025036607600600,3.2896005859375,-0.04917508363723755,0.48701873421669006,-0.9651970863342285
1772025036617597700,3.29959765625,-0.3730601966381073,0.7651699781417847,-1.2368848323822021
1772025036627594800,3.3095947265625,-0.6516222357749939,1.3951679468154907,-1.0538972616195679
1772025036637591800,3.319591796875,-0.872706413269043,1.7180986404418945,-1.0070898532867432
1772025036647588600,3.329588623046875,-1.0019327402114868,1.5561038255691528,-1.330000400543213
1772025036657586000,3.3395859375,-1.000060796737671,1.3431984186172485,-1.7656469345092773
1772025036667582700,3.349582763671875,-0.9062302112579346,1.0330381393432617,-2.351522922515869
1772025036677579800,3.359579833984375,-0.8736647963523865,0.7618998289108276,-2.9719741344451904
1772025036687576800,3.369576904296875,-0.875618040561676,0.7283080816268921,-3.2737436294555664
1772025036697574000,3.379573974609375,-0.8438342809677124,0.7397644519805908,-3.17792010307312
1772025036707570700,3.38957080078125,-0.7802695035934448,0.7029638290405273,-2.7706971168518066
1772025036717567700,3.399567626953125,-0.7216546535491943,0.6070412397384644,-2.2054924964904785
1772025036727564800,3.409564697265625,-0.6997917294502258,0.43781182169914246,-1.5559002161026
1772025036737561600,3.4195615234375,-0.6722578406333923,0.2000616043806076,-0.8761363625526428
1772025036747559000,3.429558837890625,-0.5630782246589661,-0.07923788577318192,-0.24692080914974213
1772025036757555700,3.4395556640625,-0.35946035385131836,-0.33123576641082764,0.24633389711380005
1772025036767552800,3.449552734375,-0.1039976179599762,-0.4803895950317383,0.5452480912208557
1772025036777549800,3.4595498046875,0.15643396973609924,-0.45893594622612,0.658115804195404
1772025036787547000,3.469546875,0.46507561206817627,-0.30113327503204346,0.664684534072876
1772025036797543700,3.479543701171875,0.8302333354949951,-0.10877661406993866,0.6279702186584473
1772025036807541000,3.489541015625,1.1274703741073608,0.06915903091430664,0.6118514537811279
1772025036817537800,3.499537841796875,1.2880473136901855,0.1697719395160675,0.6866993308067322
1772025036827534600,3.50953466796875,1.3211942911148071,0.17929400503635406,0.8946310877799988
1772025036837532000,3.519531982421875,1.286675214767456,0.11284201592206955,1.2184765338897705
1772025036847528700,3.52952880859375,1.2382338047027588,-0.019385723397135735,1.6038789749145508
1772025036857525800,3.53952587890625,1.1841309070587158,-0.2220514714717865,1.9722108840942383
1772025036867522800,3.549522705078125,1.101029396057129,-0.43883222341537476,2.256324052810669
1772025036877520000,3.559519775390625,1.0144721269607544,-0.600264847278595,2.407259941101074
1772025036887516700,3.5695166015625,0.94781094789505,-0.6782936453819275,2.4053568840026855
1772025036897514000,3.579513916015625,0.9391165375709534,-0.6267809271812439,2.265733480453491
1772025036907510800,3.5895107421875,0.9926618337631226,-0.49915698170661926,2.026221752166748
1772025036917507800,3.5995078125,1.0883140563964844,-0.3395518958568573,1.7180107831954956
1772025036927505000,3.6095048828125,1.1797815561294556,-0.2062794715166092,1.3841437101364136
1772025036937501700,3.619501708984375,1.247880458831787,-0.1875699758529663,1.0775365829467773
1772025036947498800,3.629498779296875,1.310044765472412,-0.2602956295013428,0.8608196377754211
1772025036957495800,3.639495849609375,1.3211815357208252,-0.44319167733192444,0.7679464221000671
1772025036967492900,3.649492919921875,1.1951590776443481,-0.6719015836715698,0.7675452828407288
1772025036977489700,3.65948974609375,0.8903340697288513,-0.9753884673118591,0.8195917010307312
1772025036987486700,3.66948681640625,0.5086555480957031,-1.2143994569778442,0.925558865070343
1772025036997483800,3.67948388671875,0.23180532455444336,-1.1863454580307007,1.0632485151290894
1772025037007480800,3.689480712890625,0.19004066288471222,-0.7760992646217346,1.21640944480896
1772025037017477600,3.6994775390625,0.34825241565704346,-0.3794669508934021,1.2941385507583618
1772025037027475000,3.709474853515625,0.4384799897670746,-0.3807368576526642,1.1936180591583252
1772025037037470700,3.719470703125,0.23148395121097565,-0.7614341378211975,0.9685106873512268
1772025037047468800,3.72946875,-0.15959736704826355,-1.7199997901916504,0.796173095703125
1772025037057464800,3.73946484375,-0.6172807812690735,-2.6756772994995117,0.9144757390022278
1772025037067461600,3.749461669921875,-1.0503520965576172,-2.6073575019836426,1.3409465551376343
1772025037077459000,3.759458984375,-1.3791979551315308,-1.7023886442184448,1.6049712896347046
1772025037087455700,3.769455810546875,-1.547447681427002,-0.7672675251960754,1.2320083379745483
1772025037097452800,3.779452880859375,-1.5189428329467773,0.11731182038784027,0.46131718158721924
1772025037107449900,3.789449951171875,-1.3448163270950317,0.8897456526756287,-0.45277777314186096
1772025037117447000,3.799447021484375,-1.1296358108520508,1.2554082870483398,-1.4739292860031128
1772025037127443700,3.809443603515625,-0.9999693632125854,1.2702503204345703,-2.294891357421875
1772025037137440800,3.819440673828125,-0.9472912549972534,1.1013894081115723,-2.6092872619628906
1772025037147437800,3.829437744140625,-0.9072319269180298,0.7572352886199951,-2.423845052719116
1772025037157434600,3.8394345703125,-0.9022496938705444,0.25498950481414795,-1.8825509548187256
1772025037167432000,3.849431884765625,-0.9151830077171326,-0.3288719654083252,-1.1849745512008667
1772025037177428700,3.8594287109375,-0.9225743412971497,-0.9171892404556274,-0.5124861598014832
1772025037187425800,3.86942578125,-0.9194883704185486,-1.4237451553344727,0.032802559435367584
1772025037197422800,3.8794228515625,-0.8977636098861694,-1.7771857976913452,0.3872655928134918
1772025037207420000,3.889419921875,-0.8536537289619446,-1.8559150695800781,0.47197723388671875
1772025037217416700,3.899416748046875,-0.8117744326591492,-1.6693114042282104,0.3062266409397125
1772025037227414000,3.9094140625,-0.8071067929267883,-1.2264909744262695,-0.011456212028861046
1772025037237410800,3.919410888671875,-0.7901283502578735,-0.5903763175010681,-0.3651024401187897
1772025037247407600,3.92940771484375,-0.728257417678833,0.0516386516392231,-0.6861353516578674
1772025037257405000,3.939405029296875,-0.6255408525466919,0.5810846090316772,-0.9221673011779785
1772025037267401700,3.949401611328125,-0.510352373123169,0.986271858215332,-1.0619425773620605
1772025037277398800,3.959398681640625,-0.38963979482650757,1.2438429594039917,-1.0987813472747803
1772025037287395800,3.969395751953125,-0.24146173894405365,1.3269686698913574,-1.0486114025115967
1772025037297393000,3.979392822265625,-0.07606825232505798,1.2609251737594604,-0.914007842540741
1772025037307389700,3.9893896484375,0.10020258277654648,1.0814828872680664,-0.6894562840461731
1772025037317386800,3.99938671875,0.272134393453598,0.8288522362709045,-0.3871805667877197
1772025037327383800,4.0093837890625,0.43243977427482605,0.5471773743629456,-0.04077915474772453
1772025037337380900,4.019380859375,0.5535787343978882,0.2541010081768036,0.31262072920799255
1772025037347377700,4.029377685546875,0.6113178133964539,-0.03336578980088234,0.6480253338813782
1772025037357374700,4.039374755859375,0.5969445109367371,-0.26267009973526,0.9386659264564514
1772025037367371800,4.049371826171875,0.5407629013061523,-0.4122001826763153,1.1563352346420288
1772025037377368600,4.05936865234375,0.4540700614452362,-0.5141167044639587,1.301135778427124
1772025037387366000,4.069365966796875,0.3518945276737213,-0.5604106783866882,1.3688710927963257
1772025037397362700,4.07936279296875,0.2563709616661072,-0.5271347165107727,1.3495254516601562
1772025037407359700,4.08935986328125,0.19295556843280792,-0.3803405165672302,1.2559995651245117
1772025037417356800,4.099356689453125,0.18348589539527893,-0.1392035037279129,1.1210588216781616
1772025037427353900,4.109353759765625,0.22856710851192474,0.1462574154138565,1.002911925315857
1772025037437350700,4.1193505859375,0.3319174647331238,0.46212777495384216,0.9674547910690308
1772025037447348000,4.129347900390625,0.4830002188682556,0.7145544290542603,1.00713312625885
1772025037457344800,4.1393447265625,0.6807974576950073,0.808411717414856,1.0525286197662354
1772025037467341800,4.149341796875,0.8802125453948975,0.8546833992004395,1.0400956869125366
1772025037477339000,4.1593388671875,0.9976430535316467,0.8517112731933594,0.8813888430595398
1772025037487335700,4.169335693359375,0.8920707702636719,0.7082370519638062,0.5247889161109924
1772025037497332700,4.179332763671875,0.5690913796424866,0.5110339522361755,0.016608532518148422
1772025037507329800,4.189329833984375,0.1751226931810379,-0.15005800127983093,-0.6264306306838989
1772025037517326800,4.199326904296875,-0.0703565701842308,-1.05093514919281,-1.0663502216339111
1772025037527324200,4.20932421875,-0.158481165766716,-1.2129998207092285,-1.1041960716247559
1772025037537321200,4.2193212890625,-0.1879487782716751,-0.5300562381744385,-1.0292022228240967
1772025037547318300,4.229318359375,-0.19834668934345245,0.16234898567199707,-1.236946702003479
1772025037557315300,4.2393154296875,-0.18521864712238312,0.6073504090309143,-1.664263129234314
1772025037567312100,4.24931201171875,-0.11842532455921173,1.0686745643615723,-2.063887119293213
1772025037577309200,4.25930908203125,0.033072058111429214,1.4442896842956543,-2.507204055786133
1772025037587306200,4.26930615234375,0.21207939088344574,1.7336403131484985,-2.914700984954834
1772025037597303000,4.279302978515625,0.3480401337146759,1.9668344259262085,-3.1115164756774902
1772025037607300400,4.28930029296875,0.34633174538612366,1.9586818218231201,-3.0100317001342773
1772025037617297200,4.299297119140625,0.1946638971567154,1.640864610671997,-2.597478151321411
1772025037627294200,4.309294189453125,-0.02441995032131672,1.0425004959106445,-1.9347364902496338
1772025037637291300,4.319291259765625,-0.20142802596092224,0.2892085611820221,-1.1370161771774292
1772025037647288300,4.329288330078125,-0.2622445821762085,-0.46630293130874634,-0.3565422296524048
1772025037657285000,4.33928515625,-0.214086651802063,-1.0889755487442017,0.2301252782344818
1772025037667282400,4.349282470703125,-0.15737593173980713,-1.4023399353027344,0.40768954157829285
1772025037677279200,4.359279296875,-0.16881340742111206,-1.3022165298461914,0.1639898121356964
1772025037687276300,4.3692763671875,-0.22221077978610992,-0.8388168215751648,-0.3284747004508972
1772025037697273300,4.3792734375,-0.25092896819114685,-0.1400449126958847,-0.9018405079841614
1772025037707270100,4.389270263671875,-0.1708381623029709,0.5643777251243591,-1.4022420644760132
1772025037717267200,4.39926708984375,-0.0003175482852384448,1.1164896488189697,-1.7613976001739502
1772025037727264300,4.40926416015625,0.17552462220191956,1.4807581901550293,-1.9422775506973267
1772025037737261300,4.41926123046875,0.32766595482826233,1.6632100343704224,-1.9321658611297607
1772025037747258000,4.429258056640625,0.47308599948883057,1.6647238731384277,-1.723686695098877
1772025037757255400,4.43925537109375,0.6005182266235352,1.477471947669983,-1.3302419185638428
1772025037767252200,4.449252197265625,0.671710193157196,1.1598454713821411,-0.7893484234809875
1772025037777249300,4.459249267578125,0.6784360408782959,0.7654125690460205,-0.17607355117797852
1772025037787246300,4.469246337890625,0.6471760272979736,0.37077707052230835,0.40260589122772217
1772025037797243400,4.479243408203125,0.5953711271286011,0.016830723732709885,0.8678340315818787
1772025037807240200,4.489240234375,0.5404174327850342,-0.240159273147583,1.158171534538269
1772025037817237200,4.4992373046875,0.5126132369041443,-0.3804394006729126,1.2946739196777344
1772025037827234300,4.509234375,0.5311084389686584,-0.40655478835105896,1.312984824180603
1772025037837231000,4.519231201171875,0.604962944984436,-0.345660001039505,1.2326451539993286
1772025037847228400,4.529228515625,0.6932169198989868,-0.27463003993034363,1.0695912837982178
1772025037857225200,4.53922509765625,0.7292143106460571,-0.22990383207798004,0.8748180866241455
1772025037867222300,4.54922216796875,0.6887686252593994,-0.24671582877635956,0.6845554709434509
1772025037877219300,4.55921923828125,0.5941832661628723,-0.37259441614151,0.5342743396759033
1772025037887216400,4.56921630859375,0.431045264005661,-0.5953288674354553,0.4511320888996124
1772025037897213200,4.579213134765625,0.30272990465164185,-0.736644446849823,0.5010796785354614
1772025037907210200,4.589210205078125,0.2993863523006439,-0.6479952335357666,0.7287769913673401
1772025037917207300,4.599207275390625,0.35372522473335266,-0.32031774520874023,1.0643342733383179
1772025037927204000,4.6092041015625,0.4689139127731323,0.03374733030796051,1.3929991722106934
1772025037937201200,4.619201171875,0.615974485874176,0.18927647173404694,1.5568115711212158
1772025037947198200,4.6291982421875,0.6383252143859863,-0.1083657443523407,1.3785775899887085
1772025037957195300,4.6391953125,0.35929757356643677,-0.9255726933479309,0.7768576145172119
1772025037967192000,4.649192138671875,-0.015588224865496159,-1.8037586212158203,0.17814752459526062
1772025037977189400,4.659189453125,-0.24034090340137482,-2.2907793521881104,-0.07775375992059708
1772025037987186200,4.669186279296875,-0.4277634620666504,-2.190417766571045,0.07666648924350739
1772025037997183200,4.679183349609375,-0.5756050944328308,-1.642351508140564,0.41936179995536804
1772025038007180300,4.68918017578125,-0.592382550239563,-1.0363644361495972,0.520085871219635
1772025038017177300,4.69917724609375,-0.5416061878204346,-0.47134897112846375,0.22718526422977448
1772025038027174100,4.709174072265625,-0.47903972864151,0.0022466308437287807,-0.35601744055747986
1772025038037171200,4.719171142578125,-0.4455736577510834,0.2860509157180786,-1.0339869260787964
1772025038047168300,4.729168212890625,-0.4997725784778595,0.42147302627563477,-1.5833617448806763
1772025038057165000,4.7391650390625,-0.6251051425933838,0.4394874572753906,-1.8649742603302002
1772025038067162400,4.749162353515625,-0.7864513397216797,0.41587501764297485,-1.8562785387039185
1772025038077159200,4.7591591796875,-0.933177649974823,0.4319804906845093,-1.5718539953231812
1772025038087156200,4.76915625,-1.0161916017532349,0.5125285387039185,-1.0934104919433594
1772025038097153300,4.7791533203125,-1.0225131511688232,0.6003828048706055,-0.5238081812858582
1772025038107150300,4.789150390625,-0.9753684401512146,0.6729617714881897,0.052841734141111374
1772025038117147100,4.799147216796875,-0.8818249106407166,0.7279911637306213,0.5873240232467651
1772025038127144400,4.80914453125,-0.7534791231155396,0.7663374543190002,1.0232409238815308
1772025038137141200,4.819141357421875,-0.5983890891075134,0.8031498193740845,1.3669966459274292
1772025038147138300,4.82913818359375,-0.42970243096351624,0.8627039790153503,1.6452409029006958
1772025038157135400,4.83913525390625,-0.26676997542381287,0.925343930721283,1.882407307624817
1772025038167132200,4.849132080078125,-0.12187299132347107,0.9296404123306274,2.0422861576080322
1772025038177129200,4.859129150390625,-0.002151117194443941,0.8987330794334412,2.097790002822876
1772025038187126300,4.869126220703125,0.09890533238649368,0.8484861254692078,2.067659854888916
1772025038197123300,4.879123291015625,0.18609589338302612,0.7748566269874573,1.9839342832565308
1772025038207120100,4.8891201171875,0.30049967765808105,0.7043929696083069,1.8959107398986816
1772025038217117200,4.8991171875,0.4211331605911255,0.6138260364532471,1.7996792793273926
1772025038227114200,4.9091142578125,0.5285482406616211,0.5034422874450684,1.691657543182373
1772025038237111300,4.919111328125,0.62674880027771,0.36452755331993103,1.5768694877624512
1772025038247108000,4.929108154296875,0.7289301156997681,0.21081294119358063,1.4520927667617798
1772025038257105400,4.93910546875,0.8174325823783875,0.05529925599694252,1.330450177192688
1772025038267102200,4.949102294921875,0.8688825368881226,-0.08082748204469681,1.1966856718063354
1772025038277099000,4.95909912109375,0.8671504259109497,-0.19827288389205933,1.0500268936157227
1772025038287096300,4.969096435546875,0.8174099922180176,-0.3165513277053833,0.8851042985916138
1772025038297093000,4.979093017578125,0.6885439157485962,-0.43863195180892944,0.7240749597549438
1772025038307090200,4.989090087890625,0.5069193243980408,-0.48687371611595154,0.5779550671577454
1772025038317087200,4.999087158203125,0.3249590992927551,-0.47302180528640747,0.42041686177253723
1772025038327084300,5.009084228515625,0.19471926987171173,-0.47501006722450256,0.22516222298145294
1772025038337081000,5.0190810546875,0.1515028327703476,-0.4945957362651825,-0.021124254912137985
1772025038347078400,5.029078369140625,0.18483148515224457,-0.4268397390842438,-0.2745177745819092
1772025038357075200,5.0390751953125,0.2837279438972473,-0.20154909789562225,-0.47629350423812866
1772025038367072300,5.049072265625,0.42879152297973633,0.12473955750465393,-0.5860640406608582
1772025038377069300,5.0590693359375,0.5752083659172058,0.4564719498157501,-0.6144993901252747
1772025038387066000,5.069066162109375,0.6229991316795349,0.6529057025909424,-0.607608437538147
1772025038397063200,5.079063232421875,0.5226730704307556,0.4901133179664612,-0.5405162572860718
1772025038407060200,5.089060302734375,0.3152325451374054,-0.12657929956912994,-0.2998717427253723
1772025038417057300,5.099057373046875,0.08962257951498032,-0.6573795080184937,0.176529660820961
1772025038427054000,5.10905419921875,-0.060964565724134445,-0.571244478225708,0.7929812669754028
1772025038437051400,5.119051513671875,-0.04298769682645798,-0.11975403130054474,1.2642292976379395
1772025038447048200,5.129048095703125,0.10552563518285751,0.07997958362102509,1.2612284421920776
1772025038457045200,5.139045166015625,0.3508443236351013,-0.03410518169403076,0.8226388096809387
1772025038467042300,5.149042236328125,0.6400548219680786,-0.2201719433069229,0.18880166113376617
1772025038477039400,5.159039306640625,0.8584718704223633,-0.3795032799243927,-0.4588727355003357
1772025038487036200,5.1690361328125,0.9231400489807129,-0.7392556071281433,-0.995530903339386
1772025038497033500,5.179033447265625,0.8300037384033203,-1.2713152170181274,-1.196969985961914
1772025038507030300,5.1890302734375,0.7152184844017029,-1.7531912326812744,-1.0641380548477173
1772025038517027000,5.199027099609375,0.6189752817153931,-1.9932254552841187,-0.8230889439582825
1772025038527024400,5.2090244140625,0.47038888931274414,-1.9339125156402588,-0.7034540176391602
1772025038537021000,5.21902099609375,0.23327195644378662,-1.6052275896072388,-0.8363348245620728
1772025038547017700,5.229017822265625,-0.04002632573246956,-1.1011645793914795,-1.180435061454773
1772025038557015000,5.23901513671875,-0.29545754194259644,-0.45194607973098755,-1.6408168077468872
1772025038567011800,5.24901171875,-0.5046720504760742,0.2925233542919159,-2.084912061691284
1772025038577009000,5.2590087890625,-0.6404290795326233,1.0336134433746338,-2.4327690601348877
1772025038587006000,5.269005859375,-0.7046136856079102,1.6995420455932617,-2.632840394973755
1772025038597003000,5.2790029296875,-0.7190546989440918,2.2409722805023193,-2.6765236854553223
1772025038606999800,5.288999755859375,-0.6985635757446289,2.593459129333496,-2.560063600540161
1772025038616996900,5.298996826171875,-0.653357207775116,2.7264583110809326,-2.3013811111450195
1772025038626994000,5.308993896484375,-0.6124377846717834,2.688861846923828,-1.9542189836502075
1772025038636989000,5.318989013671875,-0.573906660079956,2.4851646423339844,-1.556699514389038
1772025038646985700,5.32898583984375,-0.5505443215370178,2.165419816970825,-1.1380912065505981
1772025038656982800,5.338982666015625,-0.5358165502548218,1.781416893005371,-0.726287305355072
1772025038666979800,5.348979736328125,-0.5132761001586914,1.3526623249053955,-0.33351099491119385
1772025038676977000,5.358976806640625,-0.4505661427974701,0.9149408936500549,0.015619838610291481
1772025038686973700,5.3689736328125,-0.3563118278980255,0.5315911769866943,0.2946268320083618
1772025038696971000,5.378970947265625,-0.2258150726556778,0.22239074110984802,0.4934816062450409
1772025038706967800,5.3889677734375,-0.0702734962105751,-0.04213756322860718,0.6246442794799805
1772025038716964900,5.39896484375,0.08064145594835281,-0.2537081241607666,0.7162055969238281
1772025038726962000,5.4089619140625,0.19560828804969788,-0.40456536412239075,0.79665207862854
1772025038736959000,5.418958984375,0.25619256496429443,-0.5124859809875488,0.8662543296813965
1772025038746955800,5.428955810546875,0.23589064180850983,-0.6157417893409729,0.9199211001396179
1772025038756952800,5.438952880859375,0.12939003109931946,-0.7471190094947815,0.9453718662261963
1772025038766950000,5.448949951171875,-0.04238172620534897,-0.9143474102020264,0.9383296966552734
1772025038776946700,5.45894677734375,-0.20119667053222656,-1.0966684818267822,0.9340819120407104
1772025038786944000,5.468944091796875,-0.30807051062583923,-1.2412382364273071,0.9510288238525391
1772025038796940800,5.47894091796875,-0.3290064334869385,-1.2666746377944946,0.9276963472366333
1772025038806937900,5.488937744140625,-0.19148243963718414,-1.014908790588379,0.7980586886405945
1772025038816935000,5.498934814453125,0.050427671521902084,-0.4561871588230133,0.5279720425605774
1772025038826932000,5.508931884765625,0.24787911772727966,0.1022283136844635,0.22376041114330292
1772025038836928800,5.5189287109375,0.3479633927345276,0.4479164779186249,-0.018863407894968987
1772025038846926000,5.528926025390625,0.24690379202365875,0.4391893148422241,-0.37710586190223694
1772025038856923000,5.5389228515625,-0.05514661222696304,0.30510368943214417,-0.6677648425102234
1772025038866919700,5.548919677734375,-0.1999109834432602,0.5333631634712219,-0.6652321815490723
1772025038876917000,5.5589169921875,-0.056056082248687744,1.3316848278045654,-0.3525874614715576
1772025038886913800,5.568913818359375,0.20072153210639954,1.8817194700241089,-0.02083103358745575
1772025038896910800,5.578910888671875,0.3304148018360138,1.8283954858779907,-0.04340478405356407
1772025038906908000,5.588907958984375,0.33839115500450134,1.5446892976760864,-0.34776297211647034
1772025038916905000,5.598905029296875,0.36655673384666443,1.3955130577087402,-0.7109757661819458
1772025038926901800,5.60890185546875,0.46189141273498535,1.3028109073638916,-1.0522035360336304
1772025038936899000,5.618899169921875,0.5412110090255737,1.10359787940979,-1.331148386001587
1772025038946896000,5.628895751953125,0.5941604971885681,0.816587507724762,-1.4755842685699463
1772025038956893000,5.638892822265625,0.6182727813720703,0.49803510308265686,-1.4278987646102905
1772025038966890000,5.648889892578125,0.6074977517127991,0.18968944251537323,-1.168724775314331
1772025038976887000,5.658886962890625,0.564178466796875,-0.10008778423070908,-0.7242277264595032
1772025038986883800,5.6688837890625,0.5371327996253967,-0.3795141875743866,-0.1521696299314499
1772025038996881000,5.678880859375,0.5505468845367432,-0.6491485834121704,0.4397088885307312
1772025039006878000,5.6888779296875,0.5905750393867493,-0.8550355434417725,0.9058564901351929
1772025039016874800,5.698874755859375,0.6019315123558044,-0.9050331711769104,1.1559853553771973
1772025039026871800,5.708871826171875,0.5685908794403076,-0.7635126709938049,1.1913493871688843
1772025039036868900,5.718868896484375,0.4956918954849243,-0.4499009847640991,1.0776302814483643
1772025039046866000,5.728865966796875,0.41622698307037354,-0.04767364636063576,0.9034370183944702
1772025039056862700,5.73886279296875,0.3572576642036438,0.3923596739768982,0.7229124903678894
1772025039066860000,5.748860107421875,0.2882372736930847,0.7805673480033875,0.5685915350914001
1772025039076856800,5.75885693359375,0.2071722447872162,1.0796579122543335,0.46592023968696594
1772025039086854000,5.76885400390625,0.13477590680122375,1.2904595136642456,0.42128515243530273
1772025039096851000,5.778850830078125,0.07292691618204117,1.408715844154358,0.4389565587043762
1772025039106847700,5.78884765625,0.03186502680182457,1.4245390892028809,0.49162620306015015
1772025039116844800,5.7988447265625,-0.01463988795876503,1.372655987739563,0.5588811039924622
1772025039126841900,5.808841796875,-0.057656411081552505,1.2608006000518799,0.6229824423789978
1772025039136839000,5.8188388671875,-0.10581621527671814,1.1112632751464844,0.6680783033370972
1772025039146835700,5.828835693359375,-0.1537059247493744,0.9703127145767212,0.6597995162010193
1772025039156833000,5.8388330078125,-0.20175573229789734,0.8750016689300537,0.5822559595108032
1772025039166829800,5.848829833984375,-0.24640101194381714,0.8026707172393799,0.45030510425567627
1772025039176827000,5.858826904296875,-0.3034432530403137,0.7140859961509705,0.2854354679584503
1772025039186824000,5.868823974609375,-0.3569788634777069,0.5829182267189026,0.0986255556344986
1772025039196821000,5.878821044921875,-0.40586358308792114,0.43448084592819214,-0.08677120506763458
1772025039206817800,5.88881787109375,-0.45131659507751465,0.340768039226532,-0.2442275881767273
1772025039216814800,5.89881494140625,-0.4914616346359253,0.23431110382080078,-0.3867812752723694
1772025039226812000,5.90881201171875,-0.5564821362495422,-0.008308203890919685,-0.4997378885746002
1772025039236808000,5.918807861328125,-0.6534427404403687,-0.3517259955406189,-0.5559552907943726
1772025039246806000,5.928805908203125,-0.7083410024642944,-0.7299745678901672,-0.4480297565460205
1772025039256802800,5.938802734375,-0.7020247578620911,-1.1325180530548096,-0.16920079290866852
1772025039266799900,5.9487998046875,-0.6168877482414246,-1.4040027856826782,0.27981871366500854
1772025039276796000,5.9587958984375,-0.4086242616176605,-1.3274375200271606,0.8352952599525452
1772025039286795000,5.968794921875,-0.08814708143472672,-1.0025321245193481,1.3514690399169922
1772025039296791800,5.978791748046875,0.2486644834280014,-0.710547149181366,1.6731799840927124
1772025039306788900,5.988788818359375,0.44387513399124146,-0.5872475504875183,1.7094535827636719
1772025039316786000,5.998785888671875,0.33809810876846313,-0.638083815574646,1.544614315032959
1772025039326783000,6.008782958984375,0.002442537806928158,-0.6391185522079468,1.364129662513733
1772025039336779800,6.01877978515625,-0.27864399552345276,-0.17599080502986908,1.2375725507736206
1772025039346777000,6.028777099609375,-0.3073825240135193,0.6636254191398621,1.146341323852539
1772025039356774000,6.03877392578125,-0.09593553096055984,1.3114122152328491,0.9108086824417114
1772025039366771000,6.04877099609375,0.16432994604110718,1.580145239830017,0.38758525252342224
1772025039376768000,6.05876806640625,0.3482015132904053,1.6328579187393188,-0.3522605895996094
1772025039386764800,6.068764892578125,0.46846500039100647,1.556381344795227,-1.1378443241119385
1772025039396761900,6.078761962890625,0.4857582151889801,1.3342856168746948,-1.839032530784607
1772025039406759000,6.088759033203125,0.32927027344703674,0.9160999059677124,-2.330463171005249
1772025039416756000,6.098755859375,0.0030982918106019497,0.31074392795562744,-2.560044527053833
1772025039426752800,6.108752685546875,-0.41091248393058777,-0.4250427782535553,-2.493722438812256
1772025039436749800,6.118749755859375,-0.8214787244796753,-1.1516084671020508,-2.148529052734375
1772025039446747000,6.128746826171875,-1.1116080284118652,-1.8141939640045166,-1.6392549276351929
1772025039456744000,6.138743896484375,-1.206058144569397,-2.296565294265747,-1.1264973878860474
1772025039466740700,6.14874072265625,-1.146367073059082,-2.3935093879699707,-0.839595377445221
1772025039476738000,6.158738037109375,-1.0545625686645508,-2.1157748699188232,-0.8515049815177917
1772025039486734800,6.16873486328125,-0.8976472616195679,-1.6150825023651123,-1.0320439338684082
1772025039496731600,6.178731689453125,-0.6575137376785278,-0.9054558873176575,-1.2716569900512695
1772025039506729000,6.18872900390625,-0.36658018827438354,-0.06594166159629822,-1.504854679107666
1772025039516725800,6.198725830078125,-0.0698329284787178,0.7475808262825012,-1.6493877172470093
1772025039526722800,6.208722900390625,0.14106082916259766,1.417941689491272,-1.6889269351959229
1772025039536720000,6.218719970703125,0.2783976197242737,1.8241225481033325,-1.6290701627731323
1772025039546716700,6.228716552734375,0.39126935601234436,1.9857778549194336,-1.4813778400421143
1772025039556713700,6.238713623046875,0.5280493497848511,2.000683546066284,-1.2328732013702393
1772025039566710800,6.248710693359375,0.6858661770820618,1.8980340957641602,-0.8997614979743958
1772025039576707800,6.258707763671875,0.8509401082992554,1.6610969305038452,-0.5370743870735168
1772025039586704600,6.26870458984375,0.9911463856697083,1.306341290473938,-0.1768757849931717
1772025039596702000,6.278701904296875,1.0701931715011597,0.8980696797370911,0.18552611768245697
1772025039606698800,6.28869873046875,1.092294454574585,0.48944178223609924,0.5539278984069824
1772025039616695600,6.298695556640625,1.0809805393218994,0.10015206784009933,0.9163532257080078
1772025039626692900,6.30869287109375,1.0239278078079224,-0.25013482570648193,1.261611819267273
1772025039636689700,6.318689697265625,0.9207718372344971,-0.5222158432006836,1.5711560249328613
1772025039646686700,6.328686767578125,0.7968869805335999,-0.6968949437141418,1.803465723991394
1772025039656683800,6.338683837890625,0.6866962909698486,-0.7698248624801636,1.9120594263076782
1772025039666680800,6.348680908203125,0.5934076309204102,-0.7945778965950012,1.858736276626587
1772025039676677600,6.358677734375,0.5018540024757385,-0.8708603978157043,1.6462393999099731
1772025039686675000,6.368675048828125,0.3722757399082184,-1.0749205350875854,1.3104454278945923
1772025039696671700,6.378671630859375,0.2117164134979248,-1.3926122188568115,0.9389424324035645
1772025039706668800,6.388668701171875,0.144897922873497,-1.6120727062225342,0.6978045701980591
1772025039716665900,6.398665771484375,0.2431294173002243,-1.585170865058899,0.73561030626297
1772025039726662700,6.40866259765625,0.4498252272605896,-1.3612234592437744,1.0329049825668335
1772025039736659700,6.41865966796875,0.6122985482215881,-0.9963392019271851,1.4867329597473145
1772025039746656800,6.42865673828125,0.523481011390686,-0.8034899830818176,1.8373091220855713
1772025039756653800,6.43865380859375,0.056928716599941254,-1.2571264505386353,1.868719458580017
1772025039766650600,6.448650634765625,-0.621739387512207,-1.8116775751113892,1.781002163887024
1772025039776647700,6.458647705078125,-1.1522152423858643,-1.734184980392456,1.8146452903747559
1772025039786644700,6.468644775390625,-1.2109686136245728,-0.8191632628440857,1.9010646343231201
1772025039796641800,6.478641845703125,-0.8759623765945435,0.3769232928752899,1.8248900175094604
1772025039806638600,6.488638671875,-0.4950004518032074,1.1506624221801758,1.413719654083252
1772025039816636000,6.498635986328125,-0.18216505646705627,1.301293134689331,0.6486091017723083
1772025039826632700,6.5086328125,-0.05140361562371254,0.9387941956520081,-0.3810439109802246
1772025039836629500,6.51862939453125,-0.10990846902132034,0.20955435931682587,-1.267025351524353
1772025039846626800,6.528626708984375,-0.24398751556873322,-0.5663273930549622,-1.6155879497528076
1772025039856623600,6.53862353515625,-0.3260461986064911,-1.2481613159179688,-1.3489413261413574
1772025039866620700,6.54862060546875,-0.3117917776107788,-1.8515397310256958,-0.6283394694328308
1772025039876617700,6.55861767578125,-0.1700674295425415,-2.2443039417266846,0.3315487504005432
1772025039886614800,6.56861474609375,0.07139299809932709,-2.3883917331695557,1.2179043292999268
1772025039896611600,6.578611572265625,0.2913040518760681,-2.260045289993286,1.7298104763031006
1772025039906609000,6.58860888671875,0.40881118178367615,-1.9224696159362793,1.8273245096206665
1772025039916605700,6.598605712890625,0.41392630338668823,-1.4267349243164062,1.6131672859191895
1772025039926602800,6.608602783203125,0.3460432291030884,-0.8191565871238708,1.1912903785705566
1772025039936599800,6.618599853515625,0.27610382437705994,-0.14321084320545197,0.6726709008216858
1772025039946596900,6.628596923828125,0.23213349282741547,0.5806253552436829,0.14415501058101654
1772025039956593700,6.63859375,0.22238126397132874,1.2246038913726807,-0.36244693398475647
1772025039966590700,6.6485908203125,0.2257956862449646,1.7012131214141846,-0.7959654927253723
1772025039976587800,6.658587890625,0.2616356909275055,1.9890004396438599,-1.0922757387161255
1772025039986584600,6.66858447265625,0.32671356201171875,2.0859487056732178,-1.2148950099945068
1772025039996582000,6.678581787109375,0.4112377464771271,2.0220894813537598,-1.182701587677002
1772025040006578700,6.68857861328125,0.49174728989601135,1.828036904335022,-1.0248644351959229
1772025040016575700,6.69857568359375,0.5165149569511414,1.541486382484436,-0.7913563251495361
1772025040026572800,6.70857275390625,0.48227500915527344,1.1994048357009888,-0.49507513642311096
1772025040036569900,6.71856982421875,0.4169498085975647,0.8273934721946716,-0.16112802922725677
1772025040046566700,6.728566650390625,0.350633829832077,0.4922691583633423,0.16816619038581848
1772025040056564000,6.73856396484375,0.31429019570350647,0.2548763155937195,0.4534471929073334
1772025040066560800,6.748560791015625,0.3019436001777649,0.1281365156173706,0.6803444623947144
1772025040076557600,6.7585576171875,0.2775346636772156,0.0875142514705658,0.8100979328155518
1772025040086555000,6.768554931640625,0.2413330376148224,0.10359350591897964,0.8331171274185181
1772025040096551700,6.7785517578125,0.22855278849601746,0.11931334435939789,0.7385720014572144
1772025040106548700,6.788548828125,0.2616952061653137,0.037712085992097855,0.5646182894706726
1772025040116545800,6.7985458984375,0.2674681544303894,-0.16862857341766357,0.36867350339889526
1772025040126542800,6.80854296875,0.11670688539743423,-0.5386149287223816,0.21768587827682495
1772025040136539600,6.81853955078125,-0.15200288593769073,-0.9867985248565674,0.1507103145122528
1772025040146536700,6.82853662109375,-0.3396357297897339,-1.1975167989730835,0.09513870626688004
1772025040156533800,6.83853369140625,-0.39104220271110535,-0.8830055594444275,-0.003519961144775152
1772025040166530800,6.84853076171875,-0.3466004431247711,0.2813197076320648,-0.10611876845359802
1772025040176527600,6.858527587890625,-0.2318277806043625,1.5646286010742188,-0.15330253541469574
1772025040186524700,6.868524658203125,-0.2945941388607025,1.7700841426849365,-0.23355017602443695
1772025040196521700,6.878521728515625,-0.7831504940986633,0.9123883247375488,-0.5702525973320007
1772025040206518500,6.8885185546875,-1.5250264406204224,-0.5137953162193298,-1.0075619220733643
1772025040216515800,6.898515869140625,-2.02666974067688,-1.2337614297866821,-1.1703358888626099
1772025040226512600,6.9085126953125,-2.0470612049102783,-0.5015864372253418,-1.1331206560134888
1772025040236509700,6.918509765625,-1.8562897443771362,0.6376081705093384,-1.1141853332519531
1772025040246506800,6.9285068359375,-1.740440845489502,1.2914851903915405,-1.3283336162567139
1772025040256503800,6.93850390625,-1.754130244255066,1.5866196155548096,-1.7518638372421265
1772025040266500600,6.94850048828125,-1.7538591623306274,1.4382531642913818,-2.3126776218414307
1772025040276498000,6.958497802734375,-1.7442001104354858,0.7986574172973633,-2.912757635116577
1772025040286494700,6.96849462890625,-1.6789952516555786,-0.0653204619884491,-3.222943067550659
1772025040296491800,6.97849169921875,-1.4733728170394897,-0.9070112109184265,-3.029959201812744
1772025040306488800,6.98848876953125,-1.2271312475204468,-1.588466763496399,-2.460418701171875
1772025040316485600,6.998485595703125,-1.0968925952911377,-2.0518009662628174,-1.7083666324615479
1772025040326482700,7.008482666015625,-1.1219382286071777,-2.2126142978668213,-0.9360331892967224
1772025040336479700,7.018479736328125,-1.2076928615570068,-2.085064649581909,-0.3228490948677063
1772025040346476800,7.028476806640625,-1.2634189128875732,-1.765192985534668,-0.03758006915450096
1772025040356473600,7.0384736328125,-1.241086483001709,-1.3043222427368164,-0.08842993527650833
1772025040366471000,7.048470947265625,-1.151197075843811,-0.7160688042640686,-0.3856883943080902
1772025040376467700,7.0584677734375,-0.9884622693061829,-0.08305968344211578,-0.8105813264846802
1772025040386464800,7.06846484375,-0.7680676579475403,0.4833054840564728,-1.2542675733566284
1772025040396461800,7.0784619140625,-0.4832649528980255,0.9105370044708252,-1.6164546012878418
1772025040406459000,7.088458984375,-0.11422529071569443,1.1363271474838257,-1.832594633102417
1772025040416455700,7.09845556640625,0.23600809276103973,1.1459691524505615,-1.8743647336959839
1772025040426452700,7.10845263671875,0.4362980127334595,0.9339139461517334,-1.7107793092727661
1772025040436449800,7.11844970703125,0.5206954479217529,0.607957661151886,-1.3421657085418701
1772025040446446600,7.128446533203125,0.5797399282455444,0.2270691990852356,-0.7992408275604248
1772025040456444000,7.13844384765625,0.6359539031982422,-0.15334472060203552,-0.18588098883628845
1772025040466440700,7.148440673828125,0.7098830342292786,-0.4583134651184082,0.4066011309623718
1772025040476437800,7.158437744140625,0.8128277659416199,-0.6511814594268799,0.9053336977958679
1772025040486434800,7.168434814453125,0.9456909894943237,-0.7421349287033081,1.2840849161148071
1772025040496431900,7.178431884765625,1.0819649696350098,-0.7665079236030579,1.528044581413269
1772025040506428700,7.1884287109375,1.1870949268341064,-0.7386152744293213,1.6294487714767456
1772025040516425700,7.19842578125,1.2528339624404907,-0.6707781553268433,1.6167576313018799
1772025040526422800,7.2084228515625,1.2782588005065918,-0.5759338140487671,1.5084902048110962
1772025040536420000,7.218420166015625,1.249398112297058,-0.44165298342704773,1.3195158243179321
1772025040546417000,7.2284169921875,1.1715505123138428,-0.28634390234947205,1.071437954902649
1772025040556414200,7.238414306640625,1.0667870044708252,-0.11172495037317276,0.7922236919403076
1772025040566411000,7.248410888671875,0.991118311882019,0.03438306227326393,0.5315183401107788
1772025040576408000,7.258407958984375,0.9027509093284607,0.05333571508526802,0.31665265560150146
1772025040586405000,7.268405029296875,0.8234153389930725,0.015271213836967945,0.18249498307704926
1772025040596402000,7.27840185546875,0.8027206659317017,-0.05526793375611305,0.16629737615585327
1772025040606399000,7.28839892578125,0.7738499045372009,0.011476044543087482,0.37895894050598145
1772025040616396000,7.29839599609375,0.5321118235588074,-0.19516634941101074,0.632591187953949
1772025040626393000,7.30839306640625,-0.1811419278383255,-1.0972213745117188,0.5864102840423584
1772025040636390000,7.318389892578125,-1.0135879516601562,-2.367493152618408,0.34105274081230164
1772025040646387200,7.32838720703125,-1.5619310140609741,-3.2090747356414795,0.2572534680366516
1772025040656384000,7.338384033203125,-1.5946404933929443,-2.49843168258667,0.4583554267883301
1772025040666381000,7.348381103515625,-1.0726423263549805,-0.7287710905075073,0.8546122312545776
1772025040676378000,7.358378173828125,-0.44314026832580566,0.8181909918785095,1.2284432649612427
1772025040686375200,7.368375244140625,-0.21469548344612122,1.7139812707901,1.1650500297546387
1772025040696372000,7.3783720703125,-0.2515147626399994,1.924766182899475,0.648608922958374
1772025040706369000,7.388369140625,-0.2873011827468872,1.5405315160751343,-0.09606029093265533
1772025040716366000,7.398365966796875,-0.4312836527824402,0.8781567215919495,-0.8360350728034973
1772025040726363000,7.40836279296875,-0.6891247630119324,0.17043548822402954,-1.2599650621414185
1772025040736360200,7.418360107421875,-0.9247658252716064,-0.5230420827865601,-1.2059812545776367
1772025040746357000,7.42835693359375,-1.1051805019378662,-1.2229949235916138,-0.7931979298591614
1772025040756354000,7.43835400390625,-1.2575626373291016,-1.761138916015625,-0.21581391990184784
1772025040766351000,7.44835107421875,-1.3305552005767822,-1.9179019927978516,0.36688604950904846
1772025040776348200,7.45834814453125,-1.2703059911727905,-1.7254811525344849,0.8450259566307068
1772025040786345000,7.468344970703125,-1.1015427112579346,-1.3572949171066284,1.101004958152771
1772025040796342000,7.478342041015625,-0.9115326404571533,-0.9408119320869446,1.1611360311508179
1772025040806339000,7.488339111328125,-0.760811448097229,-0.6015478372573853,1.111756682395935
1772025040816336100,7.498336181640625,-0.5594519972801208,-0.39937663078308105,0.9787626266479492
1772025040826333000,7.5083330078125,-0.2636163532733917,-0.5606614947319031,0.9532676935195923
1772025040836330000,7.518330078125,-0.12352955341339111,-0.4720722734928131,0.8686662316322327
1772025040846327000,7.5283271484375,-0.20224851369857788,-0.2937523126602173,0.6607187986373901
1772025040856323800,7.53832373046875,-0.4391382932662964,-0.2626420557498932,0.33876150846481323
1772025040866321200,7.548321044921875,-0.7796577215194702,-0.4620138704776764,-0.017735542729496956
1772025040876318000,7.55831787109375,-1.116442322731018,-0.7619646191596985,-0.2903982400894165
1772025040886315000,7.56831494140625,-1.2874891757965088,-0.9156355261802673,-0.38862067461013794
1772025040896312000,7.57831201171875,-1.1629531383514404,-0.9411584734916687,-0.3215242028236389
1772025040906309000,7.58830908203125,-0.7654532790184021,-0.9673082232475281,-0.17991052567958832
1772025040916306000,7.598305908203125,-0.208643838763237,-0.9881226420402527,-0.010495666414499283
1772025040926303200,7.60830322265625,0.37859997153282166,-0.7153871655464172,0.17636384069919586
1772025040936300000,7.618300048828125,0.9001180529594421,-0.14017364382743835,0.30745047330856323
1772025040946296800,7.628296875,1.2446906566619873,0.5558308362960815,0.28571510314941406
1772025040956294100,7.638294189453125,1.3703564405441284,1.209857702255249,0.14028336107730865
1772025040966291000,7.648291015625,1.3740800619125366,1.664818525314331,-0.011796202510595322
1772025040976288000,7.6582880859375,1.3843251466751099,1.8642375469207764,-0.1556580364704132
1772025040986285000,7.66828515625,1.3566800355911255,1.7687715291976929,-0.2778322994709015
1772025040996282000,7.6782822265625,1.2870208024978638,1.508591890335083,-0.27938252687454224
1772025041006279000,7.68827880859375,1.2502251863479614,1.4761208295822144,-0.06262277811765671
1772025041016276200,7.698276123046875,1.285735845565796,1.9272733926773071,0.22150056064128876
1772025041026273000,7.70827294921875,1.2614721059799194,2.5101699829101562,0.5753790736198425
1772025041036270000,7.71827001953125,1.4372700452804565,2.9029202461242676,0.9982797503471375
1772025041046267100,7.72826708984375,1.7911059856414795,3.100694179534912,1.246630072593689
1772025041056264000,7.738263916015625,1.9703468084335327,3.216421604156494,1.206862211227417
1772025041066261000,7.748260986328125,1.9356234073638916,3.3749852180480957,1.128856897354126
1772025041076258000,7.758258056640625,1.7930822372436523,3.4081225395202637,1.1088038682937622
1772025041086255000,7.768255126953125,1.6102681159973145,3.110302448272705,1.006211519241333
1772025041096252000,7.778251953125,1.4671679735183716,2.774888753890991,0.9485279321670532
1772025041106249200,7.788249267578125,1.3409595489501953,2.6846113204956055,1.250210165977478
1772025041116246000,7.79824609375,1.2407588958740234,2.8270630836486816,1.6147894859313965
1772025041126243000,7.8082431640625,1.1327259540557861,2.838900327682495,1.6890532970428467
1772025041136240000,7.818240234375,1.184043288230896,2.8466076850891113,1.515143632888794
1772025041146237200,7.8282373046875,1.4434500932693481,2.9055609703063965,1.0704888105392456
1772025041156234000,7.83823388671875,1.7715818881988525,2.7609825134277344,0.39840254187583923
1772025041166231000,7.84823095703125,2.08642840385437,2.2642252445220947,-0.22319947183132172
1772025041176228000,7.85822802734375,2.2542524337768555,1.6998672485351562,-0.7411782145500183
1772025041186225000,7.868224853515625,2.2849392890930176,1.0910333395004272,-1.0923906564712524
1772025041196222000,7.878221923828125,2.25614333152771,0.3328508734703064,-1.285434365272522
1772025041206219000,7.888218994140625,2.172013282775879,-0.5726414322853088,-1.3766387701034546
1772025041216216000,7.898216064453125,2.042908191680908,-1.4390623569488525,-1.4456040859222412
1772025041226212900,7.908212890625,1.8397557735443115,-2.1447815895080566,-1.582743763923645
1772025041236210200,7.918210205078125,1.4791646003723145,-2.617403507232666,-1.814199447631836
1772025041246207000,7.92820703125,0.9437305331230164,-2.6598196029663086,-2.0536787509918213
1772025041256204000,7.9382041015625,0.4581356346607208,-2.3165671825408936,-2.203418493270874
1772025041266201000,7.948201171875,0.2599771022796631,-1.8095158338546753,-2.2262818813323975
1772025041276198100,7.9581982421875,-0.258141428232193,-0.9450721740722656,-1.8227839469909668
1772025041286195000,7.96819482421875,-0.039043597877025604,-0.36907958984375,-1.681572437286377
1772025041296192000,7.97819189453125,-0.132232666015625,0.3136686384677887,-1.1223586797714233
1772025041306189000,7.98818896484375,-0.009962574578821659,0.5225398540496826,-0.8550292253494263
1772025041316185900,7.998185791015625,0.2010660469532013,0.8084664344787598,-0.9035823941230774
1772025041326183200,8.00818310546875,0.10706149786710739,1.1644020080566406,-1.033093810081482
1772025041336180000,8.018179931640624,0.3884577453136444,1.3804898262023926,-1.2966411113739014
1772025041346177000,8.028177001953125,0.7139625549316406,1.5390522480010986,-1.4399181604385376
1772025041356174000,8.038174072265624,0.8709665536880493,1.6425490379333496,-1.4088367223739624
1772025041366171100,8.048171142578125,0.8467881083488464,1.7977951765060425,-1.333953619003296
1772025041376168000,8.05816796875,0.713005006313324,1.6157883405685425,-1.2728503942489624
1772025041386165200,8.068165283203125,0.5371527075767517,0.7714221477508545,-1.1171694993972778
1772025041396162000,8.078162109375,0.30885833501815796,-0.44848883152008057,-0.6411930918693542
1772025041406158800,8.088158935546875,0.06537347286939621,-1.2792702913284302,0.06115208938717842
1772025041416156200,8.09815625,-0.16921693086624146,-1.4898877143859863,0.616032600402832
1772025041426153000,8.108153076171876,-0.24034838378429413,-1.0405193567276,0.8278068900108337
1772025041436150000,8.11814990234375,-0.08514415472745895,-0.5102421045303345,0.9375113248825073
1772025041446147000,8.12814697265625,0.05444520339369774,0.0743485763669014,1.1126688718795776
1772025041456144100,8.13814404296875,-0.011552456766366959,0.8656211495399475,1.500810146331787
1772025041466141000,8.148140869140626,0.15324467420578003,1.0148367881774902,1.379915714263916
1772025041476138200,8.15813818359375,0.2310856729745865,0.6827324032783508,1.2667678594589233
1772025041486135000,8.168135009765624,0.19224415719509125,0.5081888437271118,0.8725612759590149
1772025041496132000,8.178132080078125,0.2947723865509033,1.0199298858642578,0.1913219839334488
1772025041506129200,8.188129150390624,0.4186599850654602,1.492470145225525,-0.4418708086013794
1772025041516126000,8.1981259765625,0.4316208064556122,1.7302662134170532,-0.7955745458602905
1772025041526123000,8.208123046875,0.36394020915031433,1.5493711233139038,-0.8518035411834717
1772025041536120000,8.2181201171875,0.21500906348228455,1.0109117031097412,-0.7614022493362427
1772025041546117400,8.228117431640625,0.11454864591360092,0.06810657680034637,-0.35284751653671265
1772025041556114200,8.2381142578125,-0.10388542711734772,-0.49232450127601624,0.5915493369102478
1772025041566111200,8.248111328125,-0.716947078704834,-0.5988069772720337,1.9691663980484009
1772025041576108300,8.2581083984375,-1.5776342153549194,-0.655342698097229,3.1079978942871094
1772025041586105300,8.268105224609375,-1.6231356859207153,0.7201208472251892,2.4744982719421387
1772025041596102100,8.27810205078125,-0.9080724716186523,0.3492905795574188,0.8669952750205994
1772025041606099200,8.28809912109375,-0.7192462682723999,-1.507154107093811,-0.3573378622531891
1772025041616096300,8.29809619140625,-0.9220665097236633,-2.199944019317627,-1.473071813583374
1772025041626093000,8.308093017578125,-1.1948236227035522,-1.7164732217788696,-2.5150132179260254
1772025041636090400,8.31809033203125,-1.2773081064224243,-1.1265140771865845,-3.3845455646514893
1772025041646087200,8.328087158203125,-1.1574870347976685,-0.5365998148918152,-3.8819706439971924
1772025041656084200,8.338084228515624,-0.9538098573684692,-0.19098782539367676,-3.781292200088501
1772025041666081300,8.348081298828125,-0.6831153631210327,-0.03219784423708916,-3.1954691410064697
1772025041676078300,8.358078369140625,-0.23243629932403564,0.16780954599380493,-2.4088661670684814
1772025041686075100,8.3680751953125,0.45432761311531067,0.45492297410964966,-1.7373418807983398
1772025041696072400,8.378072509765625,1.2968541383743286,0.8384133577346802,-1.4184967279434204
1772025041706069200,8.3880693359375,2.0705864429473877,1.137528419494629,-1.3576269149780273
1772025041716066300,8.39806640625,2.4051764011383057,1.030295491218567,-1.3116986751556396
1772025041726063400,8.4080634765625,2.217528820037842,0.283993661403656,-1.1979187726974487
1772025041736060200,8.41806005859375,1.7409148216247559,-0.5480900406837463,-1.006850242614746
1772025041746057200,8.42805712890625,1.1863476037979126,-0.8474324941635132,-0.7371233701705933
1772025041756054300,8.43805419921875,0.6732896566390991,-0.8155912160873413,-0.4485522508621216
1772025041766051300,8.44805126953125,0.3843801021575928,-1.0170422792434692,-0.14477753639221191
1772025041776048000,8.458048095703125,0.20056287944316864,-1.0428144931793213,0.13293850421905518
1772025041786045400,8.46804541015625,0.06541667133569717,-0.667519211769104,0.3953913152217865
1772025041796042200,8.478042236328125,-0.02956337481737137,-0.3724265694618225,0.6888378262519836
1772025041806039300,8.488039306640625,-0.10538330674171448,-0.17421016097068787,0.9963400363922119
1772025041816036400,8.498036376953126,-0.19087423384189606,0.049992047250270844,1.2716737985610962
1772025041826033400,8.508033447265625,-0.3197648525238037,0.46421948075294495,1.502518892288208
1772025041836030200,8.5180302734375,-0.5400876402854919,0.9674897789955139,1.7063047885894775
1772025041846027000,8.528027099609375,-0.8738362789154053,1.4997614622116089,1.9350773096084595
1772025041856024300,8.5380244140625,-1.0735406875610352,1.8061224222183228,2.170198678970337
1772025041866021000,8.548021240234375,-0.7894688248634338,1.7187926769256592,2.334404230117798
1772025041876018200,8.55801806640625,-0.2901897728443146,1.27053701877594,2.2451560497283936
1772025041886015200,8.56801513671875,-0.0552404448390007,0.5270879864692688,1.9236505031585693
1772025041896012300,8.57801220703125,-0.05203000456094742,-0.10048115253448486,1.561819314956665
1772025041906009000,8.588009033203125,0.057822637259960175,-0.5521431565284729,1.0280007123947144
1772025041916006400,8.59800634765625,0.20421180129051208,-0.8042105436325073,0.19258761405944824
1772025041926003200,8.608003173828125,0.21046137809753418,-0.677749514579773,-0.017993738874793053
1772025041936000300,8.618000244140624,0.31599047780036926,-0.7127708792686462,-0.24725861847400665
1772025041945997300,8.627997314453125,0.4485814571380615,-0.7398594617843628,-0.4103124439716339
1772025041955994000,8.637994140625,0.5741825699806213,-0.24612511694431305,-0.22606590390205383
1772025041965991200,8.6479912109375,0.3931494355201721,0.5410577654838562,0.3200280964374542
1772025041975988200,8.65798828125,-0.07827533036470413,0.8238831162452698,0.9899089932441711
1772025041985985300,8.6679853515625,-0.29200980067253113,0.7969731688499451,1.2663118839263916
1772025041995982000,8.677982177734375,-0.05375169962644577,0.7856118679046631,1.0165880918502808
1772025042005979400,8.6879794921875,0.04081151634454727,0.4300090968608856,0.46453967690467834
1772025042015976200,8.69797607421875,-0.10244950652122498,-0.04448605328798294,-0.05835627019405365
1772025042025973200,8.70797314453125,-0.1694515496492386,-0.2903592884540558,-0.2570604979991913
1772025042035970300,8.71797021484375,-0.20906846225261688,-0.350714772939682,-0.1246744766831398
1772025042045967400,8.72796728515625,-0.33264434337615967,-0.31957152485847473,0.1174071729183197
1772025042055964200,8.737964111328125,-0.5800014138221741,-0.3170183598995209,0.20940421521663666
1772025042065961500,8.74796142578125,-0.8642668128013611,-0.3614371120929718,0.027969110757112503
1772025042075958300,8.757958251953125,-1.070814847946167,-0.5059452652931213,-0.35405948758125305
1772025042085955000,8.767955078125,-1.2261520624160767,-0.7917030453681946,-0.6806452870368958
1772025042095952400,8.777952392578126,-1.3476529121398926,-1.035634160041809,-0.7535072565078735
1772025042105949200,8.78794921875,-1.3371731042861938,-1.1355081796646118,-0.5976769328117371
1772025042115946200,8.7979462890625,-1.1624006032943726,-1.1726012229919434,-0.41213399171829224
1772025042125943300,8.807943359375,-0.849162220954895,-1.1162209510803223,-0.46778541803359985
1772025042135940400,8.8179404296875,-0.4699866771697998,-0.8963093161582947,-0.8475713133811951
1772025042145937200,8.827937255859375,-0.12806473672389984,-0.6187535524368286,-1.3501172065734863
1772025042155934200,8.837934326171874,0.10691741108894348,-0.36118432879447937,-1.6484546661376953
1772025042165931300,8.84793115234375,0.2932419776916504,-0.1033555120229721,-1.5594433546066284
1772025042175928300,8.85792822265625,0.32625558972358704,-0.01690211519598961,-1.1747592687606812
1772025042185925000,8.867925048828125,0.24203982949256897,-0.026162251830101013,-0.6380249261856079
1772025042195922200,8.877922119140624,0.15627166628837585,-0.11112082004547119,-0.01381643395870924
1772025042205919200,8.887919189453125,0.10632123053073883,-0.09202331304550171,0.6008844971656799
1772025042215916000,8.897916015625,0.095613993704319,-0.05876335874199867,1.1113005876541138
1772025042225913300,8.907913330078125,0.0744771733880043,-0.060660190880298615,1.4352145195007324
1772025042235910100,8.91791015625,0.02516501396894455,-0.0607595257461071,1.5219765901565552
1772025042245907200,8.9279072265625,-0.037511590868234634,-0.00867627002298832,1.4144357442855835
1772025042255904300,8.937904296875,-0.07872001081705093,0.03308236226439476,1.1799465417861938
1772025042265901300,8.9479013671875,-0.08373948186635971,0.06170094385743141,0.8939734697341919
1772025042275898000,8.957898193359375,-0.04311269149184227,0.11327598243951797,0.632677435874939
1772025042285895400,8.9678955078125,0.025546738877892494,0.16573840379714966,0.4374915361404419
1772025042295892200,8.977892333984375,0.1178167462348938,0.2183866947889328,0.35555753111839294
1772025042305889000,8.987888916015624,0.22461551427841187,0.2697468101978302,0.39377743005752563
1772025042315886300,8.99788623046875,0.3192211389541626,0.3023553490638733,0.5045270919799805
1772025042325883100,9.007883056640624,0.37705284357070923,0.28329241275787354,0.6267326474189758
1772025042335880200,9.017880126953125,0.38689136505126953,0.19405654072761536,0.692913293838501
1772025042345877200,9.027877197265624,0.3536917567253113,0.056171827018260956,0.6777650713920593
1772025042355874300,9.037874267578125,0.3135342001914978,-0.05319540947675705,0.5794158577919006
1772025042365871000,9.04787109375,0.2983524203300476,-0.07780005037784576,0.4429146349430084
1772025042375868400,9.057868408203126,0.3404971957206726,-0.017812613397836685,0.3480035662651062
1772025042385865200,9.067865234375,0.4284031093120575,0.10815683007240295,0.37596797943115234
1772025042395862300,9.0778623046875,0.5332556962966919,0.22983558475971222,0.4902104139328003
1772025042405859300,9.087859375,0.618041455745697,0.2946509122848511,0.5019612908363342
1772025042415856400,9.0978564453125,0.5341862440109253,0.3037605285644531,0.29906174540519714
1772025042425853200,9.107853271484375,0.25038832426071167,0.2536769211292267,-0.1691560596227646
1772025042435850200,9.117850341796874,-0.007921536453068256,0.060252588242292404,-0.9075872302055359
1772025042445847300,9.127847412109375,-0.01633298210799694,-0.07000377029180527,-1.661972165107727
1772025042455844000,9.137843994140624,0.17033728957176208,-0.034500375390052795,-2.1266069412231445
1772025042465841400,9.14784130859375,0.2639182209968567,-0.06090440973639488,-2.0428922176361084
1772025042475838200,9.157838134765624,0.2875676155090332,-0.15507617592811584,-1.0947411060333252
1772025042485835300,9.167835205078125,0.36431482434272766,-0.13728348910808563,0.12503142654895782
1772025042495832300,9.177832275390625,0.4284261465072632,0.08586357533931732,0.9068279266357422
1772025042505829400,9.187829345703125,0.4880373477935791,0.3600524067878723,1.1953374147415161
1772025042515826200,9.197826171875,0.5006556510925293,0.5915237069129944,1.058831810951233
1772025042525823200,9.2078232421875,0.4825328588485718,0.8155004382133484,0.5494227409362793
1772025042535820000,9.217820068359375,0.396140992641449,0.962938129901886,-0.03310354799032211
1772025042545817000,9.227817138671876,0.24961966276168823,0.94209223985672,-0.36026933789253235
1772025042555814100,9.237814208984375,0.12632861733436584,0.8797351121902466,-0.37208470702171326
1772025042565811200,9.247811279296876,0.02836456149816513,0.8605654835700989,-0.19801050424575806
1772025042575808000,9.25780810546875,-0.11836495995521545,0.8414269089698792,-0.07695172727108002
1772025042585805000,9.26780517578125,-0.30643585324287415,0.775992214679718,-0.1277419775724411
1772025042595802000,9.277802001953125,-0.47530582547187805,0.6102032661437988,-0.35838744044303894
1772025042605799200,9.287799072265624,-0.5781376957893372,0.35918694734573364,-0.675680935382843
1772025042615796000,9.2977958984375,-0.5891048312187195,0.07355545461177826,-0.9392483830451965
1772025042625793300,9.307793212890624,-0.5468013286590576,-0.20667868852615356,-1.0147360563278198
1772025042635790000,9.3177900390625,-0.5066062211990356,-0.47654905915260315,-0.8552660942077637
1772025042645785000,9.32778515625,-0.4928300082683563,-0.6787362098693848,-0.4912773370742798
1772025042655782100,9.3377822265625,-0.48017680644989014,-0.8088704943656921,-0.03993437811732292
1772025042665779200,9.347779296875,-0.4346727430820465,-0.8470118045806885,0.3831132650375366
1772025042675776000,9.35777587890625,-0.371580570936203,-0.7981765866279602,0.6872252225875854
1772025042685773000,9.36777294921875,-0.3228839039802551,-0.6803293824195862,0.850225031375885
1772025042695770000,9.37777001953125,-0.28244006633758545,-0.5138506293296814,0.8307781219482422
1772025042705767200,9.38776708984375,-0.2247171252965927,-0.35522815585136414,0.6411798596382141
1772025042715764000,9.397763916015625,-0.1557345986366272,-0.19204136729240417,0.3790307641029358
1772025042725761300,9.40776123046875,-0.09230080246925354,-0.03231661766767502,0.15949800610542297
1772025042735758000,9.417758056640626,-0.030168455094099045,0.08769527822732925,0.06941525638103485
1772025042745755100,9.427755126953125,0.026386689394712448,0.19945760071277618,0.13141855597496033
1772025042755752200,9.437752197265626,0.0932951495051384,0.3105449676513672,0.3147340714931488
1772025042765749200,9.447749267578125,0.15814155340194702,0.41326019167900085,0.5709826350212097
1772025042775746000,9.45774609375,0.21319228410720825,0.4755512773990631,0.8381426930427551
1772025042785743400,9.467743408203125,0.24806824326515198,0.475937157869339,1.0688096284866333
1772025042795740200,9.477740234375,0.2486962080001831,0.4222438335418701,1.229381799697876
1772025042805737000,9.487737060546875,0.23739327490329742,0.3026958703994751,1.3026559352874756
1772025042815734300,9.497734375,0.23312503099441528,0.1334187090396881,1.2810465097427368
1772025042825731000,9.50773095703125,0.2354373037815094,-0.06293480843305588,1.1760798692703247
1772025042835728100,9.51772802734375,0.30055558681488037,-0.3079480230808258,0.9745328426361084
1772025042845725200,9.52772509765625,0.4510181248188019,-0.4906682074069977,0.7169591188430786
1772025042855722200,9.53772216796875,0.6337863802909851,-0.5623192191123962,0.4155833125114441
1772025042865719000,9.547718994140626,0.7548016309738159,-0.7030925750732422,0.15148140490055084
1772025042875716000,9.557716064453125,0.6904658079147339,-0.953265368938446,0.00391804613173008
1772025042885713200,9.567713134765626,0.4537501633167267,-1.099764347076416,-0.0032116398215293884
1772025042895710200,9.577710205078125,0.2971504330635071,-0.8943042159080505,0.05406763032078743
1772025042905707000,9.58770703125,0.35013073682785034,-0.3691038191318512,-0.12319598346948624
1772025042915704000,9.5977041015625,0.37140727043151855,-0.19735495746135712,-0.525641679763794
1772025042925701000,9.607701171875,0.4233752191066742,0.03683621436357498,-0.8845152258872986
1772025042935698000,9.617697998046875,0.5036394596099854,0.29345494508743286,-0.8201647400856018
1772025042945695200,9.6276953125,0.4959382712841034,0.44961050152778625,-0.4023700952529907
1772025042955692000,9.637692138671875,0.4139765799045563,0.7329407334327698,0.021866129711270332
1772025042965689000,9.647689208984374,0.34471720457077026,1.0376372337341309,0.1802550107240677
1772025042975686100,9.65768603515625,0.34553852677345276,1.2034053802490234,0.010472368448972702
1772025042985683200,9.66768310546875,0.3432738482952118,1.2580050230026245,-0.3290828466415405
1772025042995680000,9.677679931640625,0.21125830709934235,1.1211682558059692,-0.5493017435073853
1772025043005677300,9.68767724609375,0.056856054812669754,0.8498501181602478,-0.5464734435081482
1772025043015674000,9.697674072265626,-0.013996814377605915,0.610736072063446,-0.4044063091278076
1772025043025671000,9.7076708984375,0.004870941396802664,0.45466652512550354,-0.24089846014976501
1772025043035668200,9.717668212890626,0.07418157160282135,0.391606867313385,-0.18499737977981567
1772025043045665000,9.7276650390625,0.13947321474552155,0.38359326124191284,-0.3263157606124878
1772025043055662000,9.737662109375,0.1295822411775589,0.4037283658981323,-0.6673904657363892
1772025043065659100,9.7476591796875,0.05150116607546806,0.44674983620643616,-1.020080327987671
1772025043075656200,9.75765625,-0.05440715700387955,0.4351949095726013,-1.2270729541778564
1772025043085653000,9.767653076171875,-0.16245557367801666,0.29212939739227295,-1.2236086130142212
1772025043095650300,9.777650390625,-0.2635885775089264,0.016836848109960556,-1.0166912078857422
1772025043105647000,9.787647216796875,-0.3323158919811249,-0.2579186260700226,-0.7053413391113281
1772025043115644200,9.79764404296875,-0.3713269531726837,-0.3940463662147522,-0.34899577498435974
1772025043125641200,9.80764111328125,-0.3918585181236267,-0.4001321494579315,-0.013315722346305847
1772025043135638300,9.81763818359375,-0.4057176113128662,-0.3530533015727997,0.25204724073410034
1772025043145635000,9.827635009765626,-0.4211704730987549,-0.30290281772613525,0.39819228649139404
1772025043155632000,9.837632080078125,-0.42085275053977966,-0.26186323165893555,0.383777379989624
1772025043165629200,9.847629150390626,-0.4285876750946045,-0.24964043498039246,0.259054034948349
1772025043175626000,9.8576259765625,-0.43348655104637146,-0.26236099004745483,0.08619678020477295
1772025043185623300,9.867623291015626,-0.43046775460243225,-0.2691473662853241,-0.05337223783135414
1772025043195620000,9.8776201171875,-0.40868014097213745,-0.27693018317222595,-0.12420859187841415
1772025043205617200,9.8876171875,-0.38295143842697144,-0.2841408848762512,-0.11464802175760269
1772025043215614200,9.8976142578125,-0.35334667563438416,-0.28476834297180176,-0.028618864715099335
1772025043225611300,9.907611328125,-0.31400009989738464,-0.3008269667625427,0.10648263990879059
1772025043235608000,9.917608154296875,-0.2582028806209564,-0.33092203736305237,0.25504282116889954
1772025043245605000,9.927605224609374,-0.20698072016239166,-0.3421417772769928,0.3882233500480652
1772025043255602200,9.937602294921875,-0.16757339239120483,-0.3239228129386902,0.49244803190231323
1772025043265599000,9.947598876953125,-0.13425207138061523,-0.30949515104293823,0.5541574358940125
1772025043275596000,9.957595947265625,-0.08250018954277039,-0.2873712182044983,0.5856000781059265
1772025043285593000,9.967593017578125,-0.03360876068472862,-0.24546611309051514,0.6220855116844177
1772025043295590100,9.977590087890626,-0.045719485729932785,-0.23009860515594482,0.6450664401054382
1772025043305587000,9.9875869140625,-0.06449848413467407,-0.19120517373085022,0.64509117603302
1772025043315584300,9.997584228515626,-0.0861118957400322,-0.13118310272693634,0.665802538394928
1772025043325581000,10.0075810546875,-0.18046271800994873,-0.1363372802734375,0.671608567237854
1772025043335578000,10.017578125,-0.26197195053100586,-0.06847912818193436,0.4755961298942566
1772025043345575200,10.0275751953125,-0.21051877737045288,0.2832968831062317,0.029626164585351944
1772025043355572200,10.037572265625,-0.05310571566224098,0.7096530199050903,-0.5641705989837646
1772025043365569000,10.047569091796875,0.07049451768398285,0.7100633978843689,-1.021048665046692
1772025043375567000,10.057567138671875,0.28365471959114075,0.5205587148666382,-1.0013549327850342
1772025043385564200,10.067564208984376,0.5442168116569519,0.48800018429756165,-0.4116276502609253
1772025043395561200,10.077561279296875,0.6157525181770325,0.5773180723190308,0.3705403506755829
1772025043405558000,10.08755810546875,0.5348962545394897,0.728350043296814,0.8492506146430969
1772025043415555300,10.097555419921875,0.39280006289482117,0.7386929392814636,0.8065375089645386
1772025043425552100,10.10755224609375,0.23197674751281738,0.5582404732704163,0.354036808013916
1772025043435549000,10.117548828125,0.1930362731218338,0.34822148084640503,-0.3550897538661957
1772025043445546200,10.127546142578124,0.22780287265777588,0.07869667559862137,-1.0639855861663818
1772025043455543000,10.13754296875,0.18989038467407227,-0.3098665177822113,-1.4997458457946777
1772025043465540000,10.1475400390625,0.11455636471509933,-0.6978464722633362,-1.621812343597412
1772025043475537200,10.157537109375,0.05676257610321045,-0.9973778128623962,-1.5272091627120972
1772025043485534200,10.1675341796875,0.02405037172138691,-1.1654716730117798,-1.3060482740402222
1772025043495531000,10.177531005859375,0.002339218044653535,-1.1287012100219727,-1.0368140935897827
1772025043505528300,10.1875283203125,0.03733124956488609,-0.833342432975769,-0.7768576741218567
1772025043515525000,10.197525146484375,0.10207722336053848,-0.3792284429073334,-0.5002316832542419
1772025043525522200,10.207522216796875,0.16434402763843536,0.14752516150474548,-0.15203632414340973
1772025043535519200,10.217519287109376,0.1851382553577423,0.608762264251709,0.2869250774383545
1772025043545516300,10.227516357421875,0.1360168159008026,0.9108487963676453,0.7634909749031067
1772025043555513000,10.23751318359375,0.00005205452907830477,0.9936912655830383,1.2314738035202026
1772025043565510400,10.247510498046875,-0.19875937700271606,0.8730490207672119,1.609980583190918
1772025043575507200,10.257507080078126,-0.36987999081611633,0.6771945357322693,1.8401496410369873
1772025043585504300,10.267504150390625,-0.47546058893203735,0.5460680723190308,1.8823387622833252
1772025043595501300,10.277501220703124,-0.5037039518356323,0.5439178347587585,1.7720228433609009
1772025043605498400,10.287498291015625,-0.46906474232673645,0.618047833442688,1.5664438009262085
1772025043615495200,10.2974951171875,-0.38629475235939026,0.7098307609558105,1.3077192306518555
1772025043625492200,10.3074921875,-0.27893775701522827,0.7570163607597351,1.0321447849273682
1772025043635489300,10.3174892578125,-0.184221088886261,0.7415415644645691,0.7695270776748657
1772025043645486300,10.327486328125,-0.10290682315826416,0.604139506816864,0.538573682308197
1772025043655483100,10.337483154296875,-0.05040552467107773,0.41252562403678894,0.36482056975364685
1772025043665480200,10.347480224609376,-0.013950932770967484,0.2662752866744995,0.2610184848308563
1772025043675477200,10.357477294921875,0.023163678124547005,0.1629810929298401,0.24452154338359833
1772025043685474000,10.36747412109375,0.06371983140707016,0.07004524767398834,0.2789258062839508
1772025043695471400,10.377471435546875,0.12344042211771011,-0.015797218307852745,0.34587952494621277
1772025043705468200,10.38746826171875,0.2032344490289688,-0.11051022261381149,0.4113938808441162
1772025043715465200,10.39746533203125,0.2956242859363556,-0.22009770572185516,0.4387592077255249
1772025043725462300,10.407462158203124,0.3884819447994232,-0.34414979815483093,0.3723854422569275
1772025043735459300,10.417459228515625,0.4918605089187622,-0.5227842926979065,0.21509355306625366
1772025043745456000,10.4274560546875,0.5638721585273743,-0.7563198804855347,0.023060083389282227
1772025043755453400,10.437453369140625,0.5744832754135132,-0.9516331553459167,-0.17986266314983368
1772025043765450200,10.4474501953125,0.516923725605011,-1.1032730340957642,-0.3703118860721588
1772025043775447000,10.457447021484375,0.37675678730010986,-1.2101476192474365,-0.47953078150749207
1772025043785444400,10.4674443359375,0.2467948943376541,-1.139378309249878,-0.48968812823295593
1772025043795441200,10.477441162109375,0.20086762309074402,-0.6997010707855225,-0.4942115247249603
1772025043805438200,10.487438232421875,0.2668479084968567,-0.026216570287942886,-0.697758674621582
1772025043815435300,10.497435302734376,0.3508448004722595,0.3982771933078766,-1.0097628831863403
1772025043825432300,10.507432373046875,0.3300010859966278,0.41253069043159485,-1.0266574621200562
1772025043835429000,10.51742919921875,0.32935261726379395,0.3700159788131714,-0.39219075441360474
1772025043845426400,10.527426513671875,0.34448474645614624,0.37400537729263306,0.681388258934021
1772025043855423200,10.53742333984375,0.4008449614048004,0.5987095832824707,1.482130765914917
1772025043865420300,10.547420166015625,0.449003666639328,0.9992249608039856,1.6601524353027344
1772025043875417300,10.557417236328124,0.5254380106925964,1.3014426231384277,1.3116804361343384
1772025043885414400,10.567414306640625,0.6236980557441711,1.3992483615875244,0.5858572125434875
1772025043895411200,10.5774111328125,0.6572567820549011,1.336579442024231,-0.28670862317085266
1772025043905408300,10.587408203125,0.5202282667160034,1.1568975448608398,-0.9460259675979614
1772025043915405300,10.5974052734375,0.2692924439907074,0.9528759121894836,-1.1978551149368286
1772025043925402000,10.607402099609375,0.012038248591125011,0.8240331411361694,-1.0570584535598755
1772025043935399200,10.617399169921875,-0.17159709334373474,0.7829259037971497,-0.6987559199333191
1772025043945396200,10.627396240234376,-0.25238803029060364,0.7656663656234741,-0.32887303829193115
1772025043955393300,10.637393310546875,-0.18578903377056122,0.7028988599777222,-0.11156147718429565
1772025043965390000,10.64739013671875,-0.010037397965788841,0.6733198165893555,-0.07523488253355026
1772025043975387400,10.657387451171875,0.1514148712158203,0.6506629586219788,-0.09786642342805862
1772025043985384200,10.66738427734375,0.2221403867006302,0.5696465373039246,-0.07650549709796906
1772025043995381200,10.67738134765625,0.21186351776123047,0.40567275881767273,0.0053118690848350525
1772025044005378300,10.68737841796875,0.16014398634433746,0.18455210328102112,0.13268493115901947
1772025044015375000,10.697375,0.09840205311775208,-0.03224305436015129,0.27610012888908386
1772025044025372200,10.7073720703125,0.0276245828717947,-0.18656983971595764,0.3931600749492645
1772025044035369200,10.717369140625,-0.025542499497532845,-0.2634132206439972,0.46696585416793823
1772025044045366300,10.7273662109375,-0.041202347725629807,-0.2803170680999756,0.48483529686927795
1772025044055363000,10.737363037109375,-0.010997041128575802,-0.2511911392211914,0.4511015713214874
1772025044065360400,10.7473603515625,0.04714231193065643,-0.2019365429878235,0.3912350833415985
1772025044075357200,10.757357177734375,0.1172148734331131,-0.1628650426864624,0.311737060546875
1772025044085354200,10.767354248046875,0.19823972880840302,-0.10526199638843536,0.2617475390434265
1772025044095351300,10.777351318359376,0.27982592582702637,-0.06745363026857376,0.2742266058921814
1772025044105348400,10.787348388671875,0.33125969767570496,-0.0657045915722847,0.3412315547466278
1772025044115345200,10.79734521484375,0.3731147348880768,-0.03122571110725403,0.4737035930156708
1772025044125342200,10.80734228515625,0.4004703164100647,0.03095897287130356,0.6221450567245483
1772025044135339300,10.81733935546875,0.39660075306892395,0.07524734735488892,0.7499639987945557
1772025044145336000,10.827336181640625,0.4069567322731018,0.08546183258295059,0.8476581573486328
1772025044155333400,10.83733349609375,0.44253629446029663,0.085402712225914,0.8845202922821045
1772025044165330200,10.847330078125,0.49697908759117126,0.07348547130823135,0.8647695183753967
1772025044175327200,10.8573271484375,0.5407649278640747,0.049725018441677094,0.8574144244194031
1772025044185324300,10.86732421875,0.5202046632766724,0.04320455342531204,0.9166895747184753
1772025044195321300,10.8773212890625,0.4900510311126709,-0.19783896207809448,0.7824654579162598
1772025044205318100,10.887318115234375,0.43321460485458374,-0.36102697253227234,0.5926803350448608
1772025044215315500,10.8973154296875,0.29936572909355164,-0.3558116853237152,0.43486112356185913
1772025044225312300,10.907312255859376,0.0917917788028717,-0.27307388186454773,0.31802159547805786
1772025044235309300,10.917309326171875,-0.12467394769191742,-0.18080361187458038,0.21655409038066864
1772025044245306400,10.927306396484376,-0.2494458705186844,0.03296485170722008,0.016379646956920624
1772025044255303200,10.93730322265625,-0.22900718450546265,0.4306666851043701,-0.3537091910839081
1772025044265300200,10.94730029296875,0.008631587028503418,0.7033364176750183,-0.8798911571502686
