time,seconds_elapsed,z,y,x
1771956794566606300,0.0736064453125,0.05102817644774914,-0.007720730445161461,0.0988491908846423
1771956794586569000,0.09356884765625,-0.07656126163303852,-0.01129584898557514,-0.013329364107176661
1771956794606532000,0.113531982421875,0.08696808935701847,0.04768712239153683,0.018096615041606128
1771956794626495200,0.1334951171875,0.0874111569494009,-0.005726159094460308,-0.0011636734845116735
1771956794646458000,0.1534580078125,-0.0849187556117773,0.023639270795322954,-0.05412262619859538
1771956794666421200,0.173421142578125,-0.11226093604564666,-0.093992581166327,0.12102179579404182
1771956794686384000,0.193384033203125,-0.09707447282969951,-0.05784611283428966,0.04076313181463629
1771956794706347300,0.21334716796875,-0.08905717059075832,0.010351115481369197,-0.03664420698741451
1771956794726310100,0.23331005859375,0.10324702398478984,-0.0018103008249774574,0.04619621711350046
1771956794746273300,0.253273193359375,-0.025364742881059645,0.05073262756727635,-0.06131960676428862
1771956794766236200,0.273236083984375,0.07204466099143028,0.0601125964615494,0.024361858581984416
1771956794786199000,0.293198974609375,-0.00637479572892189,-0.023558935568109153,0.008877344001224264
1771956794806162200,0.313162109375,-0.07771043166816234,0.01204600976575166,0.010405329886637628
1771956794826125000,0.333125,0.036786885127425194,0.004031045614369213,0.010494414675887673
1771956794846088200,0.353088134765625,-0.010407412245869637,0.0049437034798786045,-0.013454707519896327
1771956794866051000,0.373051025390625,-0.03666121292114258,-0.011146649773232637,0.009008642230695113
1771956794886014200,0.39301416015625,-0.06123977386057376,-0.02933890720903873,0.033626886726543306
1771956794905977300,0.412977294921875,-0.05489186613857746,-0.050413697811216115,0.07764635345600544
1771956794925940200,0.432940185546875,-0.055740007400512694,0.0077598203465342516,-0.002328178086085245
1771956794945903400,0.4529033203125,-0.011863456273078919,0.01660151764564216,-0.00018405133001506328
1771956794965866000,0.472865966796875,0.0033978257447481153,0.010153291354328393,-0.024880539560690522
1771956794985829000,0.4928291015625,-0.004078793746232986,0.020606223242357374,-0.02557348112775944
1771956795005792300,0.512792236328125,-0.0009451718956232071,0.01925703712310642,-0.015564813275355844
1771956795025755100,0.532755126953125,-0.01269815353155136,-0.0002667977100238204,-0.020941218217229468
1771956795045718300,0.55271826171875,0.003042436435818672,0.0005269464835524559,0.006407812082534656
1771956795065681200,0.57268115234375,-0.017945406535267827,0.01289864453971386,-0.017933990092109886
1771956795085644300,0.592644287109375,-0.003300210589170456,0.005115004926174878,0.0010697481233626603
1771956795105607200,0.612607177734375,-0.015544775134325027,-0.010406718126125633,-0.0064641179801896214
1771956795125570300,0.6325703125,-0.056008302947878834,-0.02837156001422554,0.023619260053755715
1771956795145533200,0.652533203125,-0.06871522430777549,-0.056753714487701654,0.05175303838988766
1771956795165496000,0.67249609375,-0.03980418712198734,-0.004642053652182221,0.001958623254485428
1771956795185459200,0.692459228515625,0.017964695757627488,0.013772577830031513,0.003415032607875764
1771956795205422000,0.712422119140625,0.0036100071907043457,0.020447489016689357,-0.007478774915449321
1771956795225385200,0.73238525390625,-0.011817863565683364,0.005355097292363643,-0.002594473472610116
1771956795245348000,0.75234814453125,-0.0029991818159818646,-0.004244286506250501,-0.009139986125938594
1771956795265311200,0.772311279296875,-0.010031564670801163,-0.020969649727270005,0.01465907834097743
1771956795285274400,0.7922744140625,-0.0076245035290718076,-0.003999773693270981,0.02217166419448331
1771956795305237200,0.8122373046875,-0.0026712650358676907,-0.00995364059638232,0.004260561787616461
1771956795325200100,0.8322001953125,0.008637479963898659,0.0011626140385866165,-0.002785566464764997
1771956795345163000,0.8521630859375,-0.013113748595118522,0.006160130064934492,-0.01623452009730972
1771956795365126100,0.872126220703125,-0.03331774771213531,-0.007819222383573651,-0.00765277064233087
1771956795385089300,0.89208935546875,-0.051450785773992536,-0.024668650375679134,0.016687497162353248
1771956795405052200,0.91205224609375,-0.02211421665251255,-0.024123145322129128,-0.000621237170882523
1771956795425015300,0.932015380859375,-0.0017471359282732008,-0.012495507098920642,0.006283455050503835
1771956795444978200,0.951978271484375,-0.008759060516953467,0.012054229604825377,0.006160769385751336
1771956795464941300,0.97194140625,0.013229483929276465,0.02473093848954886,0.000485874687647447
1771956795484904200,0.991904296875,-0.026150340300798415,0.009673727676458656,-0.00509178844736889
1771956795504867000,1.0118671875,-0.020012860459089277,-0.0035952845456078647,-0.008530183664523065
1771956795524830200,1.031830322265625,-0.004440612795948982,-0.03190751558803022,0.002049014084832743
1771956795544793000,1.05179296875,-0.007705167549848556,-0.008365604219958186,-0.0001018803387414664
1771956795564756500,1.071756591796875,-0.006214052209258079,0.02205543566998094,-0.0027190588335040955
1771956795584719400,1.09171923828125,-0.006515665504336357,0.003427271034941077,0.01847837176765315
1771956795604682500,1.1116826171875,-0.02421557284593582,-0.010401530494354664,0.003145494951494038
1771956795624645400,1.131645263671875,-0.030517887860536573,-0.0076656392570585005,0.009632217489136383
1771956795644608500,1.1516083984375,-0.037218846803903576,-0.014848573031090198,0.007928738039499148
1771956795664571600,1.171571533203125,-0.023884733456373212,-0.0052575186694040895,0.01859552274076268
1771956795684534500,1.191534423828125,0.006197101074457168,0.0018416458113119005,0.010367427295353263
1771956795704497700,1.21149755859375,-0.00457622187435627,-0.0001017068088054657,0.00679237268702127
1771956795724460300,1.231460205078125,-0.027481296643614768,0.015139774530008435,0.005723693142738193
1771956795744423400,1.25142333984375,-0.017745500048995017,0.020642354001663626,-0.006420013976981863
1771956795764386300,1.27138623046875,-0.013390811970829962,0.00030336686074733735,-0.00548297058888711
1771956795784349400,1.291349365234375,-0.013520575830340385,0.003787153855897486,0.00006178579037077724
1771956795804312600,1.3113125,-0.012461422166228293,0.0013988704798743128,0.0033290622243192045
1771956795824275500,1.331275390625,-0.014691373175382614,0.003505998826958239,0.019136716945376248
1771956795844238600,1.351238525390625,-0.01559913567006588,0.005929134320653975,0.013486226036166771
1771956795864201500,1.371201416015625,-0.01783551642000675,-0.002550524733029306,0.012648907562345265
1771956795884164600,1.39116455078125,-0.025316227564215657,-0.006031681379675865,-0.01542065556431189
1771956795904127200,1.411127197265625,-0.028433482801914215,-0.0040833968561142684,0.002315957925328985
1771956795924090400,1.43109033203125,-0.0339589682251215,0.00006524725593626499,0.010115343097271396
1771956795944053500,1.451053466796875,-0.011952303600311279,0.0011814648695290088,0.013425481425411999
1771956795964016400,1.471016357421875,-0.004773205751180649,0.00602510550841689,-0.000046688685938715934
1771956795983979500,1.4909794921875,-0.015554127484560011,0.010314436732791364,0.017790526500809936
1771956796003942400,1.5109423828125,-0.019883681121468544,0.011049473009072244,0.004560174921853468
1771956796023905500,1.530905517578125,-0.00954933411180973,-0.012507635928131639,0.0036978772704023867
1771956796043868400,1.550868408203125,-0.002673603123426437,-0.0030443361319601532,-0.01119031538502313
1771956796063831600,1.57083154296875,-0.020932897913455963,-0.015605930737033485,-0.009533460689242929
1771956796083794700,1.590794677734375,-0.0038829789131879806,-0.0033987390602007506,0.011901906853634863
1771956796103757300,1.61075732421875,-0.011971008300781249,-0.006494732314161956,0.010703015925269573
1771956796123720400,1.630720458984375,-0.01915712041258812,-0.0059384501382708545,0.010361883470555767
1771956796143683300,1.650683349609375,-0.013933248284459113,-0.004106595068611205,0.012017523456783965
1771956796163646500,1.670646484375,-0.018265724530816076,-0.00814454534780234,-0.006681806718325242
1771956796183609600,1.690609619140625,-0.017967033845186234,-0.012753938839398325,-0.0041516489198897034
1771956796203572500,1.710572509765625,0.007469605228304863,-0.00645648266300559,-0.0019675828790757803
1771956796223535600,1.73053564453125,-0.0015104045629501341,-0.01491352802608162,-0.002196158337406814
1771956796243498500,1.75049853515625,-0.01783434737622738,0.009059650898724793,-0.0019816936028189958
1771956796263461600,1.770461669921875,-0.021426818910241126,-0.0019227116908878087,-0.016473215090855954
1771956796283424300,1.79042431640625,-0.014395020577311514,-0.00778141112383455,-0.01126406560782343
1771956796303387400,1.810387451171875,-0.02847206124663353,-0.00613642039578408,0.0022867226976901293
1771956796323350500,1.8303505859375,-0.02010112326443195,-0.014186675056256353,0.00039038755707442756
1771956796343314400,1.850314453125,-0.002297171026468277,-0.01685399456936866,-0.01618336529880762
1771956796363277300,1.87027734375,-0.019947978529334068,-0.006347578928433358,-0.00037347295489162206
1771956796383240400,1.890240478515625,-0.016356676039099693,-0.004912139297835528,-0.005994692103844136
1771956796403203600,1.91020361328125,-0.0135112234801054,-0.016771686580777167,0.0005149637848138809
1771956796423166500,1.93016650390625,-0.01770166090726852,0.0003765051621943712,-0.017988213630532844
1771956796443129600,1.950129638671875,-0.01083119061589241,-0.005977832300588488,-0.01639311732565984
1771956796463092500,1.970092529296875,-0.004090484184026718,-0.008451967329159378,-0.0018162191091105342
1771956796483055600,1.9900556640625,-0.018906360521912573,-0.00730696201249957,-0.002693997457483783
1771956796503018500,2.0100185546875,-0.015173603734374045,-0.0047082872888073325,0.003543892285088077
1771956796522981400,2.0299814453125,-0.01636719743311405,0.008061872033029794,0.007864221435924992
1771956796542944500,2.049944580078125,-0.018911621218919754,-0.0027036329355090856,-0.0015074910866562277
1771956796562907400,2.069907470703125,-0.016369535520672798,0.008571794316545128,0.007906124348891898
1771956796582870300,2.089870361328125,-0.004549918389320374,-0.012668014121614396,0.001432316091749817
1771956796602833200,2.109833251953125,-0.012033552142977714,-0.012414623882435262,0.003665399772906676
1771956796622796300,2.12979638671875,-0.005451835665106773,0.001872150547429919,-0.0022954265939537435
1771956796642759400,2.149759521484375,-0.016070260313153267,0.00963379752486944,-0.008004177895886823
1771956796662722300,2.169722412109375,-0.02041091986596584,0.0014920651886612176,0.0039661271519958975
1771956796682685400,2.189685546875,-0.026109423768520355,-0.0029150837291032072,-0.00041276378566399216
1771956796702648300,2.2096484375,-0.013544541227817534,-0.022877565707825124,-0.016919314890541135
1771956796722611500,2.229611572265625,-0.013847323566675186,-0.00441602634396404,-0.0046730059128720315
1771956796742574300,2.24957421875,-0.03405132268369197,-0.005742379576899111,0.0016756689941044896
1771956796762537200,2.269537109375,-0.00846270791888237,-0.010630845738202332,0.004904631844814866
1771956796782500400,2.289500244140625,-0.016547814697027204,-0.006149827866628765,0.009096539709856733
1771956796802463200,2.309463134765625,-0.0246259072124958,-0.006062003452703356,0.004417898640641942
1771956796822426400,2.32942626953125,-0.00862169787287712,-0.013477321210503577,0.000042578766401857136
1771956796842389200,2.34938916015625,-0.010878536888957024,0.00689454528670758,-0.014650365311559289
1771956796862352400,2.369352294921875,-0.013726912057399749,-0.004656337905861437,0.01236684835110791
1771956796882315500,2.3893154296875,-0.012982815691828726,0.006964395652525127,0.012572855784604325
1771956796902278400,2.4092783203125,-0.019417232653498647,0.002058466899767518,0.0076896229208447036
1771956796922241500,2.429241455078125,-0.026447861942648886,0.0009484232986345886,-0.000270359640289098
1771956796942204200,2.4492041015625,-0.021513912671804428,-0.0021897651292383667,-0.016376686780666932
1771956796962167300,2.469167236328125,-0.005347790768742561,-0.0033585531802847977,-0.013612464498030021
1771956796982130200,2.489130126953125,-0.00041793315112590785,0.007425802619196474,-0.002306285914685577
1771956797002093300,2.50909326171875,-0.008357493978738785,0.012269260594993829,-0.0019345025933813302
1771956797022056400,2.529056396484375,-0.022719196808338164,0.002275434118695557,-0.005345452681183815
1771956797042019300,2.549019287109375,-0.0007306523621082306,0.013662833845242858,0.018958035910222677
1771956797061982500,2.568982421875,-0.014196867656707763,-0.0016365882258862255,-0.009021081587160005
1771956797081945300,2.5889453125,-0.012998597782850264,0.0001682692389935255,0.0060048025059048086
1771956797101908500,2.608908447265625,-0.008817512705922126,-0.005771532606147229,0.0028733634792268274
1771956797121871400,2.628871337890625,-0.025722470277547836,-0.003336925870366394,-0.006433713708771392
1771956797141834200,2.648834228515625,-0.01464753403365612,0.010548683880083263,-0.00020118512790650127
1771956797161797400,2.66879736328125,-0.019738135170936585,-0.007818382133357227,-0.003073854487389326
1771956797181760300,2.68876025390625,-0.021084873604774474,-0.011098207521624862,-0.003122598133096471
1771956797201723400,2.708723388671875,-0.009567454290390014,0.003068703388236463,-0.013339465376082807
1771956797221686300,2.728686279296875,-0.026624387553334235,-0.00029777737017720935,-0.019387851295387372
1771956797241649400,2.7486494140625,-0.019144260931015015,0.0006161591369658708,0.0025105032498948274
1771956797261612300,2.7686123046875,-0.009718260937929152,0.0030415231203660366,-0.014978272958518937
1771956797281575400,2.788575439453125,-0.010471125131845473,-0.013345548056997359,0.02518234465201385
1771956797301538600,2.80853857421875,-0.023042437413334844,-0.007312441905215382,0.004825438261916861
1771956797321501200,2.828501220703125,-0.02304477550089359,0.002080861394666135,-0.010747229526331647
1771956797341464300,2.84846435546875,-0.016916063487529755,0.010156360094249249,0.0012273772373329846
1771956797361427200,2.86842724609375,-0.011975684475898743,-0.008628054548427463,-0.0044463027512189
1771956797381390300,2.888390380859375,-0.013919219759106635,0.007593341205827891,-0.008060730388714
1771956797401353500,2.908353515625,-0.0076291797041893004,-0.010124247922934591,-0.00042535840575583277
1771956797421316400,2.92831640625,0.003141805157065391,0.017648469415307046,-0.001664654409745708
1771956797441279500,2.948279541015625,-0.019448796835541723,-0.0009940525386482476,-0.002102388239884749
1771956797461242400,2.968242431640625,-0.005823591586947441,0.00401650563236326,-0.003894797215145081
1771956797481205500,2.98820556640625,-0.023622867649793624,0.002556662212871015,0.00476841997820884
1771956797501168000,3.008168212890625,-0.018382628908753394,0.0006951061246916651,-0.011588667052844538
1771956797521131300,3.02813134765625,-0.022874095109105107,0.002114763664267957,-0.00024158107037656007
1771956797541094400,3.048094482421875,-0.02242518229782581,0.001639912694133818,0.006886361980251968
1771956797561057300,3.068057373046875,-0.012094342419505119,0.007210479368083178,0.002071381180267781
1771956797581019600,3.08801953125,-0.0034054245293140407,0.014689692674949765,-0.014124195146141574
1771956797600982800,3.107982666015625,-0.018512977290153502,-0.002846438939683139,-0.013965533985709771
1771956797620945700,3.127945556640625,-0.007147533667087555,-0.014229199023731052,0.011039673134265467
1771956797640908800,3.14790869140625,-0.008792378264665604,-0.00523004614058882,-0.009589291662862523
1771956797660871400,3.167871337890625,-0.0028010288953781125,-0.009207717599906027,0.0025432364757172763
1771956797680834600,3.18783447265625,-0.011478840869665146,0.006182561092451215,0.01838141419920139
1771956797700797400,3.20779736328125,-0.0008452186524868011,-0.007194222353026271,-0.0051087395821698
1771956797720760600,3.227760498046875,-0.0324251827865839,0.004022679644823074,0.0014315215073060243
1771956797740723700,3.2477236328125,-0.021506898409128186,0.011617153361812233,0.00335596849755384
1771956797760686600,3.2676865234375,-0.02703589096367359,-0.006837737065553665,0.012411582541977986
1771956797780649700,3.287649658203125,-0.020164251628518103,-0.008971278495527804,-0.0125200296188239
1771956797800612600,3.307612548828125,-0.029290976414084433,-0.003162701814621687,-0.014036252001207321
1771956797820575700,3.32757568359375,-0.015820669466257094,0.00515997657906264,-0.0001844897214323282
1771956797840538600,3.34753857421875,-0.025395722541213035,0.00015858809519559143,0.009407642352487892
1771956797860501500,3.36750146484375,-0.000263034850358963,0.0020237243799492714,-0.011755538919195532
1771956797880464600,3.387464599609375,-0.0029500819772481915,0.00860251824837178,0.011178615814074873
1771956797900427500,3.407427490234375,-0.009688450321555138,-0.00027863427828997374,-0.0021945691685192285
1771956797920390700,3.427390625,-0.019708909076452254,0.00024038462713360786,-0.0073169536835514006
1771956797940353500,3.447353515625,-0.01267769526541233,0.0013079773260280488,0.00473959574252367
1771956797960316700,3.467316650390625,-0.0036941783428192138,0.009272161138243973,-0.0017956786445807664
1771956797980279800,3.48727978515625,-0.01567278542816639,0.0016821444006636737,0.008603851688932627
1771956798000242700,3.50724267578125,-0.00894201586842537,-0.0028924700384959576,-0.0034295725898817178
1771956798020205600,3.52720556640625,-0.026001287218928335,0.0009636574003845453,-0.015408280139928683
1771956798040168400,3.54716845703125,-0.009252981513738632,-0.014182546870410442,-0.0018359558560419828
1771956798060131600,3.567131591796875,-0.020768647262454032,-0.017125760715454817,0.004990383032662794
1771956798080094500,3.587094482421875,-0.007443886265158653,-0.003581986672617495,-0.019930059280153362
1771956798100057600,3.6070576171875,-0.0318324775904417,0.004145977230928838,-0.006832120175519958
1771956798120020700,3.627020751953125,-0.007296586748957634,-0.004460340409725904,0.0004291669311933219
1771956798139983600,3.646983642578125,-0.014779051458835601,-0.005195303620770573,-0.024134214705415068
1771956798159946800,3.66694677734375,-0.022265023300051687,0.018924078841693698,-0.0178944161335472
1771956798179909600,3.68690966796875,-0.02331248652637005,0.004921235919743776,-0.009828799507161602
1771956798199872500,3.70687255859375,-0.029446459236741065,-0.00817559807319194,0.011381143515696749
1771956798219835400,3.72683544921875,-0.01194528933763504,-0.0001311520989984274,0.010225361076695845
1771956798239798500,3.746798583984375,-0.02840191861987114,0.00660871408265084,0.011093403482344001
1771956798259761700,3.76676171875,-0.031247371178865432,0.006264576820097863,-0.017598702856292947
1771956798279724500,3.786724609375,-0.01568272230029106,-0.003352013841643929,-0.012894772082194686
1771956798299687700,3.806687744140625,-0.017033552387356758,-0.010695398874394595,-0.01295303247491829
1771956798319650600,3.826650634765625,-0.016886837393045424,0.003112031073309481,0.01141764873433858
1771956798339613700,3.84661376953125,-0.020176526588201522,0.002887611200287938,0.005732753232028335
1771956798359576600,3.86657666015625,-0.023619360518455503,-0.0017436287969350814,-0.00018627068656496703
1771956798379539500,3.88653955078125,-0.029607202756404875,0.010969612705893814,0.0199485447849147
1771956798399502600,3.906502685546875,-0.013755553629994392,0.0022233751378953454,-0.001630386813962832
1771956798419465500,3.926465576171875,-0.010026888495683669,0.011043627790175377,0.020707080667791887
1771956798439428600,3.9464287109375,-0.013918635237216948,-0.007504384280741214,-0.011826576595101505
1771956798459391500,3.9663916015625,-0.019455226576328276,-0.004139803218469023,0.0056430656545795495
1771956798479354600,3.986354736328125,-0.006282441270351409,-0.001022036524116993,0.0149890044150874
1771956798499317800,4.00631787109375,-0.016002455773949622,-0.001736760664731264,0.0035889370032120495
1771956798519280600,4.02628076171875,-0.017208324432373044,-0.0016863091191276908,-0.012403527099685743
1771956798539243800,4.046243896484375,-0.012115969729423522,0.006841682588309049,0.016354812875576316
1771956798559206400,4.066206298828125,-0.008375029635429382,0.003996193496696651,-0.01431276738764718
1771956798579170300,4.08617041015625,-0.007182020458579063,-0.0070352689316496245,-0.018695174589799714
1771956798599133200,4.10613330078125,-0.008372107025980948,-0.0023637699892744423,-0.0028015403520315883
1771956798619096300,4.126096435546875,-0.010464695391058921,0.007463613878935575,-0.0043473815545439715
1771956798639059200,4.14605908203125,-0.018697101685404775,0.004663534831628203,0.004659488844173029
1771956798659022300,4.166022216796875,-0.01674187596440315,-0.0043081455226987595,-0.02583136487896554
1771956798678985200,4.185985107421875,-0.013449848681688309,0.004581226843036711,-0.008406721681635827
1771956798698948000,4.205947998046875,0.002422258710861206,-0.010587444987893104,-0.0047644013902172445
1771956798718911200,4.2259111328125,-0.002516366735100746,-0.003764722828380763,-0.011142000997578725
1771956798738874000,4.2458740234375,-0.009103343909978866,-0.016024558007903394,0.005535979417758062
1771956798758837200,4.265837158203125,-0.004910568395256996,0.008455364862643183,-0.010097789174271747
1771956798778800000,4.285800048828125,-0.018969488885998725,-0.004917984516732394,-0.0006697433545719832
1771956798798763300,4.30576318359375,-0.01851882250905037,0.0076346961295232175,-0.0035836854393593966
1771956798818726400,4.325726318359375,-0.01552022521495819,0.0007338306998834013,0.015842634702892974
1771956798838689300,4.345689208984375,-0.01777063449025154,-0.0029438714321702716,0.012390073963068425
1771956798858652200,4.365652099609375,-0.005060790520906448,-0.0003672624098137021,-0.001599069227091968
1771956798878615000,4.385614990234375,-0.0008750292688608169,0.013938801242411135,-0.007785365779744461
1771956798898578200,4.405578125,-0.020331424888968466,0.008597147953510284,0.016886061074910686
1771956798918541300,4.425541259765625,-0.012551438537240028,0.008282054122351109,-0.0035879049567505714
1771956798938504200,4.445504150390625,-0.017942483925819395,-0.0045698286661878225,0.015610305518051608
1771956798958467300,4.46546728515625,-0.024673253485560417,-0.000768244426138699,0.002913777688005939
1771956798978430200,4.48543017578125,0.0013683657437562943,-0.017225275567173955,0.003217756470106542
1771956798998393300,4.505393310546875,-0.014642857858538626,-0.002252783895470202,-0.0144587151969783
1771956799018357200,4.525357177734375,-0.017035890474915504,0.008356215337105096,-0.007931048727594316
1771956799038319000,4.545319091796875,-0.006258475872874259,-0.000979695219732821,-0.007736804797127843
1771956799058282200,4.5652822265625,-0.00805529616177082,0.001208279811218381,-0.0041697051663883026
1771956799078245000,4.5852451171875,-0.02362520573735237,0.008033376590907573,-0.00046397338309325277
1771956799098208300,4.605208251953125,-0.020629531052708625,-0.011562427499890327,0.001781430923519656
1771956799118172200,4.625172119140625,-0.01343757372200489,-0.01215341566298157,-0.0022085702944081276
1771956799138135300,4.64513525390625,-0.013882394880056381,-0.002240107076987624,0.00751245798934251
1771956799158098200,4.66509814453125,-0.004300912064313888,-0.01429291190970689,0.0028521380281075833
1771956799178061300,4.685061279296875,-0.02211597021818161,0.004787818798422813,0.01093674248275347
1771956799198024200,4.705024169921875,-0.017631518280506134,0.0011026274796575306,-0.012956448274711147
1771956799217987300,4.7249873046875,-0.01987725138068199,-0.0027596374390646814,0.0032255105182994155
1771956799237950200,4.7449501953125,-0.01298749186694622,-0.00581913460753858,0.003471420703921467
1771956799257913000,4.7649130859375,-0.0056575873702764505,-0.006402231725119054,0.006005195231549442
1771956799277876200,4.784876220703125,-0.012990414476394653,0.007942775698006152,0.002364829435199499
1771956799297839000,4.804839111328125,0.00017184943556785583,-0.014204977897927164,-0.013597458725143223
1771956799317802200,4.82480224609375,-0.014344751694798468,0.01906330464929342,0.0054218058530241245
1771956799337765000,4.84476513671875,-0.027815058642625807,0.008785583197697996,-0.010770656067691743
1771956799357728300,4.864728271484375,-0.011651859349012373,-0.0025840616764500734,0.011579634363017975
1771956799377691400,4.88469140625,-0.012856558963656424,-0.004070208580978215,-0.0018977233801037072
1771956799397654300,4.904654296875,-0.014351765957474708,-0.012114033500663935,0.011386385946394875
1771956799417617400,4.924617431640625,-0.005974398234486579,0.010922997085191309,0.012533838948467746
1771956799437580000,4.944580078125,-0.009112111738324165,-0.01264298927821219,0.012674507794482632
1771956799457543200,4.964543212890625,-0.017197218516469,-0.00566419977415353,0.0024485347964335233
1771956799477506000,4.984506103515625,-0.013759645283222198,-0.0011618833862245082,-0.004749349951557815
1771956799497469200,5.00446923828125,-0.02215162605345249,-0.00212079154625535,0.0006995083051733672
1771956799517432300,5.024432373046875,-0.0055383449047803875,-0.004189962503127753,0.007041351612564176
1771956799537395200,5.044395263671875,-0.02454407414793968,-0.00017985007893294095,0.019135931494086978
1771956799557358300,5.0643583984375,-0.005838789156079292,0.008817220444977283,0.009614882761845365
1771956799577321200,5.0843212890625,-0.02798924616575241,0.014164536289684474,0.009357355203665792
1771956799597284000,5.1042841796875,-0.026346739655733108,-0.0016848843470215796,0.010189239450544119
1771956799617247200,5.124247314453125,-0.014227847316861152,0.005136047714203596,-0.014625386133929713
1771956799637210000,5.144210205078125,-0.019010405418276786,-0.004243555853888392,0.014253146154899149
1771956799657173200,5.16417333984375,-0.021705635851621625,-0.0021919570863246918,0.005724807387590408
1771956799677136100,5.18413623046875,-0.01437865396440029,-0.0030598259620368477,0.013871115434216335
1771956799697099300,5.204099365234375,-0.0025479309171438217,0.007039725911058485,0.0037180615419056266
1771956799717062100,5.224062255859375,-0.013021978658437728,-0.005414499329403043,0.012427145437290892
1771956799737025300,5.244025390625,-0.016761749708652494,-0.008784487219154834,-0.008977881766250357
1771956799756988200,5.26398828125,-0.005243745872378349,-0.009052965429611504,0.007715387549763545
1771956799776951000,5.283950927734375,-0.00554477464556694,-0.007066394722275436,-0.0013936280491761862
1771956799796914200,5.3039140625,-0.02065934166908264,-0.009196830879710615,0.019915930290101094
1771956799816877000,5.323876953125,-0.010482815569639205,0.01477674990389496,0.013313518084073439
1771956799836840200,5.343840087890625,-0.01855272477865219,0.008519881466217339,0.007393325121700763
1771956799856803000,5.363802978515625,-0.026634908947348594,0.0019789719227701424,-0.0076994227956514805
1771956799876766200,5.38376611328125,-0.016003040295839308,-0.002457878013513982,-0.01998941565142013
1771956799896729300,5.403729248046875,-0.03081657854616642,-0.015376798156276345,0.0004651241605635732
1771956799916692200,5.423692138671875,-0.0065676879525184625,-0.012794161251932381,-0.006421977605205029
1771956799936655400,5.4436552734375,-0.00881517461836338,-0.0027210224617272615,-0.012887109365547074
1771956799956618000,5.463617919921875,-0.006571195083856582,-0.0034741058513522148,0.006301885756338015
1771956799976581000,5.4835810546875,-0.016438509103655814,0.0007953881613910198,0.012411116751097143
1771956799996544000,5.5035439453125,-0.03080255002081394,-0.0012313318932428955,-0.002755353989591822
1771956800016507100,5.523507080078125,-0.01988426564335823,-0.004020670350827277,-0.007400302851758897
1771956800036470300,5.54347021484375,-0.01824117461144924,-0.005177402637898921,-0.010712624003831297
1771956800056433200,5.56343310546875,-0.005681552767753601,-0.010332264650426805,-0.004407678640726953
1771956800076396300,5.583396240234375,-0.023335282880067823,0.011151837405003607,-0.0031715792408213016
1771956800096359200,5.603359130859375,-0.02004968533813953,-0.0006641264645382761,-0.013746657937485723
1771956800116322300,5.623322265625,-0.027829671689867972,0.00045461189970374103,0.0022512495255097745
1771956800136285200,5.64328515625,-0.010026303973793983,-0.006196626150421798,0.0026343488252721725
1771956800156248000,5.663248046875,-0.025290508601069447,-0.003658814768493175,0.00437653458379209
1771956800176211200,5.683211181640625,-0.017814473631978033,-0.020573964940570292,-0.005428884047782048
1771956800196174000,5.703174072265625,-0.016912556356191634,0.0044188028229400515,0.001052888320107013
1771956800216137200,5.72313720703125,-0.010474632263183592,0.011694931305758655,-0.007133139815554022
1771956800236100000,5.74310009765625,-0.020941081219911575,-0.002406476619839668,0.025787151277903465
1771956800256063200,5.763063232421875,-0.025729484540224074,-0.005668327959999442,-0.014846883397502824
1771956800276026400,5.7830263671875,-0.008826280534267424,-0.01249609162081033,0.0005873623007442802
1771956800295989200,5.8029892578125,-0.02499415600299835,0.0007131532380357385,0.00106616792678833
1771956800315952400,5.822952392578125,-0.011526771664619444,-0.001069528927654028,-0.0009181012256070971
1771956800335915000,5.8429150390625,-0.013317162212729453,-0.0023405717767775057,0.003966629475494847
1771956800355878100,5.862878173828125,-0.0345686245560646,0.0014297770747914908,-0.0059325683867558834
1771956800375841000,5.882841064453125,-0.01975216369628906,0.0016823270637542009,0.008715997693361713
1771956800395804200,5.90280419921875,-0.015565233400464057,0.01687120143249631,-0.007135861495602876
1771956800415767300,5.922767333984375,-0.019016835159063338,-0.016535393606871365,-0.000029865415301173923
1771956800435730200,5.942730224609375,-0.025599136158823966,-0.011351634293422102,0.010465252513485028
1771956800455693300,5.962693359375,-0.016474164938926696,-0.006039024435915053,-0.01168747865166515
1771956800475656200,5.98265625,-0.026650106516480445,0.008092376769147813,0.004330585683370009
1771956800495619300,6.002619384765625,-0.004806523498892784,-0.005036825123429298,-0.0008741159534081816
1771956800515582200,6.022582275390625,-0.003767828100919723,0.021396058445796368,0.00662005746057257
1771956800535545000,6.042545166015625,-0.016638415589928627,-0.002087145004980266,-0.002381862768391147
1771956800555508200,6.06250830078125,-0.027418752801418304,0.002896780887432396,-0.021263892566645518
1771956800575471000,6.08247119140625,-0.0030278233885765076,-0.008737140946090221,0.008276455498626455
1771956800595434200,6.102434326171875,-0.014549918878078459,0.002046045809611678,0.010770080678956583
1771956800615397000,6.122397216796875,-0.0022796353697776793,0.013289726216532289,-0.01382915772232227
1771956800635360300,6.1423603515625,-0.023687749579548834,0.012581395284086465,-0.001847920288471505
1771956800655323400,6.162323486328125,-0.020992519146203995,-0.013140527004189788,0.015590011648694052
1771956800675286300,6.182286376953125,-0.010666939964890479,-0.002259871223382652,-0.0030020496265031394
1771956800695249200,6.202249267578125,-0.013958967247605323,0.003979936481639743,0.020435981241986156
1771956800715212000,6.2222119140625,-0.009168225839734078,-0.00038812253475189204,0.009106303052045404
1771956800735175200,6.242175048828125,-0.0016758242577314376,-0.0022019670236855743,0.0021356603218242523
1771956800755138000,6.262137939453125,-0.011251461854577064,0.0009844444600865243,-0.020381017918046564
1771956800775101200,6.28210107421875,-0.02322247015535831,0.0127247492775321,0.005643010855652391
1771956800795064300,6.302064208984375,-0.011848843225836753,0.006872771846316754,-0.007426241010613739
1771956800815027200,6.322027099609375,-0.015890812093019485,0.006880918620154261,-0.01030587896700017
1771956800834990300,6.341990234375,-0.016941782450675964,0.00069021075386554,0.021304580770060418
1771956800854953200,6.361953125,-0.028165771776437757,-0.0033583705171942708,-0.017337558568920938
1771956800874916000,6.381916015625,-0.022930209210515022,0.006969985143095254,0.015703299297438935
1771956800894879000,6.40187890625,-0.022035890719294546,0.013996230518072843,0.006006062881229445
1771956800914842000,6.421842041015625,-0.024428923335671423,0.0030900749698281288,-0.00027534634266048667
1771956800934805200,6.44180517578125,-0.021742460730671882,0.01469688960071653,0.004248661287268624
1771956800954768100,6.46176806640625,-0.015908347749710082,-0.011539375417865812,-0.01147013697340153
1771956800974731300,6.481731201171875,-0.0076852938055992125,0.005904438270814717,-0.0072043875540141016
1771956800994694100,6.501694091796875,-0.02025076086819172,0.0010032587584108113,0.0026742607105523348
1771956801014657300,6.5216572265625,-0.00843874252140522,0.004928067519329488,0.007380575237981975
1771956801034620200,6.5416201171875,-0.01576689345240593,0.02318674125485122,-0.01929659281536005
1771956801054583000,6.5615830078125,-0.03731412387192249,-0.010756737140193581,0.0025925829096231606
1771956801074546200,6.581546142578125,-0.023244681987166404,0.0008000643365085124,0.00819875975307077
1771956801094509000,6.601509033203125,0.0066810851991176605,-0.0030499621551483866,-0.001807031155657023
1771956801114472200,6.62147216796875,-0.028626959547400473,-0.01311035106163472,-0.0025654026417527348
1771956801134435000,6.64143505859375,-0.0076771104991436,-0.0038246363220736383,0.020253847874421624
1771956801154398200,6.661398193359375,-0.01156710367500782,0.005927709548547864,-0.006351460519107058
1771956801174361300,6.681361328125,0.0009983633875846863,0.007837379094772041,0.00460204130220227
1771956801194324200,6.70132421875,-0.025790274816751477,0.004746792668290436,-0.013388126823399215
1771956801214287400,6.721287353515625,-0.016970424023270606,0.010918905431963503,0.007755966155324131
1771956801234250000,6.74125,-0.012789338946342467,0.004254625237174332,-0.006375206720875576
1771956801254213000,6.761213134765625,-0.010395137286186218,0.006394084951281547,0.015501757976505905
1771956801274176000,6.781176025390625,-0.014137246423959731,0.012638422700949012,-0.003567885082028806
1771956801294139100,6.80113916015625,-0.014576806885004043,0.010133308012224734,0.0006497143466956913
1771956801314102300,6.821102294921875,-0.009631751698255538,0.005247472199425101,-0.007720876575633883
1771956801334065200,6.841065185546875,-0.02354804884791374,0.004054572620429098,-0.013887874772772191
1771956801354028300,6.8610283203125,-0.021308745488524437,-0.01518295608460903,0.014334568227501586
1771956801373991200,6.8809912109375,-0.00125613754093647,0.004099215479753911,-0.007969864634331315
1771956801393954300,6.900954345703125,0.0029302082329988478,-0.011717544996365905,0.015505128110526128
1771956801413917200,6.920917236328125,-0.024159458744525908,0.001575359557941556,-0.018556743366643785
1771956801433880000,6.940880126953125,-0.027606384328007695,0.01059274221751839,-0.018942473014909773
1771956801453843200,6.96084326171875,-0.0038140053302049633,-0.005597345083020627,-0.004794075009273365
1771956801473806000,6.98080615234375,-0.011605682119727134,-0.0012904416693374514,-0.013081243698159231
1771956801493769200,7.000769287109375,-0.01324935767352581,-0.0022333120100200177,0.005114073344413191
1771956801513732000,7.020732177734375,-0.02222352224588394,-0.005727876127511263,-0.010310500343190506
1771956801533695200,7.0406953125,-0.012947744378447533,0.0014291194876655936,0.014580158752715214
1771956801553658400,7.060658447265625,-0.025216274321079254,0.019963504892028867,0.007157899797474965
1771956801573621800,7.080621826171875,-0.0120429044932127,-0.0011727335738018155,-0.002857983247004449
1771956801593585000,7.1005849609375,-0.014431260934472083,0.009288162424974144,-0.017553183214133603
1771956801613547800,7.1205478515625,-0.02190904946923256,-0.002066284880042076,0.005507009051600471
1771956801633510700,7.1405107421875,-0.013824527212977408,-0.009008760961703955,-0.0053916481767781075
1771956801653473500,7.1604736328125,-0.02191197207868099,-0.006301730492711067,-0.00006573131312616169
1771956801673436700,7.180436767578125,-0.01412730955183506,0.0015206702286377548,0.010134312659222633
1771956801693399600,7.200399658203125,-0.026394670450687406,0.007095511218905448,-0.0005804393696133047
1771956801713362700,7.22036279296875,-0.01786123538315296,0.0036362010778859255,0.009926396396430209
1771956801733325800,7.240325927734375,-0.015014029258489608,0.0024789208015426993,0.002593395760376006
1771956801753288700,7.260288818359375,-0.009180500799417495,0.006925890273042023,-0.00443425612039864
1771956801773251800,7.280251953125,-0.03267535815536975,-0.011131854062899946,-0.0024625267891678956
1771956801793214700,7.300214599609375,-0.020703765332698822,0.0026177812829613683,-0.004707876296853646
1771956801813177600,7.320177490234375,-0.017266776621341705,0.014699556481838225,0.008661938551720231
1771956801833140700,7.340140625,-0.013375029879808426,0.0045580286305397745,0.008349511601682753
1771956801853103600,7.360103515625,-0.01980886231958866,0.019324403270892798,-0.006384157212311402
1771956801873066800,7.380066650390625,-0.023396657678484915,0.004161905452422798,0.0015581435616593808
1771956801893029600,7.400029541015625,-0.02324351294338703,0.004462934225611388,0.011255809236131608
1771956801912992800,7.41999267578125,-0.01276654259264469,-0.00418210799023509,0.011520752915786579
1771956801932955600,7.43995556640625,-0.021893851900100708,-0.00884798090942204,0.023535691689839586
1771956801952918800,7.459918701171875,-0.036407530421018595,0.011255188181623816,0.0058843361977022135
1771956801972882000,7.4798818359375,-0.02728080563545227,0.010261099110357462,-0.004470286415005103
1771956801992844500,7.499844482421875,-0.008578443253040312,-0.004773498012125492,-0.009576614844379947
1771956802012807700,7.5198076171875,-0.015464695635437965,0.001094663368910551,0.0023664734030142427
1771956802032770600,7.5397705078125,-0.011277180817723274,-0.007007138815708458,0.004397266844566912
1771956802052733700,7.559733642578125,-0.03521627480983734,0.000839081172645092,-0.009066866090800613
1771956802072696600,7.579696533203125,-0.016207038435339927,0.00423139049205929,-0.002311729274783283
1771956802092659700,7.59965966796875,-0.018603578183054924,0.015599866322427988,-0.007614100866066291
1771956802112622800,7.619622802734375,-0.02787818700671196,0.0034827275492250918,-0.009954837039625271
1771956802132585700,7.639585693359375,-0.030272973188757896,-0.0014497238842770457,-0.002573951274389401
1771956802152548900,7.659548828125,-0.014711246919631956,-0.009213416688330471,0.013585329895932226
1771956802172511500,7.679511474609375,-0.02024842278063297,0.0020390680795535445,-0.008619104056991636
1771956802192474600,7.699474609375,-0.02084229702055454,0.006900025179423392,0.005286397704016417
1771956802212436700,7.719436767578125,-0.009172317492961882,-0.0024155001765117047,0.01065972477281466
1771956802232399600,7.739399658203125,-0.03087736882269382,0.005169657722860575,-0.004712086681090295
1771956802252362800,7.75936279296875,-0.025190555357933044,-0.0030708953453227874,-0.0007005312184803187
1771956802272325600,7.77932568359375,-0.011123451560735702,-0.005993614391610026,-0.01878984886961989
1771956802292288800,7.799288818359375,-0.0169663323700428,-0.005701645707711577,0.0038283169833477583
1771956802312251600,7.819251708984375,-0.019064765954017637,-0.008956628915667533,0.014461930067371577
1771956802332214500,7.839214599609375,-0.018914543828368185,0.0077880600603297346,0.0020369857203215358
1771956802352177700,7.859177734375,-0.015617255848646164,0.016224720222502945,0.006681569256307557
1771956802372140500,7.879140625,-0.024143092131614682,0.007972184455581009,-0.006406369044119492
1771956802392103700,7.899103759765625,-0.009628829088807106,0.0005589855896309017,0.0012092387924436479
1771956802412066800,7.91906689453125,-0.012922609937191009,-0.003594773088954389,0.011263956009969114
1771956802432029700,7.93902978515625,-0.008276829957962036,-0.011219970737770198,0.004069952852651476
1771956802451992800,7.958992919921875,-0.002139350116252899,-0.010196801702491938,0.021757548701949417
1771956802471955700,7.978955810546875,-0.01934825907051563,0.012996953815035522,0.0025218374946620313
1771956802491918800,7.9989189453125,-0.021894436421990394,0.01093293395731598,-0.00293285684781149
1771956802511881500,8.018881591796875,-0.019648118799924848,0.003913593247160316,0.006173592334706336
1771956802531844600,8.0388447265625,-0.010073650246858596,-0.003957797715067863,-0.008611815799679607
1771956802551807700,8.058807861328125,-0.017105448579788206,-0.015404818674363194,-0.009708187068486586
1771956802571770400,8.078770263671874,-0.013220716100931167,0.0010637933066114783,0.00963122197529301
1771956802591733500,8.0987333984375,-0.012480126866698265,0.014719832084886728,-0.00898806523354724
1771956802611696400,8.1186962890625,-0.015163666862249374,0.0011582666570320724,0.0015126878515817224
1771956802631659500,8.138659423828125,-0.017404723787307737,-0.0006755246413871646,-0.00030651779905892907
1771956802651622700,8.15862255859375,-0.03206394825875759,-0.006967354794591665,0.0006163691995199769
1771956802671585500,8.17858544921875,-0.010961538997292518,0.00501212907359004,-0.00016940175015479325
1771956802691548700,8.198548583984374,0.006100070440769195,0.009942352017387747,-0.0031260961312800646
1771956802711511300,8.21851123046875,-0.010669862574338912,-0.0010902794547379016,-0.00217746277009137
1771956802731474400,8.238474365234374,-0.018902853390574455,0.00019734920300543306,0.0052681039955001325
1771956802751437300,8.258437255859375,-0.029670915642380714,0.0023178850209340453,0.018320724387373775
1771956802771400400,8.278400390625,-0.012760697373747824,0.007726904457621276,-0.0003849167975131422
1771956802791363600,8.298363525390625,-0.013662614649534225,-0.0017551000390201806,0.006709589774394407
1771956802811326500,8.318326416015625,-0.010668109008669853,-0.0077414079070091246,0.002830291522480547
1771956802831289600,8.33828955078125,-0.013504209217429161,0.0044825887741521,0.004461418121960014
1771956802851252500,8.35825244140625,-0.020534838506579396,0.01177658170722425,-0.0038276411299128085
1771956802871215600,8.378215576171876,-0.007515197935700416,-0.004924962246790528,0.0009511906444560736
1771956802891178500,8.398178466796875,-0.03146305975615978,0.011088891704007982,-0.017418907576287165
1771956802911141400,8.418141357421876,-0.017544424518942833,0.009051979048922658,-0.014197589175915345
1771956802931104500,8.4381044921875,-0.0073667293757200235,0.0011922785244882106,-0.001312562169600278
1771956802951067400,8.4580673828125,-0.016941197928786275,-0.004414455441385507,-0.0023341237696819007
1771956802971030500,8.478030517578125,-0.010509119054675102,0.009488689965754747,0.0016762626491487024
1771956802990993400,8.497993408203126,-0.01903670890331268,0.007200944354757666,0.0011852642618119715
1771956803010956500,8.51795654296875,-0.03309679843783379,0.004809299977868795,0.002022719732951373
1771956803030919400,8.53791943359375,-0.00915069018304348,0.013225538406521081,-0.0036768344823736696
1771956803050882600,8.557882568359375,-0.0280026901692152,0.01297156364545226,0.005837775375926867
1771956803070845400,8.577845458984376,-0.015136194333434104,-0.005232859152182937,0.009478068107040598
1771956803090808300,8.597808349609375,-0.008403086686134337,-0.007954941059835255,-0.009942717343568802
1771956803110771500,8.617771484375,-0.006314005452394485,0.005773213106580078,0.003957231459487229
1771956803130734300,8.637734375,-0.013637480208277701,0.001077894897200167,0.009676275826571509
1771956803150697500,8.657697509765624,-0.03369008815586567,0.009937821972742676,-0.008563537944853305
1771956803170660600,8.67766064453125,-0.014984218642115592,-0.01773106966484338,-0.02206293398984708
1771956803190623500,8.69762353515625,-0.01648059467971325,-0.00961454483512789,-0.005259664960717782
1771956803210586600,8.717586669921875,-0.021567688685655593,-0.015062909901514649,-0.0017109229705762118
1771956803230549500,8.737549560546874,-0.01303366909623146,-0.01739960922077298,0.0014695245632901787
1771956803250512400,8.757512451171875,0.0010334347009658812,0.008879946950264275,-0.0005761193875223398
1771956803270475300,8.777475341796874,-0.022601123386621475,-0.00019687427897006272,0.0039441345158964395
1771956803290438400,8.7974384765625,-0.027084406280517576,-0.0021823490077629683,0.003276062528602779
1771956803310401500,8.817401611328124,-0.016905542093515396,0.02484185151811689,-0.002377414922136813
1771956803330364400,8.837364501953125,-0.019294483056664466,0.011812493270821869,-0.016888015569979323
1771956803350327600,8.85732763671875,0.0004623568147420883,-0.006431530884839594,0.024257256563194093
1771956803370290400,8.87729052734375,-0.014351765957474708,0.0015899726051837205,-0.0110385406231042
1771956803390253600,8.897253662109375,-0.0050648821741342545,-0.004819967502355575,0.0062060332995839415
1771956803410216400,8.917216552734375,-0.014788988330960273,0.008581000536307693,0.010363582237297669
1771956803430179300,8.937179443359375,-0.01957797617316246,0.011118519657291472,-0.009459637401206419
1771956803450142500,8.957142578125,0.00526245057284832,-0.006242803379707038,-0.002493223321530968
1771956803470105300,8.977105224609375,-0.019426000481843946,-0.023304632013477385,0.0009410254434682429
1771956803490068500,8.997068359375,-0.011945873859524727,-0.01060881656948477,-0.0053677010456100105
1771956803510031400,9.01703125,-0.020623101311922073,0.006041581719182431,0.014409295697836205
1771956803529994500,9.036994384765626,-0.027502339431643485,0.012257570157200097,-0.0036708339998498558
1771956803549957600,9.05695751953125,-0.026156185519695282,0.006460282055288553,0.012132007548771797
1771956803569920500,9.07692041015625,-0.008501286363601684,0.012024236325360834,0.003731021488178521
1771956803589883600,9.096883544921875,-0.020327917757630348,0.000045008185505867,-0.013310138816898688
1771956803609846500,9.116846435546876,-0.016289456021785734,0.003715513391792774,-0.012935368954064323
1771956803629809400,9.136809326171875,-0.009559270983934403,-0.003754676358401775,-0.0028085363483987746
1771956803649772300,9.156772216796876,0.004810030630230903,0.001688647206686437,-0.009904769086511805
1771956803669735400,9.1767353515625,-0.01538344709277153,0.005139262584596872,-0.005467919150227681
1771956803689698600,9.196698486328126,-0.008797054439783096,-0.00030628947019577024,0.014123236164916305
1771956803709661400,9.216661376953125,-0.001768178716301918,-0.012809103092737495,-0.011790957292448728
1771956803729624600,9.23662451171875,-0.025265958681702613,0.0011895751107484102,-0.010755184503924101
1771956803749587500,9.25658740234375,-0.017333412116765975,-0.0013875088356435298,0.007285234237881377
1771956803769550600,9.276550537109374,-0.02870294739305973,-0.0035517011322081086,0.007716419596225023
1771956803789513500,9.296513427734375,-0.015979659420251844,0.006451660357415676,0.0026639037133194504
1771956803809476400,9.316476318359374,-0.016288871499896048,0.012563750029541552,-0.010470467544719576
1771956803829439500,9.336439453125,-0.014047814574837683,-0.012177709854021668,-0.0061310592340771105
1771956803849402400,9.35640234375,-0.01958849756717682,-0.000777121852338314,-0.009017720586294308
1771956803869365500,9.376365478515625,-0.004327215549349785,-0.0001159910624846816,-0.006795624090032652
1771956803889328400,9.396328369140624,0.0009141922354698181,-0.012303601256012917,-0.003768540486972779
1771956803909291500,9.41629150390625,-0.0288654444783926,-0.0035569252965971824,0.00842186445184052
1771956803929254700,9.436254638671874,-0.016149170768260956,0.014033420723304152,-0.011444436276564374
1771956803949217500,9.456217529296875,-0.007628010660409927,0.0016660335160791873,-0.006439138802560046
1771956803969180700,9.4761806640625,-0.013754969108104705,0.003450432714819908,0.0059286502634640775
1771956803989143300,9.496143310546875,-0.01644143171310425,0.004179331511259079,-0.009877853680122643
1771956804009106400,9.5161064453125,-0.007455576702952385,0.0018833660611882804,-0.005572429837472736
1771956804029069300,9.5360693359375,-0.020770400828123092,0.007585815486498177,0.0032326252456754442
1771956804049032400,9.556032470703125,0.010211012890934944,0.010871047702245413,0.0010841237085871397
1771956804068995600,9.57599560546875,-0.028397242444753647,0.014428192194551229,0.0010186115911696107
1771956804088958500,9.59595849609375,-0.011339140138030052,0.008185754141025245,-0.00417502066232264
1771956804108920600,9.615920654296875,-0.03169160781502724,-0.0016771759646013378,-0.011677797507867217
1771956804128883500,9.635883544921874,-0.020016952112317084,-0.00550528288539499,-0.0034201928401831534
1771956804148846300,9.655846435546875,-0.013285598030686378,-0.003910597572475672,-0.009077853275695815
1771956804168809500,9.6758095703125,-0.019420155262947082,-0.004610343339666724,0.003793373534129932
1771956804188772400,9.6957724609375,-0.015079495710134505,-0.006327449455857276,0.007160173952952027
1771956804208735500,9.715735595703125,-0.023307810351252553,0.005767221757210791,-0.005611939863953739
1771956804228698400,9.735698486328126,-0.02749941682219505,-0.013986914700455962,-0.009513221618812531
1771956804248661500,9.75566162109375,-0.024057167413830755,-0.01684252332728356,-0.021645831955783068
1771956804268624600,9.775624755859376,-0.02016834328174591,0.004029438179172575,-0.00571155518037267
1771956804288587500,9.79558740234375,-0.014932780715823173,-0.00878755595907569,0.007010079691465943
1771956804308550400,9.81555029296875,-0.008345803540945053,0.00872504864949733,-0.0021991174794733525
1771956804328513300,9.83551318359375,-0.020905425384640693,-0.00007814327012747525,0.0017982907267753035
1771956804348476400,9.855476318359376,-0.006837152543663978,0.00015033172350376845,-0.017078715836489573
1771956804368439600,9.875439453125,-0.021806758138537406,0.00018591449353843925,-0.012140830176044256
1771956804388402400,9.89540234375,-0.0007043488770723343,0.0031522169532254337,0.013044099158700554
1771956804408365600,9.915365478515625,-0.014167057040333747,-0.013339922033809124,0.011064935439685359
1771956804428328400,9.935328369140626,-0.007281389179825782,-0.01906640992183238,0.019538420480908824
1771956804448291600,9.95529150390625,-0.008162848189473151,0.004695172078907489,-0.003052866498287767
1771956804468254500,9.97525439453125,-0.02012742674946785,-0.006352437766641378,-0.002789831647928804
1771956804488217600,9.995217529296875,-0.011297639083862304,0.0006912336671724915,-0.01065604411154054
1771956804508180500,10.015180419921874,-0.014293898290395736,0.001131488247960806,-0.0011898765048477798
1771956804528143400,10.035143310546875,-0.013092121285200119,-0.009977313732914626,-0.0046784858055878425
1771956804548106500,10.0551064453125,-0.002614566412568092,-0.005609802705794573,-0.007079400334320962
1771956804568069400,10.0750693359375,-0.026697452789545058,0.0004503741160035133,-0.0015108794869855046
1771956804588031700,10.09503173828125,-0.011578209590911865,-0.013023622626252472,0.006381134138163179
1771956804607995000,10.114994873046875,-0.024293314257264137,0.01013469625171274,-0.0013511406143195926
1771956804627957800,10.134957763671874,-0.01860591627061367,-0.0026356092005968093,-0.026290424624923616
1771956804647921000,10.1549208984375,-0.0012456161469221114,0.0006597425503656268,-0.0064346818231511855
1771956804667883800,10.1748837890625,-0.0036468320697546,-0.0013811886927112937,0.003584936681529507
1771956804687847000,10.194846923828125,-0.010081249031424521,-0.020743622419051824,-0.005919462310010567
1771956804707810000,10.21481005859375,-0.00783785401880741,-0.007126381281204521,0.0025347883077803997
1771956804727772700,10.234772705078125,-0.025946342161297795,0.0027983620142564176,-0.01313078192831017
1771956804747735800,10.25473583984375,-0.02295592817366123,0.014696341611444948,-0.009388517526909708
1771956804767698700,10.27469873046875,-0.02311316456198692,0.008346570725925265,0.0015074271545745433
1771956804787661800,10.294661865234374,-0.027160394126176834,-0.0019451792510226367,-0.017591935188788918
1771956804807624700,10.314624755859375,-0.009653963530063628,-0.002363222000002861,-0.008626666308939457
1771956804827587800,10.334587890625,-0.0005354220509529113,-0.007808153000287711,-0.00027878040876239536
1771956804847551000,10.354551025390625,-0.008915712383389472,0.0016586904598399996,0.0044187845566309985
1771956804867513900,10.374513916015625,-0.02014379336237907,0.0028120252134278415,-0.02429646519557573
1771956804887477000,10.39447705078125,-0.028219547790288922,0.008239566687494516,0.0118370066575706
1771956804907439600,10.414439697265625,-0.02493278120458126,-0.0006264248026534914,-0.02158264879276976
1771956804927402800,10.43440283203125,-0.01760170766413212,-0.007332023388519883,0.009984629389690235
1771956804947366000,10.454365966796875,-0.020740590211749076,-0.0057462520344182845,-0.003293616451602429
1771956804967328800,10.474328857421876,-0.017304186022281644,-0.003847688404098153,-0.005680447656055912
1771956804987292000,10.4942919921875,-0.013708791878819465,0.0042924364969134324,-0.0029103527550585566
1771956805007254800,10.5142548828125,-0.024331308180093762,0.011177885161712765,-0.0023179124203976244
1771956805027218000,10.534218017578125,-0.03346154009699821,0.010323606419935821,0.004020926079154014
1771956805047180800,10.554180908203126,-0.006674070936441421,-0.001738002773746848,-0.0035262744300067423
1771956805067144000,10.57414404296875,-0.011159107396006583,-0.02672445039432496,0.0002827259315177798
1771956805087106800,10.59410693359375,-0.015791443371772764,-0.006532287845574319,-0.003821110924426466
1771956805107069700,10.614069580078125,-0.03345043418109417,-0.007080678975954651,0.002293508631503209
1771956805127032800,10.63403271484375,-0.017138766327500343,-0.0015987769661471246,0.002808253220608458
1771956805146995700,10.65399560546875,-0.008605915781855582,-0.007357230895012616,-0.00968353668441996
1771956805166958800,10.673958740234376,-0.01714402702450752,0.004490699015371501,-0.00395217169187963
1771956805186921700,10.693921630859375,-0.030315643286705014,-0.00006130173318088054,-0.0028427674115635453
1771956805206884900,10.713884765625,-0.015359481695294379,-0.00978014719299972,0.011566336490027605
1771956805226846700,10.7338466796875,-0.006980944928526878,0.0037271672969684004,0.0030263438175432383
1771956805246811000,10.753810791015624,-0.0004021510601043701,0.010057904688455164,-0.008508117963187395
1771956805266773800,10.773773681640625,-0.052471945515274995,0.023850137067027388,0.004244158642087131
1771956805286736000,10.79373583984375,0.005746434697508812,-0.01070705277957022,-0.008855561427678913
1771956805306698800,10.81369873046875,-0.025085925939679145,0.0013506474239751696,-0.01569744494538754
1771956805326662000,10.833661865234374,-0.04544073170423507,-0.0042834494728595015,0.002459321051929146
1771956805346624800,10.853624755859375,-0.006833060890436172,-0.01333604957628995,0.007811048210272565
1771956805366588000,10.873587890625,0.023085107511281965,0.0002151771206408739,0.019004094408499077
1771956805386550800,10.89355078125,-0.014174655824899672,0.008458177874237298,-0.0063370484012644735
1771956805406513700,10.913513671875,-0.016720833176374433,0.00440583374351263,-0.023122900504712014
1771956805426476800,10.933476806640625,-0.014334814822673797,0.009590798633359371,0.003914177769050002
1771956805446439700,10.953439697265624,-0.023023148190975187,0.0016685907993465661,-0.015052808632608503
1771956805466402800,10.97340283203125,-0.038454526078701014,-0.012505188242718577,-0.011761913861054926
1771956805486365700,10.99336572265625,0.30766718828976153,0.03431640336066484,-0.03338718708599917
1771956805506328800,11.013328857421875,-0.4777718260169029,0.04248860390037298,0.008187051048967987
1771956805526292000,11.0332919921875,0.4804822540193796,-0.10640358831956982,0.08338030313127674
1771956805546254800,11.0532548828125,-0.43259588272869587,0.04382346923332661,-0.08213493357952684
1771956805566218000,11.073218017578125,0.0723176327139139,0.022344043353013692,-0.009873396700713783
1771956805586181600,11.093181640625,0.14008125538527966,-0.00822352886814624,-0.008814535297546534
1771956805606144800,11.113144775390625,-0.06909224092662335,0.04938884827550501,0.01728376428876072
1771956805626107600,11.133107666015626,-0.012983984735608101,-0.016709179271198808,-0.04424931169627234
1771956805646070800,11.15307080078125,0.004662731114029884,-0.011702639688178897,0.03857649935740046
1771956805666033700,11.17303369140625,-0.0842085615158081,0.014535525026544928,-0.05164679240328259
1771956805685996800,11.192996826171875,0.03132628163397312,-0.0000763531718403101,0.02996073803496547
1771956805705959700,11.212959716796876,-0.017620996886491776,0.013401479495316743,-0.054590061047254126
1771956805725922600,11.232922607421875,-0.046805005794763564,0.004170381019823253,0.0005998747224453836
1771956805745885700,11.2528857421875,0.005701426512002944,-0.024838928908668456,0.003637525385292247
1771956805765848600,11.2728486328125,-0.044880759733915324,-0.020462394324876367,-0.005022550002904609
1771956805785811700,11.292811767578126,-0.05175356811285019,-0.00020586130302399394,0.019630975868878884
1771956805805774600,11.312774658203125,-0.024503742137551306,-0.010364376821741461,-0.0009626436202321201
1771956805825737700,11.33273779296875,-0.027178514304757116,0.00423274219892919,-0.017809359065443276
1771956805845700900,11.352700927734375,0.004551671954989433,0.006445413279719651,0.0030504279460292307
1771956805865663700,11.372663818359374,-0.011765841117501258,0.0027431246956810353,-0.015011097515886649
1771956805885627000,11.392626953125,-0.0032499417066574094,0.0037499271180480714,0.0054296694990713145
1771956805905589500,11.412589599609374,-0.0185217451184988,-0.01865399319604039,0.002038748419145122
1771956805925552600,11.432552734375,-0.02286357371509075,0.0070952920231968164,0.0029870438536163417
1771956805945515500,11.452515625,-0.013143559211492538,0.018449593197740612,-0.001364767280872911
1771956805965478700,11.472478759765625,-0.033652678754925724,-0.007071911147609353,-0.004864893489470705
1771956805985441800,11.49244189453125,-0.029020342779159543,0.012344225527346134,0.005370249195722863
1771956806005404700,11.51240478515625,-0.027523382219672203,-0.00769709384124726,-0.018624785367865115
1771956806025367800,11.532367919921874,-0.013752046498656273,0.00016403145529329775,0.005252486301260069
1771956806045330700,11.55233056640625,-0.1215524960041046,0.021457214048504827,-0.016826540306862443
1771956806065293800,11.5722939453125,1.1214385631114243,0.5060511046377941,-0.26287867341656235
1771956806085256700,11.592256591796875,-0.9698772978127003,-0.6682279815729707,0.41843255201540885
1771956806105219600,11.612219482421875,0.5133206937819719,-0.3009449673626572,0.31748978638499975
1771956806125182700,11.6321826171875,-0.869711873230338,0.5159393883803859,-0.5376142272349447
