time,seconds_elapsed,z,y,x
1771956742139692300,0.0836923828125,0.002364854561164975,0.003533915150910616,0.004948928952217102
1771956742159656200,0.10365625,0.0019188940059393644,-0.007816375233232975,-0.0012484516482800245
1771956742179619300,0.123619384765625,0.00006589386612176895,-0.00006873300299048424,0.0007293124217540026
1771956742199582500,0.14358251953125,0.0004905695095658302,0.0013354923576116562,0.005732251796871424
1771956742219545300,0.16354541015625,0.0003457488492131233,0.008843939751386642,0.010018723085522652
1771956742239508500,0.183508544921875,-0.0008790269494056702,0.010458733886480331,0.0073666987009346485
1771956742259471400,0.203471435546875,-0.0015738881193101406,0.008831586688756943,0.007355234120041132
1771956742279435500,0.223435546875,-0.0011289091780781746,-0.014923887327313423,-0.011315086856484413
1771956742299398400,0.2433984375,0.0024940320290625095,-0.005141203757375479,-0.0034523182548582554
1771956742319361500,0.263361572265625,-0.0001791459508240223,-0.008747768588364124,-0.0061832633800804615
1771956742339324400,0.283324462890625,-0.0029672896489501,0.00011631427332758904,-0.00407714769244194
1771956742359287600,0.30328759765625,-0.0008284682407975197,0.001122362446039915,-0.002098669297993183
1771956742379250200,0.323250244140625,-0.0007830965332686901,0.005722861271351576,0.0038741291500627995
1771956742399214600,0.343214599609375,0.00009005283936858177,0.002305218018591404,-0.0006892756791785359
1771956742419177200,0.36317724609375,-0.0000790134072303772,0.0008301697671413422,0.002561807632446289
1771956742439140400,0.383140380859375,-0.00012546172365546227,-0.0002196822315454483,0.0012279211077839136
1771956742459103200,0.403103271484375,-0.0014917072840034962,0.00012792926281690598,0.0021857465617358685
1771956742479066400,0.42306640625,0.0006275307387113571,0.0009413706138730049,0.0024588601663708687
1771956742499029500,0.443029541015625,0.002485151868313551,0.003742440138012171,0.0060759782791137695
1771956742518993400,0.462993408203125,0.0022822082974016666,0.007596008479595184,0.006020685657858849
1771956742538956300,0.482956298828125,0.003689622273668647,-0.003034394234418869,-0.003527240827679634
1771956742558919400,0.50291943359375,0.0014579324051737785,-0.004221193492412567,-0.004225573502480984
1771956742578882600,0.522882568359375,0.000414480222389102,-0.0068467347882688046,-0.002617137972265482
1771956742598845400,0.542845458984375,-0.0020709531381726265,-0.0015049832873046398,-0.0031911367550492287
1771956742618808600,0.56280859375,-0.0014694887213408947,0.00451924093067646,-0.0033342880196869373
1771956742638772500,0.5827724609375,0.0012926070485264063,0.004660688806325197,-0.0013777547283098102
1771956742658735600,0.602735595703125,-0.000868478324264288,0.0007389700040221214,-0.000298576895147562
1771956742678698200,0.6226982421875,0.003030183492228389,0.00011847959831357002,0.0012147970264777541
1771956742698661400,0.642661376953125,0.00012821005657315254,-0.0051972586661577225,0.0020431536249816418
1771956742718624300,0.662624267578125,-0.0004763128235936165,-0.0005708411335945129,0.0018307340797036886
1771956742738587400,0.68258740234375,0.0012791119515895844,0.0016562482342123985,0.003337410744279623
1771956742758550500,0.702550537109375,-0.000152630265802145,0.004588431678712368,0.0025616190396249294
1771956742778514400,0.722514404296875,0.0013969168066978455,0.003766537643969059,0.0029800147749483585
1771956742798477300,0.742477294921875,0.0021830678451806307,0.00177469989284873,-0.0006424915627576411
1771956742818440400,0.7624404296875,-0.00024946965277194977,-0.0050302958115935326,-0.0027114753611385822
1771956742838403600,0.782403564453125,0.00216011144220829,-0.005688818171620369,-0.0019523123046383262
1771956742858366500,0.802366455078125,-0.00010681711137294769,-0.00448085181415081,-0.0023866607807576656
1771956742878329300,0.822329345703125,-0.0001011793501675129,-0.0032056444324553013,-0.00002419657539576292
1771956742898293500,0.84229345703125,-0.0005435510538518429,0.00151817686855793,-0.0017634908435866237
1771956742918256400,0.86225634765625,-0.00021527940407395363,0.0027195890434086323,-0.0010235898662358522
1771956742938219300,0.88221923828125,0.0010042963549494743,0.002348275389522314,0.0009517902508378029
1771956742958182400,0.902182373046875,-0.0009087473154067993,-0.001366439275443554,0.002617824822664261
1771956742978145300,0.922145263671875,0.0010430826805531979,-0.002172732725739479,0.0019087647087872028
1771956742998108400,0.9421083984375,0.0005156032275408506,-0.0021846480667591095,0.0028026741929352283
1771956743018072300,0.962072265625,0.0016331032384186983,0.0032882681116461754,0.0004742239834740758
1771956743038035500,0.982035400390625,-0.0002631167881190777,0.001038927584886551,0.0005687887314707041
1771956743057998300,1.001998291015625,0.0013773194514214993,0.003621576353907585,-0.001355052925646305
1771956743077961500,1.02196142578125,-0.0003747912123799324,-0.001233495306223631,-0.0016687343595549464
1771956743097924400,1.04192431640625,0.0010597433429211378,-0.0032863295637071133,-0.0028926092199981213
1771956743117887500,1.061887451171875,-0.00037687504664063454,-0.0034076403826475143,-0.0006324235582724214
1771956743137850400,1.081850341796875,-0.0008116047829389572,-0.0014907922595739365,-0.0035758009180426598
1771956743157814500,1.101814453125,-0.0012938757427036762,0.0021403254941105843,0.00008411932503804564
1771956743177777400,1.12177734375,0.00022743968293070793,0.004433813504874706,0.00006557791493833065
1771956743197740300,1.141740234375,-0.0012881923466920853,0.00041177915409207344,0.0004919888451695442
1771956743217703400,1.161703369140625,-0.0018426431342959404,0.00047085806727409363,0.0016179863596335053
1771956743237666300,1.181666259765625,0.0003719830419868231,-0.0022098198533058167,0.003746192902326584
1771956743257629400,1.20162939453125,-0.00003081187605857849,0.0017270715907216072,0.00157910434063524
1771956743277593300,1.22159326171875,0.0009347065351903439,-0.0013606827706098557,0.002665434032678604
1771956743297556500,1.241556396484375,0.0003204643726348877,0.0032681748270988464,0.002221306087449193
1771956743317519400,1.261519287109375,-0.0012439228594303131,0.0010014553554356098,-0.0014038505032658577
1771956743337482500,1.281482421875,0.000495431013405323,-0.0009018294513225555,-0.0007064724923111498
1771956743357445400,1.3014453125,0.0008470062166452408,-0.0030636112205684185,-0.0008638488361611962
1771956743377408500,1.321408447265625,-0.0008951914496719837,-0.0017314208671450615,-0.0020871427841484547
1771956743397372400,1.341372314453125,-0.0012074769474565983,-0.000791170634329319,-0.0011099025141447783
1771956743417335600,1.36133544921875,0.0019752488005906343,0.0009410013444721699,-0.0005130230565555394
1771956743437298200,1.381298095703125,0.0014074433129280806,0.0036707413382828236,0.001457716105505824
1771956743457261300,1.40126123046875,0.0004136946517974138,0.001470961607992649,0.0014706876827403903
1771956743477224400,1.421224365234375,-0.00007004477083683014,0.0020530084148049355,0.0030654272995889187
1771956743497187300,1.441187255859375,-0.0006108363159000874,0.0005499934777617455,-0.0001983672846108675
1771956743517152000,1.461152099609375,-0.001050822902470827,-0.00011973036453127861,0.003603119868785143
1771956743537115100,1.481115234375,0.0005874955095350742,-0.0025968500413000584,-0.0018944566836580634
1771956743557078000,1.501078125,-0.001400207169353962,0.0007978277280926704,-0.003416758496314287
1771956743577041200,1.521041259765625,-0.0003522103652358055,0.0022415975108742714,0.0005454664351418614
1771956743597004300,1.54100439453125,-0.000587348360568285,-0.00045779580250382423,0.0013529142597690225
1771956743616967200,1.56096728515625,0.00025953352451324463,-0.002537613268941641,-0.0007765135960653424
1771956743636930300,1.580930419921875,-0.001311329659074545,-0.001722701359540224,0.000025481334887444973
1771956743656894200,1.600894287109375,-0.00044533517211675644,-0.0016279206611216068,-0.00032227905467152596
1771956743676857300,1.620857421875,-0.0014952188357710838,0.00301918713375926,-0.0029634363017976284
1771956743696820200,1.6408203125,0.0010974868200719357,0.000302689615637064,0.0015478577697649598
1771956743716783000,1.660783203125,-0.00011268071830272675,0.0005734176374971867,0.0015951837413012981
1771956743736746000,1.68074609375,-0.0006595351733267307,0.0015064985491335392,0.00009960454190149903
1771956743756709000,1.700709228515625,0.0023786702658981085,-0.002266417723149061,0.0022775118704885244
1771956743776673000,1.720673095703125,0.001619689166545868,-0.002721259370446205,-0.0002544558956287801
1771956743796636200,1.74063623046875,-0.0008467468433082104,0.002050462644547224,-0.0021079769358038902
1771956743816599000,1.76059912109375,-0.0017848741263151169,0.0010978844948112965,-0.0009320161771029234
1771956743836562200,1.780562255859375,-0.0024673622101545334,0.004619099199771881,-0.0016572827007621527
1771956743856525000,1.800525146484375,0.000136492308229208,-0.001066767144948244,-0.0004941014340147376
1771956743876488200,1.82048828125,0.001490750815719366,-0.000050040893256664276,0.00018005818128585815
1771956743896451300,1.840451416015625,0.0005560226272791624,-0.002214459702372551,-0.0013961531221866608
1771956743916415200,1.860415283203125,0.0032815432641655207,-0.005683296825736761,-0.0007321133743971586
1771956743936378400,1.88037841796875,-0.0017423266544938087,0.0032285768538713455,0.0014384017558768392
1771956743956341000,1.900341064453125,-0.00022684456780552864,0.0014573950320482254,0.00033502804581075907
1771956743976304000,1.92030419921875,-0.000178599264472723,0.002632844727486372,-0.0019421272445470095
1771956743996267000,1.94026708984375,0.002366254571825266,0.0001016734167933464,0.0009665156248956919
1771956744016230100,1.960230224609375,0.00035722600296139717,-0.00081669632345438,-0.0009146150550805032
1771956744036194000,1.980194091796875,-0.0008785594254732132,-0.0017317128367722034,0.0019472251879051328
1771956744056157200,2.0001572265625,0.0015013045631349087,-0.001575168687850237,-0.0001194934593513608
1771956744076120000,2.0201201171875,0.00018383609130978584,-0.00010021962225437164,0.0006024525500833988
1771956744096083200,2.040083251953125,0.0004213049542158842,0.0008789855055510998,0.000009708921425044537
1771956744116046000,2.060046142578125,0.002387555781751871,0.002030588686466217,-0.0005052816122770309
1771956744136009200,2.08000927734375,0.0019859771709889174,0.0009346888400614262,-0.001496399287134409
1771956744155972400,2.099972412109375,0.001028137980028987,-0.0037406969349831343,0.0010195487411692739
1771956744175936300,2.119936279296875,0.0006187742110341787,-0.002108341548591852,0.0013569873990491033
1771956744195899100,2.139899169921875,-0.0008133123628795147,-0.000490033533424139,0.0006517287692986429
1771956744215862000,2.159862060546875,-0.0003731297329068184,0.005731471814215183,-0.0010625612922012806
1771956744235825200,2.1798251953125,-0.0009124265052378178,0.0010971077717840672,-0.0022216124925762415
1771956744255788000,2.1997880859375,-0.0004282938316464424,0.0022912942804396152,-0.0005055840592831373
1771956744275751200,2.219751220703125,0.00044845626689493656,0.000027760397642850876,0.0015690228901803493
1771956744295715000,2.239715087890625,0.0004940496291965246,-0.002446560189127922,-0.0002911605406552553
1771956744315678200,2.25967822265625,0.0010476328898221254,-0.005613972432911396,0.0023473973851650953
1771956744335641000,2.27964111328125,0.0003260395023971796,0.00022931769490242004,0.001101920148357749
1771956744355604200,2.299604248046875,-0.0010687806643545628,0.0020122434943914413,-0.0001863505458459258
1771956744375567000,2.319567138671875,-0.0015205559320747852,0.0005421959795057774,-0.0019787834025919437
1771956744395530200,2.3395302734375,-0.00019488204270601273,0.001271531917154789,0.0002289501135237515
1771956744415493400,2.359493408203125,0.0007338968571275473,-0.0014270972460508347,0.0000814122031442821
1771956744435457300,2.379457275390625,-0.0016192416660487652,-0.002576705999672413,0.0016933022998273373
1771956744455420200,2.399420166015625,0.0013305027969181538,-0.0013875281438231468,-0.0002691232948563993
1771956744475383000,2.419383056640625,-0.0010347221978008747,-0.0004732082597911358,0.0009344854624941945
1771956744495346200,2.43934619140625,0.0008952440693974495,0.0035333819687366486,0.00030413386411964893
1771956744515309000,2.45930908203125,0.0003361557610332966,0.00007138820365071297,-0.00011506775626912713
1771956744535272200,2.479272216796875,0.0011504366993904114,0.0018683276139199734,-0.0004734864633064717
1771956744555236000,2.499236083984375,-0.00045835087075829506,-0.0026818281039595604,0.002970587695017457
1771956744575199200,2.51919921875,0.0029368330724537373,-0.0022362321615219116,0.002148246392607689
1771956744595161900,2.539161865234375,-0.0021413378417491913,-0.002524238545447588,0.0004972419119440019
1771956744615125000,2.559125,-0.0011813119053840637,-0.00039371103048324585,-0.0012909792130813003
1771956744635088000,2.579087890625,-0.0021582436747848988,0.001023693010210991,-0.0011354119051247835
1771956744655051000,2.599051025390625,-0.001297629438340664,0.00211030850186944,-0.0007018355536274612
1771956744675014100,2.61901416015625,-0.00033326586708426476,-0.0016288361512124538,0.0013554536271840334
1771956744694978000,2.63897802734375,0.0003199803177267313,-0.000864079687744379,-0.0012754048220813274
1771956744714941000,2.65894091796875,0.00008209189400076866,0.000022653955966234207,-0.00009992619743570685
1771956744734904000,2.678904052734375,-0.001558186486363411,0.000847493764013052,-0.0003621982177719474
1771956744754867200,2.6988671875,0.0009296811185777187,0.0012460066936910152,0.0008225596393458545
1771956744774830000,2.718830078125,0.001867314800620079,0.0021563423797488213,-0.002074922900646925
1771956744794793200,2.738793212890625,-0.00010261824354529381,0.0011488706804811954,0.00001370278187096119
1771956744814757000,2.758757080078125,0.0012411531060934067,0.00047434912994503975,0.001631791004911065
1771956744834720300,2.77872021484375,0.00020216219127178192,-0.0007473728619515896,0.0036181234754621983
1771956744854683000,2.798682861328125,-0.002292982302606106,-0.0025344789028167725,-0.000923721119761467
1771956744874646000,2.81864599609375,-0.0010649175383150578,0.0015639583580195904,-0.0023428695276379585
1771956744894609000,2.83860888671875,0.00008151913061738014,0.0026005269028246403,0.000692768138833344
1771956744914572000,2.858572021484375,-0.0014354218728840351,-0.0013141329400241375,0.0027181259356439114
1771956744934535000,2.878534912109375,-0.0003309929743409157,-0.0018341345712542534,0.0006616082973778248
1771956744954499000,2.8984990234375,-0.0003565056249499321,-0.001061469316482544,0.00005696713924407959
1771956744974462000,2.9184619140625,-0.0010123122483491898,-0.003085085656493902,-0.00010552129242569208
1771956744994425000,2.938425048828125,0.0014266243670135736,0.0015966487117111683,0.000548134499695152
1771956745014388000,2.958387939453125,0.0016010052058845758,-0.00042563769966363907,-0.0005481590633280575
1771956745034351000,2.97835107421875,0.0009781180415302515,0.0009999689646065235,-0.0016013964777812362
1771956745054314200,2.998314208984375,-0.0013725324533879757,0.0013231919147074223,0.001483072992414236
1771956745074278100,3.018278076171875,-0.00015265075489878654,-0.0015970547683537006,-0.0010100658982992172
1771956745094241000,3.038240966796875,0.0010529151186347008,0.0015637283213436604,-0.000947581313084811
1771956745114204000,3.058203857421875,-0.00008807191625237465,-0.0035397731699049473,0.0017379389610141516
1771956745134167000,3.0781669921875,-0.0006958511658012867,0.0014496305957436562,-0.0002781263319775462
1771956745154130000,3.0981298828125,-0.00032736267894506454,0.0025520939379930496,-0.0008508340688422322
1771956745174093000,3.118093017578125,-0.0005212207324802876,0.00032214680686593056,-0.0002802921226248145
1771956745194056000,3.138055908203125,0.000737419817596674,0.0023367106914520264,0.001504834508523345
1771956745214020000,3.15802001953125,0.0026245899498462677,-0.0007660998962819576,0.0007339607109315693
1771956745233983000,3.17798291015625,-0.0003303554840385914,-0.0028103101067245007,0.0016611594473943114
1771956745253946000,3.197946044921875,0.002004289301112294,-0.003703524824231863,-0.0008103169384412467
1771956745273909000,3.217908935546875,0.0011611056979745626,-0.0012155026197433472,-0.0010845502838492393
1771956745293872000,3.2378720703125,-0.0011168238706886768,0.0019067819230258465,-0.0035122877452522516
1771956745313835000,3.2578349609375,-0.00015729758888483047,0.004722100682556629,0.00025390886003151536
1771956745333799200,3.277799072265625,0.00006905244663357735,-0.0008325744420289993,-0.0023502125404775143
1771956745353761800,3.29776171875,0.0009540056344121695,-0.00044426554813981056,0.00024554901756346226
1771956745373725000,3.317724853515625,-0.0014178203418850899,-0.003401989582926035,-0.0012149274116382003
1771956745393688000,3.33768798828125,0.0005684108473360538,0.0004188898019492626,-0.0013456211891025305
1771956745413651000,3.35765087890625,0.001672467216849327,-0.0014715874567627907,-0.0010787049541249871
1771956745433614000,3.377614013671875,-0.0007713153026998043,0.002516282256692648,-0.0015854871599003673
1771956745453577000,3.397576904296875,-0.0007418422028422356,0.0011506029404699802,-0.000838723499327898
1771956745473541000,3.417541015625,0.0008584300521761179,-0.0007851403206586838,-0.0010844432981684804
1771956745493504000,3.43750390625,-0.001275425311177969,-0.0032388679683208466,0.0009509046794846654
1771956745513467100,3.457467041015625,0.00004204269498586655,-0.002060849219560623,0.0008812755695544183
1771956745533430000,3.477429931640625,-0.00006385007873177528,0.0008447347208857536,-0.0023550069890916348
1771956745553393200,3.49739306640625,0.0024761913809925318,0.0012038042768836021,-0.0012107990914955735
1771956745573356000,3.51735595703125,-0.0024164700880646706,0.0017676460556685925,-0.0012205515522509813
1771956745593319200,3.537319091796875,-0.0004376741126179695,0.00011261645704507828,-0.001272388268262148
1771956745613283000,3.557282958984375,0.002884821966290474,-0.0007547778077423573,-0.0013224690919741988
1771956745633246200,3.57724609375,-0.0003714705817401409,0.0003337087109684944,-0.0010861395858228207
1771956745653209000,3.597208984375,0.00021268939599394798,-0.001798852812498808,0.0019537468906491995
1771956745673172200,3.617172119140625,0.0004883224610239267,0.0010905959643423557,0.0009444429888390005
1771956745693135400,3.63713525390625,0.0027695558965206146,0.002232207451015711,-0.0005270153051242232
1771956745713098000,3.657097900390625,0.0005995500832796097,0.0002466728910803795,0.00026872294256463647
1771956745733062100,3.677062255859375,0.0024884419981390238,-0.0033015701919794083,-0.0005425236886367202
1771956745753025000,3.69702490234375,-0.0023732418194413185,0.0004902593791484833,0.0000402271980419755
1771956745772988200,3.71698828125,-0.0011362461373209953,-0.0016334643587470055,-0.0015254279132932425
1771956745792951000,3.736950927734375,0.0021440007258206606,-0.0022871503606438637,0.0018805463332682848
1771956745812914200,3.7569140625,-0.0021122656762599945,0.0043649449944496155,-0.0016761109000071883
1771956745832877000,3.776876953125,0.001510213827714324,0.0014732768759131432,0.001289742416702211
1771956745852840200,3.796840087890625,-0.0005796784535050392,0.0010174554772675037,-0.0018420403357595205
1771956745872804000,3.81680419921875,0.0008835596963763237,-0.0014908569864928722,-0.0007349063525907695
1771956745892767200,3.836767333984375,-0.00009013712406158447,-0.0023747505620121956,0.0005309614934958518
1771956745912730000,3.856730224609375,-0.001979899127036333,-0.0017870375886559486,0.002659251680597663
1771956745932693200,3.876693359375,0.0004631106276065111,-0.0012853131629526615,0.0022055385634303093
1771956745952656100,3.89665625,0.00016625085845589638,0.00038211606442928314,-0.00024285318795591593
1771956745972619000,3.916618896484375,-0.0003315592184662819,0.004767654929310083,-0.0005931142950430512
1771956745992582100,3.93658203125,0.0015754413325339556,0.0020348732359707355,-0.00005994673119857907
1771956746012546000,3.956546142578125,0.00013505388051271439,-0.002526886761188507,0.0016629784367978573
1771956746032509200,3.97650927734375,-0.0012948275543749332,-0.0032484158873558044,-0.00002313847653567791
1771956746052472000,3.99647216796875,-0.0009758030064404011,-0.0008254204876720905,-0.0012516998685896397
1771956746072435200,4.016435302734375,-0.0024693566374480724,0.002893314231187105,0.000604692380875349
1771956746092398000,4.036398193359375,0.0004564023111015558,0.0024253278970718384,0.001050278078764677
1771956746112361200,4.056361328125,0.0009434488601982594,-0.00001099100336432457,0.0015813368372619152
1771956746132325000,4.0763251953125,0.0003568381071090698,-0.00036910874769091606,0.0019353155512362719
1771956746152288300,4.096288330078125,0.0004321201704442501,-0.0025581675581634045,0.001264776336029172
1771956746172251100,4.116251220703125,-0.0024435785599052906,-0.003047330304980278,0.0012012452352792025
1771956746192214300,4.13621435546875,0.0006376809906214476,-0.0030793477781116962,-0.0016031062696129084
1771956746212177200,4.15617724609375,-0.00023273611441254616,0.0017596152611076832,-0.0002644061460159719
1771956746232140000,4.17614013671875,-0.0012372974306344986,0.002168677281588316,0.0012038996210321784
1771956746252103200,4.196103271484375,0.001149066025391221,-0.0014721732586622238,0.00024096050765365362
1771956746272067000,4.216067138671875,0.00026077358052134514,-0.0016231746412813663,0.0003682400565594435
1771956746292030200,4.2360302734375,-0.00024912692606449127,-0.004544026684015989,0.0010886116651818156
1771956746311993000,4.2559931640625,0.0004546577110886574,-0.0018089255318045616,0.000035971635952591896
1771956746331956200,4.275956298828125,0.0008322251960635185,-0.0023817974142730236,0.00008387782145291567
1771956746351919000,4.295919189453125,0.002423086203634739,0.0005847401916980743,-0.00016079738270491362
1771956746371882200,4.31588232421875,0.0012898810673505068,0.0018193996511399746,0.00015664845705032349
1771956746391845000,4.33584521484375,0.00140808941796422,-0.0003557763993740082,0.00007417140295729041
1771956746411809300,4.355809326171875,-0.0005001327954232693,-0.0012330301105976105,-0.00018872169312089682
1771956746431772200,4.375772216796875,0.0011017434298992157,-0.0006924858316779137,-0.0015202767681330442
1771956746451735300,4.3957353515625,0.000910548958927393,-0.0011463570408523083,-0.0004740823060274124
1771956746471698000,4.415697998046875,-0.0011757486499845982,0.001995949074625969,0.00113586091902107
1771956746491661000,4.4356611328125,0.0014877135399729013,0.001234217081218958,-0.0010087223490700126
1771956746511624200,4.455624267578125,-0.00009933020919561386,0.0016666115261614323,-0.0024408670142292976
1771956746531586300,4.47558642578125,0.001925287302583456,-0.0011799386702477932,0.0020092176273465157
1771956746551550700,4.49555078125,0.00009058136492967606,-0.0020943996496498585,0.0001525546540506184
1771956746571513300,4.515513427734375,0.0018950216472148895,-0.0037333518266677856,0.0004398853052407503
1771956746591476500,4.5354765625,-0.000328622292727232,-0.0033170818351209164,-0.00016425579087808728
1771956746611439400,4.555439453125,-0.0021558240987360477,0.0030159400776028633,-0.004442577715963125
1771956746631402500,4.575402587890625,0.0025557673070579767,-0.0005655214190483093,0.0012523920740932226
1771956746651365600,4.59536572265625,-0.0012360159307718277,0.000020176172256469727,-0.0008653785916976631
1771956746671328500,4.61532861328125,0.0004477126058191061,-0.001060251146554947,0.0001414010184817016
1771956746691292400,4.63529248046875,-0.0007216078229248524,-0.0025413292460143566,-0.0013785813935101032
1771956746711255600,4.655255615234375,-0.00246109114959836,0.00075946981087327,0.003736458020284772
1771956746731218700,4.67521875,0.0007219912949949503,0.002158608753234148,-0.0017695052083581686
1771956746751181600,4.695181640625,-0.0009384308941662312,0.0005448618903756142,-0.0013722453732043505
1771956746771144700,4.715144775390625,0.0017601146828383207,0.002452836837619543,-0.0001623191055841744
1771956746791107300,4.735107421875,-0.0002806144766509533,-0.0010969508439302444,0.000031488307286053896
1771956746811071700,4.75507177734375,-0.0001658671535551548,-0.0026134666986763477,-0.0001171785406768322
1771956746831034400,4.775034423828125,0.00012767920270562172,-0.0027059041894972324,-0.0008958611288107932
1771956746850997500,4.79499755859375,-0.001517580822110176,-0.0007431213743984699,0.0006015395629219711
1771956746870960400,4.81496044921875,0.0014142473228275776,-0.0014848187565803528,-0.0011892420006915927
1771956746890923500,4.834923583984375,-0.0007927259430289268,0.0020223837345838547,-0.0012845431920140982
1771956746910886400,4.854886474609375,-0.000967495609074831,0.0005606170743703842,0.0010809415252879262
1771956746930849500,4.874849609375,0.0010739474091678858,-0.00021945731714367867,-0.0007543686660937965
1771956746950812700,4.894812744140625,0.0011602086015045643,-0.0015400839038193226,0.0012911087833344936
1771956746970776600,4.914776611328125,-0.0022100061178207397,-0.0005113650113344193,0.0013959663920104504
1771956746990739500,4.934739501953125,-0.0015869978815317154,-0.0016079945489764214,0.001363026793114841
1771956747010702600,4.95470263671875,0.0012828283943235874,0.001775439828634262,0.002670277375727892
1771956747030665700,4.974665771484375,0.000928814522922039,0.002029058523476124,0.0015249850694090128
1771956747050628400,4.99462841796875,-0.0008654473349452019,0.001762020867317915,0.00021423515863716602
1771956747070591500,5.014591552734375,0.0016643726266920567,-0.0008304999209940434,0.0009383149445056915
1771956747090554400,5.034554443359375,-0.00029172515496611595,-0.002039247192442417,-0.0005075597437098622
1771956747110518500,5.0545185546875,-0.001413075253367424,-0.002655576914548874,0.000711573928128928
1771956747130481400,5.0744814453125,-0.0019626282155513763,0.001246417872607708,-0.0010793692199513316
1771956747150444500,5.094444580078125,-0.0015284125693142414,0.0026435949839651585,-0.0023912880569696426
1771956747170407400,5.114407470703125,0.00013265805318951607,0.002783707808703184,-0.0003778188838623464
1771956747190370600,5.13437060546875,0.002505748299881816,0.0008438373915851116,0.00012064154725521803
1771956747210333700,5.154333740234375,-0.0006069885566830635,-0.0015054079703986645,-0.0006561747286468744
1771956747230296600,5.174296630859375,0.0010339063592255116,-0.0017450512386858463,0.00007806823123246431
1771956747250260500,5.194260498046875,-0.003159833140671253,-0.00004978198558092117,-0.0008507632301189005
1771956747270223600,5.2142236328125,0.00024238042533397675,0.0016837851144373417,0.0005296178278513253
1771956747290186500,5.2341865234375,0.000524480827152729,0.0016584019176661968,-0.0009358337265439332
1771956747310149400,5.2541494140625,0.001658725319430232,0.0022153654135763645,-0.0000974843860603869
1771956747330112500,5.274112548828125,-0.00011324603110551834,-0.003275048453360796,0.0005532948998734355
1771956747350075400,5.294075439453125,-0.0012454958632588387,-0.0014017513021826744,0.0001321767340414226
1771956747370039600,5.31403955078125,-0.00009244214743375778,0.0009038057178258896,0.0006638135528191924
1771956747390002400,5.33400244140625,-0.001261917408555746,0.00038984790444374084,-0.0006842720322310925
1771956747409965600,5.353965576171875,-0.0000067194923758506775,0.0009582373313605785,-0.0010168845765292645
1771956747429928400,5.373928466796875,0.0007721218280494213,0.0028713075444102287,-0.003564938437193632
1771956747449891600,5.3938916015625,-0.0015470786020159721,0.001795781310647726,-0.0025292858481407166
1771956747469854700,5.413854736328125,0.0013873595744371414,-0.0013162759132683277,0.002797766588628292
1771956747489817600,5.433817626953125,-0.0007254062220454216,-0.0026260982267558575,0.0024124281480908394
1771956747509780500,5.453780517578125,0.00005312962457537651,-0.0006834655068814754,-0.000018270337022840977
1771956747529745000,5.473744873046875,-0.00022022612392902374,0.001588534563779831,0.0015264502726495266
1771956747549707800,5.493707763671875,0.0016772530507296324,0.0018601580522954464,0.0005611717351712286
1771956747569671000,5.5136708984375,-0.0022009829990565777,0.0017841886729001999,-0.001148441806435585
1771956747589634000,5.533634033203125,0.0009744106791913509,0.0019655567593872547,-0.0012134256539866328
1771956747609597000,5.553596923828125,-0.0004332577809691429,-0.00463749747723341,0.0018646670505404472
1771956747629560000,5.57356005859375,-0.0003513661213219166,-0.0023853080347180367,0.0008546622702851892
1771956747649522700,5.593522705078125,-0.001995802391320467,-0.0016386457718908787,0.0015639004996046424
1771956747669487000,5.613487060546875,-0.0010891626589000225,-0.00023109791800379753,-0.0022807661443948746
1771956747689449700,5.63344970703125,-0.0008532633073627949,0.0023931553587317467,-0.0012310848105698824
1771956747709412900,5.653412841796875,-0.0014504767023026943,-0.001318647526204586,0.0021765544079244137
1771956747729375700,5.673375732421875,-0.0008345157839357853,0.0008633499965071678,0.0003451665979810059
1771956747749339000,5.6933388671875,0.0010241044219583273,-0.0022301776334643364,0.0021856771782040596
1771956747769302000,5.713302001953125,-0.002087533473968506,-0.0013855700381100178,0.0018023999873548746
1771956747789265000,5.733264892578125,-0.0003688358701765537,-0.001200336031615734,0.0013084199745208025
1771956747809228800,5.753228759765625,0.000398402102291584,0.0034306226298213005,-0.0009144169162027538
1771956747829192000,5.77319189453125,-0.0005993042141199112,0.002298148814588785,0.00009526469511911273
1771956747849155000,5.793155029296875,-0.001001384574919939,-0.0004408806562423706,0.0008993087103590369
1771956747869118000,5.813117919921875,0.0034417924471199512,0.000027371104806661606,0.0017450149171054363
1771956747889081000,5.8330810546875,-0.0011737109161913395,-0.001681140623986721,0.0005848903092555702
1771956747909043700,5.853043701171875,0.0014949478209018707,-0.0024311807937920094,0.0003138934262096882
1771956747929006800,5.8730068359375,0.0013492319267243147,0.0004171379841864109,0.0012078031431883574
1771956747948970800,5.892970703125,0.001568709034472704,-0.001561090350151062,-0.00170553894713521
1771956747968934000,5.912933837890625,0.0005155520047992468,0.0018780296668410301,0.000159765244461596
1771956747988896800,5.932896728515625,0.0012346599251031876,-0.0004928484559059143,0.00019104685634374619
1771956748008860000,5.95285986328125,-0.0008344128727912903,-0.003770129755139351,0.0010720329592004418
1771956748028822800,5.97282275390625,-0.0007985602132976055,0.00036061322316527367,0.0007477775798179209
1771956748048786000,5.992785888671875,0.00021983403712511063,-0.0010415627621114254,-0.0029920374508947134
1771956748068749000,6.0127490234375,-0.0012946897186338902,0.003455695230513811,-0.0020818684715777636
1771956748088713000,6.032712890625,-0.0005413023754954338,0.0012731952592730522,-0.0011240653693675995
1771956748108675800,6.05267578125,-0.0003562364727258682,-0.0014691348187625408,-0.001408156706020236
1771956748128639000,6.072638916015625,0.001172585180029273,0.0008265012875199318,0.0010714269010350108
1771956748148602000,6.09260205078125,0.0001905369572341442,-0.002586941234767437,0.001554527785629034
1771956748168564700,6.112564697265625,0.0012271429877728224,-0.0014708633534610271,-0.0001405093353241682
1771956748188527900,6.13252783203125,0.0007260353304445744,-0.0009211655706167221,0.000971356697846204
1771956748208490800,6.15249072265625,0.0008054424542933702,-0.0007212795317173004,-0.0019289873307570815
1771956748228455000,6.172454833984375,-0.0013066804967820644,0.0021266015246510506,0.0012638585176318884
1771956748248417800,6.192417724609375,0.00097998371347785,0.001359372865408659,0.0003589286934584379
1771956748268381000,6.212380859375,0.0023752544075250626,-0.00005138060078024864,0.0005619917064905167
1771956748288343800,6.23234375,0.0013422740157693624,-0.0019669150933623314,0.0015763540286570787
1771956748308307000,6.252306884765625,0.0010350476950407028,-0.00003943080082535744,-0.0002059729304164648
1771956748328270000,6.27227001953125,-0.0012858156114816666,0.0015294193290174007,0.00013109587598592043
1771956748348233000,6.29223291015625,-0.0006275703199207783,0.0016287816688418388,-0.0010917698964476585
1771956748368196000,6.312196044921875,-0.0007589352317154408,0.0036111194640398026,0.0012898810673505068
1771956748388160000,6.332159912109375,-0.0008417759090662003,-0.00007451744750142097,0.0013633361086249352
1771956748408123000,6.352122802734375,0.0011171933729201555,-0.002520829439163208,0.00021722045494243503
1771956748428085800,6.372085693359375,0.00040259771049022675,-0.0018108817748725414,0.0022559259086847305
1771956748448049000,6.392048828125,0.0011586134787648916,0.0005108453333377838,-0.002447544364258647
1771956748468011800,6.41201171875,0.000506002688780427,0.0024808095768094063,-0.002218264155089855
1771956748487975000,6.431974853515625,0.0003734673373401165,-0.000306169968098402,0.0016225415747612715
1771956748507937800,6.451937744140625,0.00014784466475248337,0.0001667817123234272,-0.0015668761916458607
1771956748527902000,6.47190185546875,0.001428503543138504,0.0014959052205085754,-0.0024324478581547737
1771956748547864800,6.49186474609375,0.0006966947112232447,-0.0003928602673113346,0.0010896301828324795
1771956748567828000,6.511827880859375,0.0005839907098561525,-0.0024749794974923134,-0.000945915118791163
1771956748587790800,6.531790771484375,-0.0008890852332115173,0.0003064940683543682,0.00044808455277234316
1771956748607754000,6.55175390625,0.0025016055442392826,-0.0002481313422322273,0.0006520948372781277
1771956748627717000,6.571717041015625,0.0021909603383392096,0.001531144604086876,0.00019031099509447813
1771956748647680000,6.591679931640625,-0.0008505638688802719,-0.0007526627741754055,0.0001156619400717318
1771956748667643000,6.611642822265625,-0.0003627338446676731,-0.0034226696006953716,0.00046187295811250806
1771956748687607000,6.63160693359375,0.0005280640907585621,-0.002533414401113987,-0.0012821436394006014
1771956748707570000,6.65156982421875,0.0027164232451468706,-0.004731304012238979,0.0000065105268731713295
1771956748727532800,6.67153271484375,-0.0008842442184686661,0.0014319205656647682,-0.00032505125273019075
1771956748747496000,6.691495849609375,0.001186760375276208,0.0027517834678292274,-0.0017390847206115723
1771956748767458800,6.711458740234375,-0.0017912951298058033,-0.000465290155261755,0.0012720059603452682
1771956748787422000,6.731421875,0.0011499731335788965,-0.00014418968930840492,-0.0008809537976048887
1771956748807385000,6.751385009765625,-0.0009820121340453625,-0.0028659836389124393,0.0020468798466026783
1771956748827349000,6.771348876953125,0.0010242222342640162,-0.000993488822132349,0.0006485474295914173
1771956748847312000,6.791311767578125,-0.002035580575466156,0.0011688433587551117,-0.0024021617136895657
1771956748867275000,6.81127490234375,0.0012128199450671673,0.0008225347846746445,-0.0008380458457395434
1771956748887238100,6.831238037109375,-0.0016717738471925259,0.001219047699123621,-0.001064924756065011
1771956748907201000,6.851200927734375,0.0014855300541967154,0.002812029328197241,0.000012176402378827333
1771956748927164000,6.871163818359375,0.0007516839541494846,0.001067569013684988,-0.0002821934758685529
1771956748947126800,6.891126708984375,-0.0013712751679122448,-0.0020467014983296394,0.0010624933056533337
1771956748967090000,6.91108984375,-0.0013806265778839588,-0.004694570787250996,0.001248577842488885
1771956748987053800,6.9310537109375,0.0010780214797705412,-0.002328420989215374,0.0001394862774759531
1771956749007017000,6.951016845703125,0.0011804178357124329,0.0010397564619779587,0.0024591865949332714
1771956749026979800,6.970979736328125,0.0016972841694951057,0.0006786063313484192,0.0003046203055419028
1771956749046943000,6.99094287109375,-0.0008751372806727886,0.0018216813914477825,-0.00309675931930542
1771956749066905900,7.01090576171875,-0.0013006455264985561,-0.002520930487662554,-0.0010408759117126465
1771956749086869000,7.030868896484375,-0.0003549125976860523,-0.0014370288699865341,0.0012910265941172838
1771956749106832100,7.05083203125,-0.0006677065975964069,-0.0014325594529509544,-0.0008864325936883688
1771956749126796000,7.070796142578125,0.0006125557702034712,-0.0008819345384836197,-0.0003343026037327945
1771956749146759000,7.090759033203125,0.0004017651081085205,0.002388915978372097,-0.00046313871280290186
1771956749166721800,7.1107216796875,0.0005788509733974934,0.0025383634492754936,0.000017500249668955803
1771956749186685000,7.130684814453125,-0.0002941424027085304,-0.0023689200170338154,0.002636631252244115
1771956749206647800,7.150647705078125,0.0011205305345356464,-0.0011665895581245422,-0.0009480658918619156
1771956749226611000,7.17061083984375,-0.0007313000969588757,-0.0005903579294681549,0.00009909976506605744
1771956749246573800,7.19057373046875,0.0024709284771233797,-0.0030181733891367912,0.0008051050826907158
1771956749266537000,7.210536865234375,0.0025585247203707695,-0.0015757190994918346,-0.0002929359907284379
1771956749286500900,7.2305009765625,0.0015452879015356302,0.0016617989167571068,0.0009971229592338204
1771956749306464000,7.250464111328125,0.00211358186788857,-0.0009249718859791756,-0.0005842508981004357
1771956749326427000,7.270427001953125,0.0002610725350677967,0.00009701214730739594,0.0010887507814913988
1771956749346390000,7.29039013671875,-0.0004082103259861469,-0.0027266000397503376,0.00017649243818596005
1771956749366353200,7.310353271484375,-0.0018306379206478596,-0.0024859197437763214,0.0009792032651603222
1771956749386315800,7.330315673828125,0.0005211627576500177,0.0005006100982427597,0.0026785919908434153
1771956749406279000,7.35027880859375,-0.00011420669034123421,-0.0010066698305308819,0.000043024716433137655
1771956749426242800,7.370242919921875,0.0007133465260267258,0.0006956737488508224,-0.0013942207442596555
1771956749446206000,7.3902060546875,-0.00001451326534152031,-0.002178702037781477,0.001496551325544715
1771956749466168800,7.4101689453125,0.001531153917312622,-0.002024659886956215,0.0019456378649920225
1771956749486132000,7.430132080078125,0.0008763200603425503,-0.004600233398377895,0.000016017700545489788
1771956749506094800,7.4500947265625,-0.0024691401049494743,-0.001855859998613596,-0.00011729600373655558
1771956749526058000,7.47005810546875,0.0019060233607888222,0.00037405500188469887,-0.0023665009066462517
1771956749546020900,7.490020751953125,-0.001505532767623663,0.0024809683673083782,0.0003396527608856559
1771956749565984000,7.50998388671875,0.000003819353878498077,0.002065583597868681,-0.0011125681921839714
1771956749585948000,7.529947998046875,0.0015648496337234974,0.00222138874232769,-0.001291633932851255
1771956749605910800,7.549910888671875,0.0025848918594419956,-0.002398754470050335,-0.0017441195668652654
1771956749625874000,7.5698740234375,-0.00019451556727290154,-0.00212321849539876,0.0006604703958146274
1771956749645836800,7.5898369140625,-0.00005340436473488808,-0.0004131230525672436,-0.000941042962949723
1771956749665800000,7.609800048828125,0.0011174872051924467,0.002951445523649454,-0.0023100897669792175
1771956749685762800,7.6297626953125,0.0019607706926763058,0.0003464804030954838,0.0007497068727388978
1771956749705726000,7.649725830078125,0.00024720001965761185,0.0009813038632273674,0.0008105815504677594
1771956749725688800,7.669688720703125,0.0011662887409329414,-0.002508265431970358,-0.000023973174393177032
1771956749745653000,7.689653076171875,0.0010455965530127287,-0.0034239753149449825,-0.00235056784003973
1771956749765615900,7.709615966796875,-0.0014716829173266888,-0.0006170216947793961,0.000021638115867972374
1771956749785579000,7.7295791015625,-0.0023650238290429115,0.0012977994047105312,0.00026466575218364596
1771956749805542000,7.7495419921875,0.0010077143087983131,0.0010141339153051376,0.0010976147605106235
1771956749825504800,7.7695048828125,-0.0007997732609510422,0.003536582924425602,0.0013727431651204824
1771956749845468000,7.789468017578125,-0.001197147648781538,-0.00025738542899489403,0.0013172852341085672
1771956749865430800,7.8094306640625,0.0014120114501565695,-0.0017963219434022903,0.0013410488609224558
1771956749885394000,7.829393798828125,-0.002306171227246523,-0.0004006456583738327,0.0018454777309671044
1771956749905357800,7.84935791015625,-0.00016086548566818237,-0.0031041563488543034,0.0027685468085110188
1771956749925321000,7.869321044921875,-0.0010435269214212894,-0.003039059229195118,0.002703568898141384
1771956749945283800,7.889283935546875,0.0009240913204848766,0.0010930965654551983,-0.00021210801787674427
1771956749965247000,7.9092470703125,0.0015474113170057535,-0.00025751255452632904,-0.0006554214050993323
1771956749985209900,7.9292099609375,0.001592049142345786,-0.0006295558996498585,0.0005386194097809494
1771956750005173000,7.949173095703125,-0.0007255286909639835,-0.0004507792182266712,0.00012499827425926924
1771956750025135900,7.969135986328125,-0.0009468039497733116,-0.0020118942484259605,-0.000011356314644217491
1771956750045098800,7.9890986328125,-0.0022380631417036057,-0.0001835869625210762,0.0026971749030053616
1771956750065063000,8.00906298828125,-0.0018144077621400356,0.0035467324778437614,-0.001969902776181698
1771956750085025800,8.02902587890625,-0.0011051078327000141,0.00394056923687458,-0.0005985039751976728
1771956750104989000,8.048989013671875,-0.0015913289971649647,0.0018499805592000484,-0.0012737773358821869
1771956750124951800,8.068951904296876,-0.0005889087915420532,-0.00117932865396142,-0.0005789073184132576
1771956750144915000,8.0889150390625,-0.0009596431627869606,-0.002972617279738188,0.0011322335340082645
1771956750164877800,8.1088779296875,0.00014686258509755135,-0.002060703467577696,0.0013799099251627922
1771956750184841000,8.128841064453125,-0.0005021672695875168,0.0036810673773288727,-0.00040828861529007554
1771956750204803800,8.148803955078124,-0.0029508848674595356,0.0013793222606182098,-0.0011021738173440099
1771956750224768000,8.16876806640625,0.000558778177946806,0.000388080719858408,-0.0013201800175011158
1771956750244731000,8.18873095703125,0.0015028284396976233,0.001057763583958149,-0.0001478646299801767
1771956750264694000,8.208694091796875,-0.0021657352335751057,-0.0007336675189435482,-0.0011063794372603297
1771956750284657000,8.228656982421874,0.00048540602438151836,-0.0006513502448797226,0.001769745023921132
1771956750304619800,8.248619873046875,0.00027866289019584656,-0.002671442460268736,0.000970679335296154
1771956750324583000,8.2685830078125,0.0005110395140945911,-0.001151213888078928,-0.0007475183811038733
1771956750344545800,8.2885458984375,-0.0008320766501128674,0.001836590003222227,-0.0020356604363769293
1771956750364509000,8.308509033203125,0.002151528373360634,-0.001057114452123642,-0.0021684446837753057
1771956750384472800,8.328472900390626,0.0002800088841468096,0.001470259390771389,-0.000722149561624974
1771956750404436000,8.34843603515625,-0.0005854503251612186,-0.0005478379316627979,0.0027802358381450176
1771956750424398800,8.36839892578125,0.0020051307510584593,-0.003358693327754736,0.0006759163225069642
1771956750444362000,8.388362060546875,-0.0011437330394983292,-0.0024049668572843075,-0.0014444885309785604
1771956750464324900,8.408324951171876,-0.00046232063323259354,0.0009004506282508373,-0.0023290864191949368
1771956750484288000,8.4282880859375,-0.0029131555929780006,0.001714044250547886,-0.001192694529891014
1771956750504251000,8.4482509765625,-0.00040854141116142273,0.0011351220309734344,0.0006307598669081926
1771956750524213500,8.468213623046875,0.0020922294352203608,0.0011494401842355728,0.001202746294438839
1771956750544177400,8.488177490234374,-0.00062540452927351,-0.0021496196277439594,0.0021150086540728807
1771956750564140500,8.508140625,0.0010487246327102184,-0.002350008115172386,-0.00017732218839228153
1771956750584103700,8.528103759765624,0.0002591602969914675,-0.0015553799457848072,-0.0002763347583822906
1771956750604066600,8.548066650390625,0.0011705337092280388,0.0017322506755590439,-0.0010439648758620024
1771956750624029700,8.56802978515625,-0.0006497269496321678,0.0035674190148711205,-0.0000016738194972276688
1771956750643992300,8.587992431640625,-0.00021318485960364342,-0.001140145119279623,0.0008610695367679
1771956750663955500,8.60795556640625,0.0014635089319199324,0.00042396923527121544,0.0024991289246827364
1771956750683918600,8.627918701171875,0.00042237131856381893,-0.004828072153031826,0.0008632264798507094
1771956750703882500,8.647882568359375,-0.0002788328565657139,-0.0004053451120853424,0.0016128208953887224
1771956750723845400,8.667845458984376,-0.0016052420251071453,-0.0006656828336417675,-0.003228752873837948
1771956750743808500,8.68780859375,-0.0000613536685705185,0.002725536935031414,-0.0010771958623081446
1771956750763771600,8.707771728515626,-0.0006891251541674137,0.0036478498950600624,0.0008895914070308208
1771956750783734500,8.727734619140625,-0.0003213672898709774,0.0002336478792130947,0.0010421524057164788
1771956750803697700,8.74769775390625,0.0007899140473455191,-0.0019406410865485668,-0.0009055558475665748
1771956750823660500,8.76766064453125,-0.0012462371960282326,-0.0009798207320272923,-0.0023886740673333406
1771956750843623700,8.787623779296876,0.0010003827046602964,0.00025847507640719414,-0.0019454432185739279
1771956750863587600,8.807587646484375,0.0015531261451542377,0.0007300130091607571,-0.0009705781703814864
1771956750883550500,8.827550537109374,-0.0002748449333012104,0.0006908620707690716,-0.0002791989245451987
1771956750903513300,8.847513427734375,-0.002156563103199005,0.0008886214345693588,-0.0005326730315573514
1771956750923476500,8.8674765625,-0.00009733764454722404,0.00029721343889832497,-0.0015028517227619886
1771956750943439400,8.887439453125,0.00006313575431704521,-0.0021075247786939144,-0.001508766203187406
1771956750963402500,8.907402587890624,0.00036548380739986897,-0.0006947768852114677,-0.0002410999732092023
1771956750983365600,8.92736572265625,-0.00184699147939682,0.0011323126964271069,0.0015085306949913502
1771956751003328500,8.94732861328125,0.000256403349339962,0.0018901238217949867,-0.0014705833746120334
1771956751023291600,8.967291748046875,-0.00016861548647284508,0.0013070730492472649,0.0005151623045094311
1771956751043255600,8.987255615234375,0.0011983250733464956,0.001203309278935194,-0.0008394626784138381
1771956751063218700,9.00721875,-0.0027383118867874146,-0.00008180364966392517,0.002236508997157216
1771956751083181600,9.027181640625,-0.00035357801243662834,-0.0013910909183323383,0.0014183340827003121
1771956751103144400,9.04714453125,0.00007323315367102623,-0.0022146678529679775,0.00113915023393929
1771956751123107300,9.067107421875,0.0024678814224898815,-0.0020702267065644264,-0.001961017958819866
1771956751143070500,9.087070556640626,-0.0027458295226097107,0.0018183877691626549,0.000093146285507828
1771956751163033600,9.10703369140625,0.0014127576723694801,0.001499655656516552,0.0017274580895900726
1771956751182996500,9.12699658203125,0.0024569607339799404,-0.003919324837625027,0.0009091997053474188
1771956751202960400,9.14696044921875,-0.00027925102040171623,-0.0029140738770365715,0.0013445693766698241
1771956751222923500,9.166923583984374,0.0016878996975719929,-0.0017034555785357952,0.0027423191349953413
1771956751242886700,9.18688671875,-0.0013128402642905712,-0.0021975236013531685,-0.0009592575370334089
1771956751262849500,9.206849609375,-0.00024165865033864975,-0.0013737650588154793,-0.0012621213681995869
1771956751282812700,9.226812744140625,0.00022071902640163898,0.0005610892549157143,-0.0009031608351506293
1771956751302775600,9.246775634765624,-0.0001002834178507328,0.0009503159672021866,0.001119538675993681
1771956751322738400,9.266738525390625,-0.0005615237168967724,-0.0019392683170735836,0.0014625473413616419
1771956751342701300,9.286701416015624,0.00012137810699641705,-0.0029347436502575874,0.0026389993727207184
1771956751362665500,9.30666552734375,0.0005263471975922585,-0.0013633831404149532,-0.003608435858041048
1771956751382628400,9.32662841796875,-0.0012787990272045135,-0.00004624202847480774,-0.0019352359231561422
1771956751402591500,9.346591552734376,-0.0006977072916924953,0.0010404996573925018,-0.001087517593987286
1771956751422554400,9.366554443359375,-0.0009909383952617645,0.0011940374970436096,-0.0002924617729149759
1771956751442517500,9.386517578125,-0.0015599983744323254,0.0000618109479546547,0.0000454686232842505
1771956751462480600,9.406480712890625,-0.00027171429246664047,-0.002716135699301958,0.00031628849683329463
1771956751482443500,9.426443603515626,-0.002155114896595478,-0.002088770270347595,-0.0009503514738753438
1771956751502406700,9.44640673828125,0.0006971878465265036,-0.002696608193218708,0.002689974382519722
1771956751522369500,9.46636962890625,0.0014200832229107618,0.0003144913353025913,-0.003376019187271595
1771956751542333700,9.486333740234375,-0.001281830482184887,0.00313234468922019,-0.003339063376188278
1771956751562296600,9.506296630859374,-0.002035430632531643,0.005082348361611366,-0.0034543334040790796
1771956751582259700,9.526259765625,0.0008829792495816946,0.0014283615164458752,-0.00011116184759885073
1771956751602222300,9.546222412109374,-0.00137241929769516,-0.003287761937826872,0.0009567395900376141
1771956751622185500,9.566185546875,-0.0019583553075790405,-0.00157612981274724,-0.00002361286897212267
1771956751642148600,9.586148681640625,0.0004910642746835947,0.0025894069112837315,-0.0013956401962786913
1771956751662111500,9.606111572265625,0.0006245563272386789,0.0022939322516322136,-0.0012759276432916522
1771956751682074600,9.62607470703125,0.0005962683353573084,0.0018631699495017529,-0.000017952173948287964
1771956751702038500,9.64603857421875,-0.0005769152194261551,0.00010309135541319847,0.0004955260665155947
1771956751722001700,9.666001708984375,-0.0011086123995482922,0.0004064389504492283,0.001104939728975296
1771956751741964500,9.685964599609376,-0.0013584434054791927,-0.0026175985112786293,0.0017059501260519028
1771956751761927700,9.705927734375,-0.0013083829544484615,-0.0011809784919023514,0.0018289950676262379
1771956751781890600,9.725890625,-0.0006591263227164745,0.00233663571998477,-0.0008298367611132562
1771956751801853700,9.745853759765625,-0.0017518340609967709,0.0019227620214223862,-0.001378773245960474
1771956751821816300,9.76581640625,-0.0011960258707404137,0.002400378230959177,-0.00042972981464117765
1771956751841779500,9.785779541015625,0.0029275277629494667,-0.00023919809609651566,-0.002027676673606038
1771956751861742600,9.80574267578125,0.0004954207688570023,0.0016239243559539318,-0.00027630117256194353
1771956751881706500,9.82570654296875,-0.000014590565115213394,0.00029557105153799057,-0.0014918138040229678
1771956751901669400,9.84566943359375,-0.0014799311757087708,-0.0008113076910376549,0.0003213168238289654
1771956751921632500,9.865632568359375,-0.0009406334720551968,-0.0003676488995552063,-0.00042900402331724763
1771956751941595600,9.885595703125,0.0005359717179089785,-0.00009232806041836739,0.0007346185739152133
1771956751961558500,9.90555859375,-0.0006071818061172962,0.0022754883393645287,-0.0006992684211581945
1771956751981521700,9.925521728515625,-0.0011517694219946861,0.0008084704168140888,-0.0004162993864156306
1771956752001484500,9.945484619140625,0.001039956696331501,-0.001267444808036089,0.0009377565002068877
1771956752021447700,9.96544775390625,0.0005353614687919617,0.0006223595701158047,0.0013993503525853157
1771956752041411600,9.98541162109375,-0.003021414391696453,0.0003019813448190689,0.00008765235543251038
1771956752061374700,10.005374755859375,-0.0027468744665384293,0.0027860901318490505,-0.0022725514136254787
1771956752081337300,10.02533740234375,0.00006531830877065659,0.002084967214614153,0.0019198725931346416
1771956752101300500,10.045300537109375,0.0016022941563278437,0.0005844603292644024,0.0003962487680837512
1771956752121263600,10.065263671875,-0.0002835453487932682,-0.0031758113764226437,0.0008968777256086469
1771956752141226500,10.0852265625,-0.00023857085034251213,-0.002018759958446026,0.0017205961048603058
1771956752161189600,10.105189697265626,-0.0037415004335343838,-0.0006286553107202053,-0.0013919668272137642
1771956752181152500,10.125152587890625,-0.0017173495143651962,0.0024659759365022182,-0.0022647033911198378
1771956752201115600,10.14511572265625,-0.00002448633313179016,0.0010449131950736046,-0.0023872670717537403
1771956752221079600,10.16507958984375,-0.00025113392621278763,0.002061917446553707,-0.0027364694979041815
1771956752241042700,10.185042724609374,-0.0019495245069265366,0.0015331590548157692,-0.0012537837028503418
1771956752261005600,10.205005615234375,0.0009790859185159206,-0.0037944267969578505,0.0016763844760134816
1771956752280968700,10.22496875,0.00038323760963976383,-0.0037428296636790037,0.0022593142930418253
1771956752300931300,10.244931396484375,0.00043661636300385,0.0009568510577082634,-0.0012080653104931116
1771956752320894500,10.26489453125,-0.002506374381482601,0.001777490135282278,0.0003806899767369032
1771956752340857600,10.284857666015625,0.00036660279147326946,0.0009871008805930614,-0.001185998204164207
1771956752360820500,10.304820556640625,-0.000168689526617527,-0.0006715096533298492,-0.0000954460701905191
1771956752380783600,10.32478369140625,0.00215741666033864,-0.0035675992257893085,-0.0010056645842269063
1771956752400747500,10.34474755859375,0.0005714553408324718,-0.0007363902404904366,0.0016054173465818167
1771956752420710700,10.364710693359376,0.000004886183887720108,-0.0016031591221690178,-0.00002657866571098566
1771956752440673500,10.384673583984375,-0.00007635913789272308,0.0012588324025273323,-0.001285809325054288
1771956752460636700,10.40463671875,0.0009262622334063053,0.0008260277099907398,-0.0003225618274882436
1771956752480599600,10.424599609375,-0.00023633800446987152,0.0016115382313728333,-0.0034308689646422863
1771956752500562700,10.444562744140624,-0.0015967031940817833,0.0003363201394677162,-0.0005442328983917832
1771956752520525600,10.464525634765625,0.00042985426262021065,-0.0025958772748708725,-0.0004579134692903608
1771956752540488400,10.484488525390624,-0.0013568638823926449,-0.002701607532799244,0.0006856555701233447
1771956752560451600,10.50445166015625,0.000955711118876934,-0.0025779916904866695,-0.000907906040083617
1771956752580415500,10.52441552734375,0.001751946983858943,-0.0009216051548719406,0.0024569197557866573
1771956752600378600,10.544378662109375,0.00023902440443634987,0.003248870838433504,-0.0026528029702603817
1771956752620341200,10.56434130859375,0.0018609201069921255,0.0020689163357019424,-0.0005494095967151225
1771956752640304400,10.584304443359375,0.0011539568658918142,-0.001240080688148737,0.0035921758972108364
1771956752660267300,10.604267333984374,-0.0005683754570782185,-0.0020333686843514442,0.0021584753412753344
1771956752680230400,10.62423046875,-0.002283522393554449,-0.0012659747153520584,-0.0011150662321597338
1771956752700193300,10.644193359375,-0.0011798320338129997,0.00201470497995615,-0.0006430923822335899
1771956752720156400,10.664156494140625,0.0013156274799257517,0.0022825095802545547,0.0005711817648261786
1771956752740119600,10.68411962890625,0.0005374536849558353,0.0007721846923232079,-0.0002479907125234604
1771956752760083500,10.70408349609375,-0.00196172297000885,0.026017336174845695,0.04737856239080429
1771956752780046300,10.72404638671875,-0.00017816340550780296,-0.041848331689834595,-0.03975595906376839
1771956752800009500,10.744009521484376,0.0014598704874515533,-0.0027314452454447746,-0.0021392018534243107
1771956752819972400,10.763972412109375,0.0055788662284612656,0.014357347041368484,-0.00564234983175993
