time,seconds_elapsed,z,y,x
1771957080964024000,0.029024169921875,-0.04675765952169895,-0.003073416095972061,0.09508212996870279
1771957080983989000,0.048989013671875,-0.15153145468235016,-0.07400397836565971,0.04770195463448763
1771957081003954000,0.068953857421875,-0.03796352769136429,-0.03231003197431564,-0.0010119535215198992
1771957081023919000,0.088919189453125,-0.04230184915661812,0.019922844088077544,0.007571604298055172
1771957081043884000,0.108884033203125,0.107301267811656,-0.015740589967370034,0.06814663063958287
1771957081063849000,0.128848876953125,0.10600947443544864,0.03809212250709534,0.057818274979293344
1771957081083812900,0.148812744140625,0.041432080584764476,0.04431026636958122,-0.03285086085274815
1771957081103778000,0.168778076171875,0.10524491980373858,0.0461409889280796,-0.02082797623425722
1771957081123743000,0.188742919921875,-0.011593991681933402,0.021155016231536865,-0.021473872922360897
1771957081143708000,0.2087080078125,-0.007611644047498703,0.07945581403076649,0.014060674056410788
1771957081163672800,0.2286728515625,-0.07128595157861708,0.07789397154152393,0.05661328310370445
1771957081183638000,0.248637939453125,-0.05588613787293434,-0.0007277297526597976,-0.023903292026370763
1771957081203603000,0.26860302734375,-0.05592354727387428,-0.04173778553307056,-0.04230827889740467
1771957081223567000,0.288567138671875,0.010487491744756699,-0.04080138146579265,0.049992988181114195
1771957081243532000,0.308531982421875,-0.007235211950540542,-0.0022930793732404706,0.08970423632264136
1771957081263497200,0.328497314453125,-0.12919687327742577,0.01445931798517704,0.04671674298942089
1771957081283462100,0.348462158203125,-0.13696984536647797,0.030296354064345356,0.014433745152503251
1771957081303427000,0.368427001953125,-0.13633505459427833,0.011012392401695251,0.0461368972748518
1771957081323392000,0.38839208984375,-0.07366320210397242,0.0352396556854248,0.0299928410731256
1771957081343357200,0.408357177734375,0.009236614900827408,0.053230654928088185,0.028089053278416393
1771957081363322000,0.428322021484375,0.0570335543423891,0.011069675546884535,-0.025197277359664438
1771957081383286000,0.4482861328125,0.15804478209912776,0.02352057631909847,0.008487550099194049
1771957081403251000,0.4682509765625,0.14199907170534132,0.053286769029498096,0.039620647248625754
1771957081423216000,0.488216064453125,0.12723287972807884,0.0509469279050827,0.01652867160513997
1771957081443181000,0.50818115234375,-0.011650690305233,0.05866144780516624,0.02376023029386997
1771957081463146000,0.52814599609375,-0.06897533654868603,0.058524085161089895,0.004122194496542215
1771957081483111000,0.54811083984375,-0.033439912787079806,0.06859422827661037,0.039472909341007466
1771957081503076000,0.568076171875,-0.002970540243387222,0.03744154964387417,0.06319499958157539
1771957081523041000,0.588041015625,-0.02969020486474037,0.011385317367315292,0.041411476188153024
1771957081543006000,0.608005859375,-0.0685235011279583,-0.04094049767553806,0.012668196784704922
1771957081562969900,0.627969970703125,-0.09314823929667472,-0.03300853563249111,0.0006518880374729633
1771957081582935000,0.64793505859375,-0.01917348702549934,-0.0257283154964447,0.04093494471758604
1771957081602900000,0.66789990234375,-0.011782207730412483,0.008688917890191078,0.05809723805114626
1771957081622865000,0.687864990234375,-0.056932432055473325,-0.03126724492311477,0.0069717387087643145
1771957081642829800,0.707829833984375,0.008712883287668227,-0.0326209976196289,-0.025226503454148768
1771957081662795000,0.727794921875,0.07160860766172408,0.004437690186500549,0.008798077353090048
1771957081682760000,0.747760009765625,0.010216273587942123,-0.010909516549110413,0.07984758982732891
1771957081702724900,0.767724853515625,-0.07399228792786598,0.03274666982591152,-0.024467355649918317
1771957081722690000,0.78768994140625,-0.02333236027061939,0.07426292156279087,0.07066665063649416
1771957081742655000,0.807655029296875,-0.03344634252786636,0.11587795749902724,0.06558920124173163
1771957081762619100,0.827619140625,0.03921031288206577,0.10283318248689174,0.09527911384552716
1771957081782584000,0.847583984375,0.02922784804999828,0.040221535751223565,0.06650317428149283
1771957081802549200,0.86754931640625,0.002227612921595573,0.03696399526000023,0.06764306503161788
1771957081822514200,0.88751416015625,-0.04531505949795246,0.06448971556723117,0.0664024173207581
1771957081842479000,0.90747900390625,-0.12441665326356888,0.08035130156576634,0.04329823978282511
1771957081862444300,0.9274443359375,-0.11542495303452015,0.061545478808879846,0.023554478588700294
1771957081882409200,0.9474091796875,-0.051582303199172015,-0.05669570069015026,-0.025694267096370457
1771957081902374100,0.9673740234375,-0.07208499300181866,-0.09659224227070808,-0.0789157888699323
1771957081922339300,0.98733935546875,-0.08401040859520435,-0.03653612523674965,-0.06115647949129343
1771957081942304300,1.00730419921875,-0.006870470291376113,-0.028436405411362647,-0.0431435606777668
1771957081962269200,1.027269287109375,0.02865852372944355,-0.021412790384888646,0.05101370953097939
1771957081982233300,1.0472333984375,-0.01976443865597248,-0.03712064712643623,0.016010566015169023
1771957082002198300,1.0671982421875,0.012490063738822936,-0.05516659142673015,-0.014681436303257942
1771957082022163200,1.0871630859375,0.052181438136100766,0.002543254742026329,-0.003260170839726925
1771957082042128400,1.10712841796875,-0.027298341292142866,0.036948797690868375,0.0437220912180841
1771957082062093300,1.12709326171875,-0.1570142700076103,0.05357201571166515,-0.0071439534705132245
1771957082082058200,1.147058349609375,-0.26258476850390433,0.08895078760683536,-0.08252937625721096
1771957082102023400,1.1670234375,-0.25760814913511276,0.16827917586565017,-0.04291983492448926
1771957082121988400,1.18698828125,-0.19108371286988257,0.17511632840931415,0.08780300581119954
1771957082141953300,1.206953369140625,-0.1655892061293125,0.07869593557417393,0.014779124524071811
1771957082161918200,1.226918212890625,-0.3507131338119507,0.08577975635528563,-0.7578587873332202
1771957082181883400,1.24688330078125,-0.2026426332384348,0.08888532115519046,-0.28945158651098607
1771957082201848300,1.266848388671875,-0.26434534843564034,0.17146657373011112,-0.15847615925371647
1771957082221813200,1.286813232421875,-0.12771160315573216,0.19792612611055374,0.08613207692429423
1771957082241778400,1.3067783203125,0.025526070922613144,0.17852701363563536,0.32298297697380185
1771957082261742300,1.326742431640625,0.23300036210119723,0.04419453103542328,0.3563637069195509
1771957082281707300,1.346707275390625,0.4152992954909801,-0.11256897908151149,0.23704510744735596
1771957082301672200,1.366672119140625,0.41917584466338154,-0.11985095278322697,0.1209853636406362
1771957082321637000,1.38663720703125,0.36896950599253175,-0.08045826907157898,0.14369623101204632
1771957082341602300,1.406602294921875,0.17537001090943813,-0.13507657896578312,0.039512949090451
1771957082361567200,1.426567138671875,0.1328542267411947,-0.12068506551980972,-0.11209025565385818
1771957082381532200,1.4465322265625,0.1468026725947857,-0.03448562244772911,-0.08859466764554381
1771957082401497300,1.466497314453125,0.07784428718090057,0.0009025017976760864,0.026453561031073332
1771957082421462300,1.486462158203125,0.11659107420444488,0.023535189366340636,0.07377893743813037
1771957082441427200,1.50642724609375,-0.012915595674514769,0.0701835432946682,0.034074265167862175
1771957082461392100,1.52639208984375,-0.09286533070206641,0.08090425927340984,-0.03602379180043935
1771957082481357300,1.546357421875,-0.13030746486783026,0.061713821113109586,-0.033854192676395174
1771957082501322200,1.566322265625,-0.01386544374525547,0.03690846568048,0.011324234829843044
1771957082521287200,1.586287109375,0.07626958521008491,0.06169803902208805,0.16830664839446544
1771957082541252400,1.60625244140625,0.16231237641572951,0.10826865153908728,0.32601693784222
1771957082561217300,1.62621728515625,0.2933329579889774,0.14663900646567343,0.4873115155175328
1771957082581182200,1.64618212890625,0.33871465298235415,0.17492343618571757,0.41849721474945545
1771957082601147100,1.666147216796875,0.19200901102125645,0.05818272437751293,0.1426699567042291
1771957082621111000,1.686111083984375,-0.04808160160183906,0.0316799173772335,-0.16935893392637372
1771957082641076200,1.706076171875,-0.1435164905309677,-0.004561608827114105,-0.2518663906127214
1771957082661041200,1.726041259765625,-0.34233985774219033,-0.007311199796199798,-0.2867695808853954
1771957082681006000,1.746006103515625,-0.4764303482800722,0.033005613023042675,-0.335671705089882
1771957082700971300,1.76597119140625,-0.5828899045705795,-0.039212650969624514,-0.3257661048863083
1771957082720936200,1.785936279296875,-0.8501414958417415,-0.020729484295845032,-0.3256675398826599
1771957082740901000,1.805901123046875,-1.2119646372109651,0.0014449381113052367,-0.4930523972570896
1771957082760866000,1.825865966796875,-1.3697078060150145,0.01768646333813667,-0.670901511631161
1771957082780831200,1.845831298828125,-1.1868722815304993,0.1546492944419384,-0.6420876512095332
1771957082800796200,1.865796142578125,-0.5125298356652259,0.08272387591600418,-0.5044567115858197
1771957082820761000,1.885760986328125,0.11728197907805442,0.008443418696522712,-0.23588249340876935
1771957082840725800,1.905725830078125,0.38450259068906306,-0.015625439155101777,0.053163581041246646
1771957082860690700,1.925690673828125,0.570156679725647,0.10472703340947627,0.16365750741437077
1771957082880656000,1.94565576171875,0.5721896468579769,0.2613742236703634,0.2745855874210596
1771957082900620800,1.965620849609375,0.4719190083354711,0.22797931906878946,0.32933556087091564
1771957082920585700,1.985585693359375,0.2688607800334692,0.2752332376748323,0.2012245831340551
1771957082940550700,2.005550537109375,0.0883306098818779,0.32397534901201724,0.18573606823161243
1771957082960515800,2.025515869140625,0.023682488882541656,0.3750198920726776,0.2524745856389403
1771957082980480800,2.045480712890625,0.05722060134708881,0.22318390148580072,0.3541325868666172
1771957083000445700,2.06544580078125,-0.0006797989577054977,0.272581846383214,0.32492607386559247
1771957083020411000,2.085410888671875,-0.03718406775146722,0.15434242044985294,0.3036659898243844
1771957083040375800,2.105375732421875,-0.02135784532725811,0.08298515720069408,0.15666238783001898
1771957083060340700,2.1253408203125,0.002328150686621666,0.1071872860431671,0.015857348214834928
1771957083080305700,2.1453056640625,0.03286094385534525,-0.11811842990219593,-0.09290069427639246
1771957083100270800,2.165270751953125,0.021053017161786557,-0.1623304965943098,-0.166314743924886
1771957083120234800,2.18523486328125,0.051390580019354815,-0.23414602500498294,-0.10212693391367793
1771957083140199700,2.20519970703125,-0.010308628046512603,-0.23785715448260306,-0.07175751461312174
1771957083160164600,2.22516455078125,0.03864215760529041,-0.161563603875041,0.01941211808696389
1771957083180129800,2.2451298828125,-0.015441022498905659,-0.17480536276400088,-0.02393967851400375
1771957083200094700,2.2650947265625,-0.10374299080818891,-0.1673661526739597,-0.12844459360539912
1771957083220059600,2.2850595703125,0.32313276070803404,0.0901426277399063,0.03809650642126798
1771957083240024600,2.305024658203125,0.6170856041610241,0.1699421406418085,0.4356986710496247
1771957083259989800,2.32498974609375,0.5062082314282655,0.1375689803034067,0.3336696445524692
1771957083279954700,2.34495458984375,0.31853754187226296,0.16605682364106178,0.044877983254939316
1771957083299919600,2.364919677734375,-0.004662146592140198,0.12594751609265803,-0.1077042956545949
1771957083319884800,2.384884765625,-0.029929274317622184,0.07253682842254638,-0.023604747471213338
1771957083339849700,2.404849609375,0.03696078038960695,0.0944125601440668,0.038999300479888914
1771957083359814700,2.424814697265625,0.03200081989467144,0.04933773914277553,0.11210209222212433
1771957083379779600,2.444779541015625,-0.07959142310917378,0.04512099823057651,0.18718480573520063
1771957083399744800,2.464744873046875,-0.08826806603968143,0.003454524368047714,0.1478486745163798
1771957083419709700,2.484709716796875,-0.009881634806096553,-0.04304068482518196,0.09858926130682229
1771957083439674600,2.504674560546875,-0.09229834446907043,-0.06391629959344863,0.03908946298137307
1771957083459639800,2.524639892578125,-0.11629413708448409,-0.030264205360412594,0.038985125824064014
1771957083479604700,2.544604736328125,-0.10084873067140579,0.027397710013389587,-0.006833353151381016
1771957083499569700,2.564569580078125,0.016719664132595062,0.02638005740344524,0.04254164926186204
1771957083519534600,2.58453466796875,0.1128910506427288,0.04982172326743602,0.12054741061478852
1771957083539499800,2.604499755859375,0.08305120817422866,0.09091828828752041,0.09640490300506353
1771957083559464700,2.624464599609375,-0.01645516797751188,0.09046469930112361,-0.010021920059621334
1771957083579429600,2.6444296875,0.058175417853891846,0.10019874233007431,-0.1032825336895883
1771957083599394600,2.66439453125,0.08840601320564746,0.07380524092316627,-0.003554185350239277
1771957083619359700,2.68435986328125,-0.10153788197934627,0.035980244919657706,0.017959873452037572
1771957083639324700,2.70432470703125,-0.026924247282743452,-0.01730710863173008,-0.013920681063830851
1771957083659289600,2.72428955078125,0.10939327165484428,-0.06445405973196029,-0.04281695907190442
1771957083679254800,2.7442548828125,0.06926876653730869,-0.018920973569154738,0.0034139000967144963
1771957083699219700,2.7642197265625,-0.12444295674860477,-0.005720131212472915,0.05402180530577898
1771957083719184600,2.7841845703125,-0.21420856786966322,0.044049569606781004,0.05133987274542451
1771957083739149600,2.804149658203125,-0.14611702841818333,0.05948445462584495,0.000431523285061121
1771957083759114800,2.82411474609375,-0.1028349360525608,0.008648001357913018,0.038663054262846705
1771957083779079700,2.84407958984375,-0.09079027799367904,0.014582652103900908,0.04778758709132671
1771957083799044600,2.864044677734375,-0.05288403344750404,0.07835808192193508,0.07800488457009196
1771957083819009800,2.884009765625,-0.1056365494698286,0.09345978946387767,0.0660480509251356
1771957083838975200,2.903975341796875,0.02620411631464958,0.10570376948714255,0.08277166058048606
1771957083858940400,2.9239404296875,0.14360650690197943,0.08883096061944962,0.11071852890923618
1771957083878905300,2.9439052734375,0.07304770055413246,0.06813070241808891,0.0635178017951548
1771957083898870300,2.963870361328125,-0.03785246853232384,0.05561199710667133,-0.01163461595326662
1771957083918835200,2.983835205078125,-0.05565817433595657,0.05038344880342483,-0.04450213567987084
1771957083938800400,3.00380029296875,0.011480594435334205,0.015129180070757866,-0.004276946666836738
1771957083958765300,3.023765380859375,-0.003849661165475845,0.03556523437798023,0.03302943229004741
1771957083978730200,3.043730224609375,0.01799976707100868,0.016936521753668783,0.02901566660404205
1771957083998695400,3.0636953125,0.011857611054182052,-0.00986263784468174,-0.07385083363056183
1771957084018660400,3.083660400390625,-0.04477203866243362,-0.00746317548751831,0.02241188442483544
1771957084038625300,3.103625244140625,-0.05294190111458301,-0.002140519160032272,0.0026049218013882635
1771957084058590200,3.123590087890625,-0.1963455789208412,-0.004122048366069793,-0.03457081651315093
1771957084078555400,3.143555419921875,-0.16558686804175377,-0.03758300394117832,-0.07201046646088362
1771957084098520300,3.163520263671875,-0.13334230251908302,-0.0219072959035635,-0.020639175663888454
1771957084118485200,3.1834853515625,-0.06633037499785423,0.02763619494438171,0.059724254731088874
1771957084138450200,3.2034501953125,-0.05933949319720268,0.015144962161779402,0.0729724433608353
1771957084158415400,3.223415283203125,-0.1284416709959507,0.0249877262622118,-0.022560352984815835
1771957084178380300,3.24338037109375,-0.15308862099647522,0.036108839735388754,-0.05002908240780234
1771957084198345200,3.26334521484375,-0.060488078710436814,0.09690846861302851,-0.0206806767180562
1771957084218310400,3.283310302734375,0.05793430257439613,0.08661211552619934,0.023789017996937036
1771957084238275300,3.303275390625,0.012778817552328108,0.0659264703720808,0.004451280320435762
1771957084258240300,3.323240234375,-0.03906301336586475,0.03494564117491245,-0.04348915924504399
1771957084278205200,3.343205078125,-0.040922377496957776,0.004320785808563233,-0.05900675411149859
1771957084298170400,3.36317041015625,-0.03753039697110653,-0.018448095360398292,0.01238828386478126
1771957084318135300,3.38313525390625,-0.03048749272227287,0.021687515673041342,0.0893251008119434
1771957084338100200,3.403100341796875,-0.03470072650313377,-0.010960369953513144,0.01621880193836987
1771957084358065400,3.4230654296875,-0.06763911950886249,-0.008634557354450225,-0.058050768560916184
1771957084378030300,3.4430302734375,-0.0010614917516708372,-0.014303835162520408,-0.09219656459502876
1771957084397995300,3.462995361328125,-0.06347557008862495,-0.03878770355582237,-0.056527869842574
1771957084417960200,3.482960205078125,-0.0832107826501131,-0.012013093876838684,-0.010505831119045614
1771957084437925400,3.50292529296875,-0.10305062462985515,0.05875263321995735,0.034443317675963044
1771957084457890300,3.522890380859375,-0.039866730964183805,0.08810498443245887,0.04067797428183258
1771957084477855200,3.542855224609375,-0.04224807314276695,0.05267711269855499,0.038938948594778776
1771957084497820200,3.562820068359375,0.017675357422232627,0.0426554848998785,0.029145503528788683
1771957084517785300,3.582785400390625,0.031683424508571624,0.003629296413064003,0.041970644440874456
1771957084537750300,3.602750244140625,0.0011906710892915725,0.030506197422742843,0.04614873384311795
1771957084557715200,3.622715087890625,-0.04447977771759033,0.04897708913683891,0.00033200843334198
1771957084577680400,3.642680419921875,-0.061487611141800874,0.058795887839794156,0.042493718466907734
1771957084597645300,3.662645263671875,-0.06622399201393127,0.056447863408923146,0.06189750711694359
1771957084617610200,3.6826103515625,-0.03622399054765701,0.05914075575470924,0.0631349399574101
1771957084637575200,3.7025751953125,0.01911386579275131,0.009086392775177955,-0.027333631801232695
1771957084657540400,3.722540283203125,-0.00984860931932926,-0.009932195949554443,-0.046525458201020956
1771957084677505300,3.74250537109375,0.005316811108589172,0.011095979031920432,-0.01650894399136305
1771957084697470200,3.76247021484375,0.0647936669498682,0.021959902873635292,0.02083243321366608
1771957084717435400,3.782435302734375,0.08922960454821587,0.006292962664365768,0.09570815291255712
1771957084737400300,3.802400390625,0.027506431084871292,0.05125146380960941,0.058527957618609065
1771957084757365200,3.822365234375,-0.027670097213983533,0.0002776478976011276,0.018129677060991525
1771957084777330200,3.842330078125,-0.02645779881477356,-0.019479191973805425,-0.007741115646064281
1771957084797295400,3.86229541015625,-0.06758008279800415,-0.007191372808814048,0.023015695536881684
1771957084817260300,3.88226025390625,-0.1064379289805889,0.006471826362609863,0.03912051570676267
1771957084837224400,3.902224365234375,-0.09096797264814377,0.008877718460559845,0.05188077468909323
1771957084857189400,3.922189453125,-0.119871411049366,0.03715279583036899,0.03800875507257879
1771957084877154600,3.942154541015625,-0.16159224544763565,0.03522913429141045,-0.00008344049975275993
1771957084897119500,3.962119384765625,-0.08202244964838028,0.007580664387345314,0.013452040638774632
1771957084917084400,3.98208447265625,-0.0033878888726234435,0.011725509107112883,0.015708002872020007
1771957084937049300,4.00204931640625,0.037920273071527476,0.016115268498659133,-0.021479133619368075
1771957084957014500,4.0220146484375,0.07206395021378993,-0.0016045125871896743,0.018572087066248057
1771957084976980500,4.04198046875,0.03010930705964565,-0.011028759014606475,0.035299496113881466
1771957084996945700,4.061945556640625,-0.023720482805371285,-0.01642915675342083,-0.0324859730631113
1771957085016910600,4.08191064453125,-0.05945639757514,-0.04719488189518451,-0.041704540850594635
1771957085036875500,4.10187548828125,0.08423544952273368,-0.15110066204965114,-0.004061111959069967
1771957085056840400,4.12184033203125,0.0018453356057405472,-0.06377718338370322,-0.00865457722917199
1771957085076805600,4.1418056640625,-0.08980477408766746,-0.06758534349501133,-0.05890650860741734
1771957085096770600,4.1617705078125,-0.2245674647986889,-0.08436872051358223,-0.16090338640064
1771957085116735500,4.181735595703125,-0.18531915799379348,0.0361982715845108,-0.12784874660409987
1771957085136700400,4.201700439453125,-0.09723872348070144,0.1332984633773565,-0.041835692949593065
1771957085156665600,4.22166552734375,-0.23064181627631186,0.1244675066679716,-0.05749342693910003
1771957085176630500,4.241630615234375,-0.5848802016049623,0.14283961418271063,-0.12154460495859384
1771957085196595500,4.261595458984375,-0.8544201960742474,0.12911679377853869,-0.34751711424961684
1771957085216560600,4.281560546875,-0.8022855196893215,0.16571780094504354,-0.33583953593745824
1771957085236525600,4.301525634765625,-1.0483575448095799,0.19613865817189216,-0.49092634501382704
1771957085256490500,4.321490478515625,-0.8090905235290526,0.30837621334195137,-0.418769455819577
1771957085276455400,4.341455322265625,-0.07625438764095306,0.2795914328843355,-0.11019245920851826
1771957085296420600,4.361420654296875,0.6604138737559319,0.075861004409194,0.43842400436028833
1771957085316385500,4.381385498046875,0.894546454757452,-0.06143383512794971,0.6784846602365374
1771957085336350500,4.4013505859375,0.7724339867830275,-0.030081250008940696,0.4162723783068359
1771957085356315600,4.421315673828125,0.623391426306963,0.016858195820450783,0.12232158068045973
1771957085376280600,4.441280517578125,0.6099608668476343,0.03769172501266002,0.08799407140389084
1771957085396245500,4.46124560546875,0.7558528543382883,0.06210252816975116,0.24542145225703715
1771957085416210400,4.48121044921875,0.8913666556775569,-0.026087211936712262,0.35445495068877936
1771957085436175600,4.501175537109375,0.6806441763579845,0.03499415649175644,0.24825141498595474
1771957085456140500,4.521140625,0.3377671429991722,0.09552198269069194,0.08639657307937741
1771957085476105500,4.54110546875,0.11245441279113293,0.10778700550198554,0.0007590016737580299
1771957085496070700,4.561070556640625,-0.055931730580329894,0.06321311976015567,-0.05736483212336897
1771957085516035600,4.58103564453125,-0.07909574854671955,0.03131225310862064,-0.09578370236679912
1771957085536000500,4.60100048828125,-0.14307400746047497,-0.04829261400401592,-0.002233896531909704
1771957085555965400,4.62096533203125,-0.20756664563715457,-0.1027566101193428,-0.02285933593139052
1771957085575930600,4.6409306640625,-0.15709727211594582,-0.13437339913249016,-0.017638678673654793
1771957085595895600,4.6608955078125,-0.06180325296223163,-0.11208557947874069,0.03721124801933765
1771957085615860500,4.680860595703125,0.014254150801897049,-0.05266133060753345,0.054501990038156506
1771957085635825400,4.700825439453125,0.15718495039939878,-0.0011789806514978407,0.13512129489034413
1771957085655790600,4.72079052734375,0.211892692142725,0.02031856540739536,0.1725143292173743
1771957085675755500,4.740755615234375,0.06210778886675834,-0.010846972706913947,0.1215146482117474
1771957085695720400,4.760720458984375,0.1108732810795307,0.022680033841729164,0.040334494606405494
1771957085715685600,4.780685546875,0.010949848559498786,-0.024979542955756186,0.03563113922104239
1771957085735650600,4.800650634765625,-0.04400806855261326,0.04565408219397068,-0.06595233546569942
1771957085755615500,4.820615478515625,-0.14324293428659438,0.1315472357958555,-0.1303618254035711
1771957085775580400,4.840580322265625,-0.19402561154067516,0.07653729623556137,-0.1270597151182592
1771957085795545600,4.860545654296875,-0.36319559876620766,0.09817512754797934,-0.20829203730225562
1771957085815510500,4.880510498046875,-0.545068415698409,0.1195177753061056,-0.31230259300544855
1771957085835475700,4.900475830078125,-1.0185223785161972,0.08386252455711364,-0.4470229058794677
1771957085855440600,4.920440673828125,-1.6697364622503519,0.10309095664024352,-0.621841274255514
1771957085875405800,4.94040576171875,-1.8398346702367065,0.21549685411453245,-0.7324825001448393
1771957085895370800,4.960370849609375,-1.201378945788741,0.24994915881454943,-0.5958668750435113
1771957085915335700,4.980335693359375,-0.6748913119196891,0.16014672281444073,-0.2579717217504978
1771957085935300600,5.000300537109375,0.019933365482091903,0.12947919735014438,-0.016139818418025968
1771957085955265800,5.020265869140625,0.5858920089960098,0.2531535078138113,0.21298063350990412
1771957085975230700,5.040230712890625,0.844718886271119,0.32661095821261404,0.2327908110037446
1771957085995195600,5.060195556640625,1.0517319896787405,0.2026508165448904,0.21408990992605684
1771957086015160600,5.08016064453125,1.2088462129294872,-0.05432429538369178,0.2391591769918799
1771957086035125800,5.100125732421875,0.9064724548727273,-0.16316460933089255,0.12528145339936017
1771957086055091700,5.120091796875,0.6343383522570133,-0.10699088668823241,0.06142667473480105
1771957086075055600,5.1400556640625,0.4768108720302581,-0.0907265651077032,0.15806845523566007
1771957086095021800,5.160021728515625,0.22427520385384558,-0.089497900095582,0.23326500438675282
1771957086114986800,5.17998681640625,-0.21886545376479624,-0.10494681363999843,0.23015432502031324
1771957086134951700,5.19995166015625,-0.36787177388370035,0.07463935365974902,0.1481292450234294
1771957086154916900,5.219916748046875,-0.254582663834095,0.15611235273182392,0.2232686571598053
1771957086174881800,5.2398818359375,-0.1605611488342285,0.12250643572807311,0.32346038522720333
1771957086194846700,5.2598466796875,-0.06989303591549396,0.03108136696219444,0.1901759503751993
1771957086214811600,5.279811767578125,-0.08319324699342251,0.0273883576631546,0.04655892207920551
1771957086234776800,5.29977685546875,-0.01034019222855568,0.02192600060403347,-0.08512757605686783
1771957086254741800,5.31974169921875,0.16316870098412037,-0.02816168012320995,-0.010460603737831115
1771957086274706700,5.339706787109375,0.20480594875216482,-0.009894786548614502,0.12634805971756577
1771957086294672000,5.359671875,0.01643383292853832,0.06866261733770371,0.04456847891435027
1771957086314636800,5.37963671875,0.08658698108494281,0.013753215542435646,0.05924991521760821
1771957086334601700,5.399601806640625,0.2127197906166315,-0.04196165741682052,0.1405574945949018
1771957086354566700,5.419566650390625,0.3723936352223158,-0.12995149103701115,0.20147227428480982
1771957086374531800,5.43953173828125,0.41408348996043204,-0.15409692125618457,0.15810951789841055
1771957086394496800,5.459496826171875,0.42001755618453024,-0.09579553893506526,0.04805442133396864
1771957086414461700,5.479461669921875,0.4295055154979229,-0.1360626673936844,0.12268223068639636
1771957086434427000,5.499427001953125,0.2298088725835085,-0.06912088249921798,-0.017717004606872797
1771957086454391800,5.519391845703125,-0.18751111508011817,0.0968266355484724,-0.19519976988658308
1771957086474356700,5.539356689453125,-0.49381286023557186,0.121221656614542,-0.39204131563082334
1771957086494321700,5.55932177734375,-1.1839128472030163,0.21045710638165474,-0.5746345557920635
1771957086514286800,5.579286865234375,-1.857487815827131,0.2000362501323223,-0.7749351559489965
1771957086534251800,5.599251708984375,-1.848344139906764,0.23208733890950678,-0.7306986854679882
1771957086554216700,5.619216796875,-1.437393687275052,0.36124855635166164,-0.38771877625659107
1771957086574181600,5.639181640625,-1.191861760380864,0.360220382347703,-0.2707321268633008
1771957086594146800,5.659146728515625,-0.4084638965129852,0.376440280264616,-0.18630670772641897
1771957086614111700,5.67911181640625,0.5216214891374111,0.28311376179158687,0.009932634340971708
1771957086634076700,5.69907666015625,1.0160089343905447,0.10098200166225432,0.03193243083357811
1771957086654041900,5.719041748046875,1.5660463706731795,-0.20825696598887442,0.3034383185483515
1771957086674006800,5.7390068359375,2.2378981687664985,-0.4125450283467769,0.6846082576833665
1771957086693971700,5.7589716796875,2.5992303117483853,-0.28098259498178957,0.7996860047154128
1771957086713936600,5.7789365234375,1.7734861750602722,-0.20621113937497138,0.47778293193280696
1771957086733901800,5.79890185546875,0.972014894363284,-0.06300386092364788,-0.07776260024681687
1771957086753866800,5.81886669921875,0.3494529046177864,0.08422083647549151,-0.24088892339393495
1771957086773831700,5.838831787109375,0.17137597283720968,0.16890695237517356,-0.0345611719019711
1771957086793796900,5.858796875,-0.2268757417410612,0.16907704824507236,0.0025182664312422276
1771957086813761800,5.87876171875,-0.20743512821197507,0.12349486224353312,-0.07914148738458752
1771957086833726700,5.898726806640625,-0.11207681165039539,-0.021241525471210478,-0.10559694811180233
1771957086853692000,5.91869189453125,-0.14586626852750778,-0.0077507602572441095,-0.10857508713975549
1771957086873656800,5.93865673828125,-0.6103145025908947,-0.11508943746984004,-0.19316139592677353
1771957086893621800,5.958621826171875,-0.8082049728661775,-0.08443067983388901,-0.26720190691053863
1771957086913587000,5.9785869140625,-0.7198445523679255,-0.009224339941143989,-0.06525178598091005
1771957086933551900,5.9985517578125,-0.7571919939875602,0.01258884793817997,0.10708367953822016
1771957086953516800,6.018516845703125,-0.6180991651177405,0.13314882577359677,0.2664404210187495
1771957086973482800,6.038482666015625,-0.5960831481426954,0.18489011892676352,0.2766330214701593
1771957086993447700,6.05844775390625,-0.2703460501551628,0.22744740414917466,0.24682372027039526
1771957087013412600,6.07841259765625,-0.0756990918457508,0.16751695932149885,0.13115735969543457
1771957087033377500,6.09837744140625,0.018505378505587578,0.10295943921506404,0.07764072743281722
1771957087053342700,6.1183427734375,0.02557224815189838,0.05272796610295772,0.009439590127021074
1771957087073307600,6.1383076171875,0.059065352430939674,0.02214110465943813,-0.07194076222553848
1771957087093272600,6.1582724609375,0.1441097802489996,0.00402677129805088,-0.07242533087208866
1771957087113237800,6.17823779296875,0.1029307976424694,-0.044915831047296524,0.0448448116376996
1771957087133202700,6.19820263671875,-0.05637012199759483,-0.04235971682369709,-0.013934125067293643
1771957087153167600,6.218167724609375,-0.03595744856595993,-0.03825461959242821,-0.08985679653584956
1771957087173132500,6.238132568359375,-0.0001356090784072876,-0.060763388520479196,-0.1322754039399326
1771957087193097700,6.25809765625,-0.06240238789916038,-0.07735621140301227,-0.04333411481380462
1771957087213062700,6.278062744140625,-0.14547697694897652,-0.021062077251076696,-0.005660948371142149
1771957087233027600,6.298027587890625,-0.12669804219901562,0.047096682217717165,-0.01955050364434719
1771957087252992800,6.31799267578125,-0.0602928483992815,0.07614040587246418,0.05425926732346415
1771957087272957700,6.337957763671875,-0.04442833979129791,0.06663023472726344,0.08242284714281559
1771957087292922600,6.357922607421875,-0.19172785599231718,0.0819862092912197,0.07219926703125237
1771957087312887600,6.377887451171875,-0.14638649300932882,0.09287351400852203,0.0436073787972331
1771957087332852700,6.397852783203125,0.007269114220142364,0.09038169719278812,0.06913637232929468
1771957087352817700,6.417817626953125,0.04260696958303451,0.07529226461052894,0.012172522222250699
1771957087372782600,6.437782470703125,0.037698154753446574,0.03134147920310497,-0.06021276890039444
1771957087392747500,6.45774755859375,-0.007638532054424285,-0.02530219903886318,-0.0012235504455864429
1771957087412712700,6.477712646484375,0.023323007920384407,-0.03809270702898502,0.031171383333206175
1771957087432677600,6.497677734375,0.05959200665354728,-0.030671617117524145,0.0847425222620368
1771957087452642600,6.517642578125,0.04558043243587017,-0.019001053068041802,0.08267828320860862
1771957087472607700,6.537607666015625,-0.05297054268717766,-0.036550153762102126,0.05008329681307077
1771957087492572700,6.55757275390625,-0.15726444537639617,-0.06943243266642093,-0.0008458031743764876
1771957087512537600,6.57753759765625,-0.22966274211108684,-0.06931026759147643,0.000246522106975317
1771957087532502500,6.59750244140625,-0.140649410662055,-0.04859539634287357,0.06466507213413715
1771957087552467700,6.6174677734375,0.003192074039578438,-0.01845160249173641,0.07340528182014823
1771957087572432600,6.6374326171875,-0.00017418752312660217,0.040648821252584455,0.04582666228190064
1771957087592397600,6.6573974609375,-0.03404021676778793,0.07055646826028823,-0.004841594812273979
1771957087612362800,6.67736279296875,-0.06991466322541237,0.09531272385418414,-0.01660772819072008
1771957087632327700,6.69732763671875,0.01930734253823757,0.12587561990022658,0.008161971406638623
1771957087652292600,6.717292724609375,0.09026888446807861,0.1087777701050043,0.009390344157814978
1771957087672257500,6.737257568359375,0.14717325947284698,0.05155424614846706,0.052157180477678776
1771957087692222700,6.75722265625,0.10119476763010024,0.018173370072245596,-0.015772738671302796
1771957087712187600,6.777187744140625,0.1335872171908617,0.019420739784836768,-0.09872779299467802
1771957087732152600,6.797152587890625,0.10390110397934912,-0.017846622335910795,-0.10715177633836864
1771957087752117800,6.81711767578125,0.091209964710474,-0.029235446834564208,-0.04465031197890639
1771957087772082700,6.837082763671875,0.03518529514968395,0.017261515924334524,0.009627221653610468
1771957087792048600,6.857048583984375,0.008869535154104232,0.04887421328425407,-0.0031057109303772447
1771957087812013800,6.877013916015625,-0.08266016303002834,0.005734159737825394,-0.03788081784397363
1771957087831978800,6.896978759765625,-0.06955050608813762,-0.009901216289401054,0.013038491401821374
1771957087851944000,6.91694384765625,-0.005338438418507576,0.02131985140442848,0.08043854145780205
1771957087871908900,6.936908935546875,0.04708440725803375,0.0595826543033123,0.10599398460537195
1771957087891873800,6.956873779296875,-0.010230302113294601,0.10287994423806666,0.06760229462981224
1771957087911838700,6.976838623046875,-0.033333529803156854,0.05823883847892284,0.0022435411430895328
1771957087931804000,6.996803955078125,-0.04460194279253483,0.03664543083012104,0.04264832450672984
1771957087951768800,7.016768798828125,-0.09927987391948699,0.011564765587449073,0.119961865811795
1771957087971733800,7.036733642578125,-0.22129648030400276,0.013265724286437033,0.07742109333276748
1771957087991699000,7.056698974609375,-0.1593506040006876,0.002410568273067474,-0.05941182778105139
1771957088011664000,7.076663818359375,-0.03317980054616928,-0.01402794083058834,-0.10669190374165773
1771957088031628800,7.09662890625,-0.0564063623547554,-0.07626607807874679,-0.19641791350468993
1771957088051593700,7.11659375,-0.19809446841478345,-0.0895680427223444,-0.09567308159917592
1771957088071559000,7.136558837890625,-0.18796645763218403,0.011133972954750061,-0.12581950579881668
1771957088091523800,7.15652392578125,-0.23560265355408191,0.05383738864958286,-0.19775939124152064
1771957088111488800,7.17648876953125,-0.14311784660220145,0.08109832054078578,-0.12450228572040796
1771957088131454000,7.196453857421875,0.10914777246117591,0.03650923722982406,-0.09595657471567391
1771957088151419000,7.2164189453125,0.09614800563454627,0.034783728611469264,-0.08572568808048964
1771957088171383800,7.2363837890625,0.1075578729212284,0.01626665966808796,0.019902824213355777
1771957088191348700,7.2563486328125,0.017787001103162763,0.04871697689592838,0.0997490988664329
1771957088211314000,7.27631396484375,-0.19988018278777597,0.09433306516706944,-0.010358312407135964
1771957088231278800,7.29627880859375,-0.29066870721578597,0.03364975614547729,-0.04000380134731531
1771957088251243800,7.316243896484375,-0.4028817124664783,0.07279869422912598,0.011730331412702797
1771957088271209000,7.336208984375,-0.4956956052422523,0.19292671038806436,0.023657792832702397
1771957088291174000,7.356173828125,-0.5084861132323741,0.2254769808590412,0.05267331330627203
1771957088311138800,7.376138916015625,-0.6484767677247524,0.22400632378458976,-0.030384032347798344
1771957088331103700,7.396103759765625,-0.8375999941766261,0.2515577630549669,-0.25708076426014304
1771957088351069000,7.41606884765625,-0.8448030574232339,0.20926175911724565,-0.2100140387892723
1771957088371033900,7.436033935546875,0.3645055123209953,0.19256196872889994,0.27046631553396583
1771957088390998800,7.455998779296875,0.3521849599301815,-0.05230009607970714,0.11700330826714635
1771957088410963700,7.475963623046875,0.11756839480400084,-0.13728840979635715,-0.2163990636512637
1771957088430929000,7.495928955078125,0.047587680605053896,-0.0182429281771183,-0.42565600046291946
1771957088450893800,7.515893798828125,-0.036168460968136786,0.19682780947983264,-0.2674871535927057
1771957088470858800,7.535858642578125,-0.010772153905034065,0.2982522942125797,0.041456630504131314
1771957088490824000,7.555823974609375,0.08934504762142896,0.3589940554231405,0.3226062526158988
1771957088510788900,7.575788818359375,0.20000936212539672,0.18694237528145313,0.3724000649631023
1771957088530753800,7.59575390625,0.2457283262491226,0.16013795498609543,0.464490904161334
1771957088550718700,7.61571875,0.3577002162203192,0.07368716750144957,0.5593573455527424
1771957088570684000,7.635683837890625,0.9262760564953089,-0.005984919628500938,0.4900954471476376
1771957088590649900,7.65564990234375,0.7275751466199756,-0.19643091911673544,0.21649565589353442
1771957088610614800,7.67561474609375,0.6378180110663175,-0.2725023514062166,-0.12278422975614667
1771957088630580000,7.695580078125,0.38541678292453285,-0.25373802970349785,-0.3359247300028801
1771957088650545000,7.715544921875,0.13292758423835038,-0.18398878617286682,-0.3036300417281687
1771957088670509800,7.735509765625,-0.017001988205313682,-0.022983985224366187,-0.24755115776211023
1771957088690475000,7.75547509765625,0.09050532357245683,0.10804536417722702,-0.16497925753742457
1771957088710440000,7.77543994140625,-0.01582651468515396,0.052986909300088876,0.010457827258855103
1771957088730404900,7.79540478515625,0.0024438860207796095,-0.009178747233748435,0.02948620672523975
1771957088750369800,7.815369873046875,-0.028491934990882872,0.011631401082873343,0.048991409923136234
1771957088770335000,7.8353349609375,0.015775661280751228,0.05661211405992508,0.05618687438517809
1771957088790300000,7.8552998046875,-0.29278643002212046,0.05532908851206302,0.006086188045889139
1771957088810264800,7.875264892578125,-0.4367600166708231,0.07704466123580932,0.004013911816477775
1771957088830230000,7.89522998046875,-0.34420623613595963,0.08085691300034523,0.11163096757903694
1771957088850194700,7.915194580078125,-0.23405893124341964,0.0984340707451105,0.24367870024293659
1771957088870159600,7.93515966796875,-0.11498480805158615,0.10472352627813815,0.19668752422630786
1771957088890124500,7.95512451171875,-0.05682955620288849,0.01831657793521881,0.08416486850455403
1771957088910089700,7.97508984375,0.06849193694591522,-0.05267535913288593,-0.0161940328232944
1771957088930054700,7.9950546875,0.1330377666145563,-0.08165829251110553,-0.05024725520312786
1771957088950019600,8.01501953125,0.02567687757015228,-0.0973147113263607,-0.03268865602836012
1771957088969984500,8.034984619140625,0.1479968508154154,-0.05094400529563427,-0.09084083913713693
1771957088989949700,8.05494970703125,0.10159984129965305,-0.0649070641964674,-0.0445768083512783
1771957089009914600,8.07491455078125,-0.03915595234632492,0.04301788847148418,0.002491670685261488
1771957089029879600,8.094879638671875,0.004749824875593185,0.10415654004514217,0.024926935985684393
1771957089049844700,8.1148447265625,-0.043245267486572266,0.06397299821674823,0.025776538552343842
1771957089069809700,8.1348095703125,-0.1023205567896366,0.013169278174638747,-0.09387830713689327
1771957089089774600,8.154774658203126,-0.15528993043303488,-0.010965630650520324,-0.011372311755269765
1771957089109739500,8.174739501953125,-0.19321020350456236,-0.10151859275698662,0.12117986329942941
1771957089129704700,8.19470458984375,-0.21602584642469883,-0.14554010531306266,0.21827143339440225
1771957089149669600,8.214669677734374,-0.008954290828108787,-0.18293723129332065,0.4406123081848025
1771957089169634600,8.234634521484375,0.4529939431130886,-0.07975450471639632,0.36162250423058867
1771957089189599500,8.254599609375,1.1831570603996515,-0.22215923461318016,0.6906897695541382
1771957089209564700,8.274564697265625,1.812172171807289,-0.30934301254749297,0.7549912690728903
1771957089229529600,8.294529541015624,2.0792010602384803,-0.13588906439244747,0.5334963435873389
1771957089249494500,8.31449462890625,1.8082722417593002,0.17379121728539465,0.3647936816126108
1771957089269459700,8.334459716796875,1.4395575873106716,0.3586930266499519,0.2281400625884533
1771957089289424600,8.354424560546875,0.8817033397972583,0.44189445694983004,-0.08799626336097717
1771957089309389600,8.3743896484375,-0.8416536534816026,0.46282384773194785,-0.049845031077787275
1771957089329354500,8.3943544921875,-0.8632067291200161,0.767634477546811,-0.9845402486111968
1771957089349319700,8.414319580078125,-1.4826567243248223,0.5564999102950096,-1.3195543665751814
1771957089369284600,8.43428466796875,-1.7693471755594015,0.34364918677508827,-1.2376339159965515
1771957089389249500,8.45424951171875,-1.6719827798724174,0.014560440272092818,-0.9768038822054862
1771957089409215700,8.4742158203125,-1.055983217382431,-0.2133428909510374,-0.5332649825168774
1771957089429180700,8.4941806640625,-0.6381786610722542,-0.22896423845291136,-0.0934323169350624
1771957089449145600,8.5141455078125,-0.2829033339112997,-0.15555764145851134,0.1982350824618712
1771957089469110800,8.53411083984375,-0.17489771722257136,-0.15141513482630253,0.2515315326351672
1771957089489075700,8.55407568359375,-0.32173838374018665,-0.09378829076588154,0.08265932277981192
1771957089509040600,8.57404052734375,-0.17596330062747,-0.12424188121855258,-0.1975275552470237
1771957089529005600,8.594005615234375,0.030615503016114234,-0.11750000574290752,-0.14380962825864552
1771957089548970800,8.613970703125,0.25365210498571394,-0.004110942450165749,0.08603212368115783
1771957089568935700,8.633935791015626,0.3239735954463482,0.14911854832172394,0.2534011258993298
1771957089588900600,8.653900634765625,0.30893735435605046,0.24659224960207937,0.23979513680785894
1771957089608865800,8.67386572265625,0.21221768631339072,0.17226970680654047,0.06428345240540802
1771957089628830700,8.693830810546874,0.09717208798527717,0.13349018655717373,0.0009740326639264822
1771957089648795600,8.713795654296876,0.05986439385414123,0.0674298606723547,0.019074483630433677
1771957089668760600,8.733760498046875,0.06716156512498855,0.05076572611927986,0.024133301389962433
1771957089688725800,8.753725830078125,0.018424129962921143,-0.0065665189087390895,0.018627616645768282
1771957089708690700,8.773690673828124,-0.03456161029338836,-0.1008697734594345,-0.05416749738678336
1771957089728655600,8.793655517578125,-0.10374679020047187,-0.16433540667593477,-0.052911286780610675
1771957089748620800,8.813620849609375,-0.16220073273479937,-0.15660335111916066,0.013675254935398697
1771957089768585700,8.833585693359375,-0.09905892464518547,-0.10953238786458969,0.008839651472494006
1771957089788550700,8.853550537109374,-0.11751929496526717,-0.09069967710077761,0.01745353136509657
1771957089808515600,8.873515625,-0.19587620784342288,0.00182429281771183,0.006982113972306251
1771957089828480800,8.893480712890625,-0.14688625922501086,0.05707680896222591,-0.0009003098405897617
1771957089848446200,8.9134462890625,-0.1330237380892038,0.047665422016382214,0.05264993243068456
1771957089868411100,8.9334111328125,-0.15292086321413517,0.10894552788734435,0.034069515927508474
1771957089888376000,8.9533759765625,-0.13523147726655005,0.11223170995116233,-0.000263838567957282
1771957089908341000,8.973341064453125,-0.2279085919201374,0.08377952244877815,-0.05738441360667348
1771957089928306200,8.99330615234375,-0.3170049254775047,0.09913549701273441,-0.19441892170719802
1771957089948271000,9.01327099609375,-0.3137567373365164,0.08333060963749885,-0.2248470123924315
1771957089968236000,9.033236083984375,-0.16721534602642057,0.021303484791517256,-0.13201879883036016
1771957089988201200,9.053201171875,0.08680150061845779,-0.0241904384046793,0.019852847591787577
1771957090008166100,9.073166259765625,0.13118717031180857,-0.11831366021335124,0.17120616922825574
1771957090028131000,9.093131103515624,0.02888239561319351,-0.04940846629142761,0.12903569136634468
1771957090048096000,9.113095947265625,0.08447334993183613,0.03518178801834583,0.001087210714817047
1771957090068061200,9.133061279296875,0.05139350262880325,0.052233460584282874,-0.07722966241389513
1771957090088026000,9.153026123046875,0.05173369436860084,0.006603343787789344,-0.0018929741397500036
1771957090107991000,9.172990966796876,0.1361614515930414,-0.006757657566666603,0.08479527536258101
1771957090127957000,9.19295703125,0.18985095620453357,0.050098202121257776,0.08765607162117958
1771957090147922000,9.212921875,0.17423954557478427,0.04479600405991077,0.07899901017397641
1771957090167886800,9.232886962890625,0.1873217299878597,0.010489245310425757,0.04186886456683278
1771957090187852000,9.25285205078125,0.15465163252949712,0.009981880310177802,0.019744418781250713
1771957090207817000,9.27281689453125,0.02277647995352745,0.005291676667332649,-0.05424421588480472
1771957090227782000,9.292781982421875,-0.02420037527680397,-0.017978139761090278,-0.0838359288111329
1771957090247747000,9.3127470703125,-0.060351300588250154,-0.035198739153146745,-0.047577597602456806
1771957090267712000,9.3327119140625,-0.00798515353500843,-0.09405074109435081,-0.01872311290949583
1771957090287677000,9.352677001953126,0.023508301359415052,-0.08162029858827591,-0.005464256755262613
1771957090307641900,9.372641845703125,-0.03669569971263408,-0.013918050715327262,-0.0007768295913934707
1771957090327607000,9.39260693359375,-0.07565700626969336,0.0036123452782630917,-0.03547302604988217
1771957090347572000,9.412572021484374,-0.07737082445025444,-0.003991699984669685,-0.06031082244738936
1771957090367537000,9.432536865234376,-0.08044365602433681,0.043265141230821605,0.0019449965879321097
1771957090387502000,9.452502197265625,-0.1229074177443981,0.06331774917840957,0.06167874979972839
1771957090407467000,9.472467041015625,-0.22579905242025852,0.09188216488361359,0.03462897644117474
1771957090427432000,9.492431884765624,-0.2572702954828739,0.07910568541884422,-0.050284372343122954
1771957090447397000,9.512397216796876,-0.23219196832776068,0.10852876377999782,-0.04872092241868376
1771957090467362000,9.532362060546875,-0.23968846156299112,0.09005611850023269,0.04157280422970652
1771957090487327000,9.552326904296875,-0.25358137783706186,0.07766366991698742,0.09347221055403351
1771957090507292200,9.572292236328124,-0.31367490427196026,0.017200141125917435,0.01939502082169056
1771957090527257000,9.592257080078125,-0.27812136033177376,0.023774843341112135,-0.06060732117593288
1771957090547222000,9.612221923828125,-0.21977263173758982,-0.009410217902064323,-0.11002762403562664
1771957090567187000,9.63218701171875,-0.18366729913353919,0.017892799565196037,-0.08145429437160491
1771957090587152100,9.652152099609374,-0.1725742427110672,0.06445055260062217,-0.07782046791389584
1771957090607117000,9.672116943359375,-0.03316109584569931,0.106616792678833,-0.033464754967391486
1771957090627082000,9.69208203125,0.013348726394772529,0.07641045498549938,0.010200491496920585
1771957090647047200,9.712047119140625,0.17015958278477192,0.03326864787340164,0.015602204409986734
1771957090667012000,9.73201220703125,0.2648059516847133,-0.0071533788859844205,0.04864741879105568
1771957090686977000,9.75197705078125,0.2311585336267948,-0.049638183394074435,0.0528662055298686
1771957090706942200,9.771942138671875,0.2559036833047867,-0.04081599451303482,-0.030515549772977827
1771957090726907100,9.7919072265625,0.28972353532016276,-0.02657879484593868,-0.08535846220329403
1771957090746872000,9.8118720703125,0.2908931636214256,-0.007954758396744728,0.0017841069377958773
1771957090766837200,9.831837158203125,0.374170581766963,-0.013293196815252303,0.09809183317869902
1771957090786803000,9.851802978515625,0.6152022746324539,0.002263268756866455,0.2505526776656508
1771957090806767900,9.871767822265625,0.6744751323342323,0.01666881072819233,0.23154227224737403
1771957090826733000,9.891733154296874,0.7681260604560375,-0.09078151016533374,0.2980287145897746
1771957090846697700,9.91169775390625,1.063178097322583,-0.3552858485549688,0.4147448764786124
1771957090866663000,9.931662841796875,0.9594126024216413,-0.5529997932195663,0.3635165012836456
1771957090886627800,9.9516279296875,0.30721184573769567,-0.4097176959663629,0.3004914514414966
1771957090906592800,9.9715927734375,-0.23420155458450315,-0.06557458819448947,0.02893047253862023
1771957090926558000,9.991557861328126,0.002819733595848083,-0.011644845086336135,0.08974749094247818
1771957090946523000,10.01152294921875,0.3418599652707577,-0.04649287110567093,0.23577187264114616
1771957090966487800,10.03148779296875,-0.033088615131378174,0.10971125156283378,0.17299860560297964
1771957090986452700,10.05145263671875,-0.28799042791724205,0.2231634432196617,-0.15558336042165755
1771957091006418000,10.07141796875,-0.26191373737454415,0.2985316956758499,-0.39016514649540185
1771957091026382800,10.0913828125,-0.5075841959565878,0.3088525986820459,-0.25747443975284695
1771957091046347800,10.11134765625,-0.48005964469313617,0.39461598842442036,-0.2409324702747166
1771957091066313000,10.13131298828125,-0.2949930001556873,0.303953136202693,-0.3481399223230779
1771957091086278000,10.15127783203125,-0.33415245963335033,0.2297515894383192,-0.2763905910164118
1771957091106242800,10.171242919921875,-0.14951076250970363,0.1223591362118721,-0.146584792060405
1771957091126207700,10.191207763671875,-0.24775311007499692,0.003480243331193924,-0.15582213761359454
1771957091146173000,10.2111728515625,-0.15656477267444133,-0.00043371524214744564,-0.247133809132874
1771957091166137900,10.231137939453125,0.5451742141604423,0.20621932268142698,0.009718260937929152
1771957091186102800,10.251102783203125,0.8213760046064853,0.03601064005792141,0.2635116740904748
1771957091206068000,10.27106787109375,0.26667057651281356,-0.14126023603677748,0.19285627550035714
1771957091226033000,10.291032958984376,-0.16643793191313744,-0.29049335064888,-0.111891956602782
1771957091245997800,10.310997802734375,-0.6014034663826227,-0.22494389689564703,-0.42287396852895615
1771957091265962800,10.330962646484375,0.2653255916446447,-0.03620353228151798,-0.07559928473308682
1771957091285928000,10.350927978515625,-0.00639700756072998,-0.1665659422069788,0.2131970527395606
1771957091305892900,10.370892822265626,-0.40841421215236184,-0.21683365567624568,-0.17007760358974336
1771957091325857800,10.39085791015625,-0.329925197327137,-0.11615735896229744,-0.3677066464498639
1771957091345822700,10.41082275390625,-0.2653881354868412,-0.08340952009260653,-0.16472425986304878
1771957091365789000,10.430788818359375,-0.034572131687402724,0.11546820765435695,0.027426205455511807
1771957091385753900,10.45075390625,0.2644493933320045,0.1109650510162115,0.23450711340233682
1771957091405719000,10.470718994140626,0.23060849852859971,0.14415946460962295,0.16545301252901554
1771957091425684000,10.49068408203125,0.2872200280666351,0.19772738866806028,0.10328297208100556
1771957091445649000,10.51064892578125,0.1349105747491121,0.06383914270401,0.15692892981171608
1771957091465613800,10.53061376953125,-0.062189621931314464,0.07645663221478462,0.15425050438269972
1771957091485579000,10.5505791015625,-0.0999678561836481,0.15034896689951419,0.09981573436185717
1771957091505544000,10.5705439453125,-0.09226678028702735,0.09140577954351901,0.16346154645085334
1771957091525508900,10.5905087890625,-0.28470599941909314,0.05087035553753376,0.14585384743735194
1771957091545473800,10.610473876953124,-0.3247966022670269,0.06661328359246253,0.05137231371030211
1771957091565439000,10.63043896484375,-0.2040799725651741,0.07302081254720687,0.0231076116040349
1771957091585404000,10.65040380859375,-0.06385375575125217,-0.08119009047746657,0.0016531740345060823
1771957091605368800,10.670368896484375,0.04414660024046898,-0.10721651213765143,-0.018977526061981914
1771957091625334000,10.690333984375,0.14900047490000723,-0.07053834808170795,0.014056144011765718
1771957091645299000,10.710298828125,0.2522095049619675,-0.06198562379181385,0.0038888241320848465
1771957091665263900,10.730263916015625,0.23428747930228708,-0.0573515342503786,-0.007499854236096143
1771957091685228800,10.750228759765625,0.13595102371275425,-0.021053893944621083,-0.017935761924088
1771957091705194000,10.770194091796874,0.06244213538765907,-0.047993338796496386,-0.03909340850412845
1771957091725159000,10.790158935546875,0.169105689817667,-0.03712298521399498,0.05210749611705541
1771957091745123800,10.810123779296875,0.1742822156727314,0.08736205711066722,0.13177037702724337
1771957091765089000,10.830089111328125,0.09994038365483283,0.145110481724143,0.14447671386525035
1771957091785054000,10.850053955078126,0.10841828914284705,0.00758300247490406,0.101835842012614
1771957091805019000,10.870018798828125,-0.07431260592341422,-0.033303719186782835,-0.012337065134197472
1771957091824983800,10.88998388671875,-0.10402969879508017,-0.0027227029621601103,-0.16032704781740903
1771957091844949800,10.90994970703125,-0.14643442380428312,-0.08884849627614021,-0.0859698720999062
1771957091864916000,10.929916015625,-0.09641104048490523,-0.163109664273262,-0.023177169708907604
1771957091884881000,10.949880859375,-0.12335749959945679,-0.12956921372115612,-0.06656769088506698
1771957091904845800,10.969845703125,-0.25962007347941396,-0.1355868665754795,-0.13980842979326844
1771957091924810800,10.989810791015625,-0.2716863588482141,-0.14464578682184218,-0.06719532126411795
1771957091944776000,11.00977587890625,-0.08883212966322898,-0.027720950618386267,0.021774901695549485
1771957091964740900,11.029740966796876,0.06447919417321682,0.05883095915317535,0.12728724026381968
1771957091984705800,11.049705810546875,-0.04908814829587936,0.04936696523725986,0.12096592828780411
1771957092004671000,11.0696708984375,-0.14749591555595398,0.11255027438104152,0.023061288244277237
1771957092024636000,11.089635986328124,-0.20127192940711974,0.11897709255814552,0.000551642533391714
1771957092044600800,11.109600830078126,-0.15830606338381767,0.15002397272884846,0.05138444253951311
1771957092064565800,11.129565673828125,-0.017870587733387944,0.12760229756236074,0.07648644283115863
1771957092084531000,11.149531005859375,-0.17803543072640896,0.039915830802917475,-0.048627106655389066
1771957092104495900,11.169495849609374,-0.12977321186065674,0.03444938209056854,-0.1536819107145071
1771957092124460800,11.189460693359376,-0.11378536913394928,-0.0174935711145401,-0.0386886270955205
1771957092144426000,11.209426025390625,-0.01837503012418747,-0.04341185622513294,0.061081076167523854
1771957092164391000,11.229390869140625,-0.03270516877174377,0.0028998130947351453,0.07406111538037657
1771957092184355800,11.24935595703125,-0.056176060730218885,0.024192776492238045,-0.01915916623920202
1771957092204320800,11.26932080078125,0.007982815447449684,-0.025522563791275023,0.0026449615508317946
1771957092224286000,11.289285888671875,0.04297989454865456,-0.03854863410294056,-0.02649696178138256
1771957092244251000,11.3092509765625,0.2435328620314598,0.002704582783579826,0.07228460722714662
1771957092264215800,11.3292158203125,0.3055336833924055,-0.004888941085338592,0.0721042822241783
1771957092284181800,11.349181640625,0.3034977936506271,-0.02442775429189205,0.0023667291313409803
1771957092304146700,11.369146728515625,0.2808890714794397,-0.025095862811803815,-0.05452493252232671
1771957092324111600,11.389111572265625,0.3245522721171379,-0.02453238371014595,-0.046329351107031104
1771957092344076800,11.409076904296874,0.29750936689078805,-0.020485154145956037,0.04885740827992558
1771957092364041700,11.429041748046876,0.298387903290987,0.010545943933725356,0.05840104330331087
1771957092384006700,11.449006591796875,0.26656127091944215,0.03762918117046356,0.10653495961427688
1771957092403971600,11.4689716796875,0.18972411495447158,0.01846212388575077,0.06875453340485692
1771957092423936800,11.488936767578124,0.25638708290755746,-0.014038462224602699,0.008372837678343056
1771957092443901700,11.508901611328126,0.2094955678731203,-0.06964695219993591,0.007989245188236236
1771957092463866600,11.52886669921875,-0.12394085244536399,-0.07942132723927497,-0.08908376633673906
1771957092483831600,11.54883154296875,-0.25325112296938895,-0.025626608687639236,-0.10871668756753206
1771957092503796700,11.568796630859374,-0.26217384961545465,-0.008627543091773986,-0.02687894683629274
1771957092523761700,11.58876171875,-0.23594810599088667,-0.006817278799414635,0.050777708818018435
1771957092543726600,11.6087265625,-0.12431202384531498,-0.01631809759438038,0.08053454917818308
1771957092563691800,11.62869189453125,-0.08766133231818675,-0.00023965397477149962,0.09168620392009616
1771957092583656700,11.64865673828125,-0.02109948665201664,0.01606792222559452,0.029498189423978326
1771957092603621600,11.66862158203125,0.0412000253945589,-0.017916764962673186,-0.022634295003861188
1771957092623586600,11.688586669921875,-0.06896072350144386,0.00014788403809070586,0.006448299356549978
1771957092643551700,11.7085517578125,-0.015954524978995323,0.0641881022721529,0.07798457243442534
1771957092663516700,11.7285166015625,-0.018474983367323873,0.07139350360631942,0.08192775710225104
1771957092683482600,11.748482666015626,-0.03274491626024246,0.04401391377151012,0.07112623097226023
1771957092703447800,11.76844775390625,-0.03151625124812126,0.03237257581651211,0.07111424827352165
1771957092723412700,11.788412841796875,-0.07705810523927212,0.05562427206635475,0.07384703423827886
1771957092743377700,11.808377685546875,-0.005535422295331955,0.06702127987146377,0.025057576628029345
1771957092763342800,11.8283427734375,0.014008067086338996,0.02339607315659523,-0.00681684040799737
1771957092783307800,11.848307861328125,0.06280921513438224,-0.04389116417467594,0.0020730068817734716
1771957092803272700,11.868272705078125,0.052665422260761256,-0.04765197801291942,-0.04472980695590376
1771957092823237600,11.888237548828124,0.006624971097707748,-0.0666407561212778,-0.06294219386428594
1771957092843201300,11.908201171875,0.0037251580029726027,-0.05061959564685821,-0.023449703039973974
1771957092863166500,11.92816650390625,0.022599369820952415,-0.020516718327999114,0.041484103032946584
1771957092883131400,11.94813134765625,0.05937281094491481,0.02570785723030567,0.038302550387382506
1771957092903096300,11.968096435546874,0.0722924982726574,-0.000706102442741394,0.03474763438478112
1771957092923061500,11.9880615234375,0.0532604655444622,-0.006532616639137268,0.05604615074023604
1771957092943026400,12.0080263671875,-0.04036766622364521,-0.007172083586454391,0.050413697811216115
1771957092962991400,12.027991455078125,-0.0887573108613491,0.0026981530427932737,-0.003277414235472679
1771957092982956300,12.047956298828124,-0.048938510692119595,0.018549802169203756,0.010656564701348542
1771957093002921500,12.06792138671875,0.06282967340052127,0.022748422902822495,0.04160290710702538
1771957093022886400,12.087886474609375,0.015810148072242736,-0.013233575582504271,0.10029694200754165
1771957093042851300,12.107851318359375,0.011765256595611572,0.017169161465764044,0.03713204530328512
1771957093062817500,12.127817626953124,0.01271861179769039,-0.013904022189974784,-0.0007331365801393986
1771957093082782500,12.147782470703126,0.05316168134510517,-0.0037245734810829162,0.019853578244149683
1771957093102747400,12.167747314453125,0.13101356731057165,-0.03130933049917221,0.03940305897518992
1771957093122712600,12.187712646484375,0.10804477965533733,-0.04670972872674465,0.014395166707783937
1771957093142677500,12.207677490234374,-0.054959086155891415,-0.06791618288457393,-0.04797039631232619
1771957093162642400,12.227642333984376,-0.058202013599872586,-0.04188333148360252,-0.06169818515256047
1771957093182607400,12.247607421875,-0.00820785637497902,-0.032739071041345595,0.036571781072020526
1771957093202572500,12.267572509765625,-0.02927811693251133,-0.052581835630536075,0.04069602139517665
1771957093222537500,12.287537353515624,0.022236381727457045,-0.06337035614848137,0.026129297512769697
1771957093242502400,12.30750244140625,0.030977906587719914,-0.0641314036488533,0.023564123199880122
1771957093262467600,12.327467529296875,-0.07497077757120132,-0.05135141705274582,-0.011616641905158757
1771957093282432500,12.3474326171875,-0.007426935130357742,-0.0085310969799757,-0.00692965313270688
1771957093302397400,12.3673974609375,0.07224807460904122,0.017354454904794692,0.018596271659433842
1771957093322362400,12.3873623046875,0.14359130933284758,0.03923895445466041,0.0911497589558363
1771957093342327600,12.40732763671875,0.08204583052396774,0.021503975799679755,0.018826719414442777
1771957093362292500,12.42729248046875,-0.041810850769281385,0.013061726146936415,-0.08234408281818031
1771957093382257400,12.44725732421875,-0.020804303097724915,0.020420856738090513,-0.03421528107374906
1771957093402222300,12.467222412109376,-0.04310147510170936,0.06002805998325347,-0.0033548633858561513
1771957093422188500,12.4871884765625,-0.05912205105423927,0.04058803097605705,0.021404460947960613
1771957093442153500,12.507153564453125,-0.0497574258595705,0.002715104177594185,-0.014040069659799337
1771957093462118700,12.52711865234375,-0.04085106582641601,0.006740706431865692,0.04512801249325275
1771957093482083600,12.54708349609375,-0.039893618971109386,-0.0010819500178098679,0.05225494176372886
1771957093502048500,12.567048583984375,0.01724865644276142,-0.011653612914681434,0.005359773467481136
1771957093522013400,12.587013427734375,-0.035326164925098415,-0.04186813391447067,-0.02890110031366348
1771957093541978600,12.606978515625,-0.08665010944902897,-0.0083393738001585,-0.015080226362496613
1771957093561943600,12.626943603515626,-0.08619476689696312,0.023929741641879082,0.038805677603930236
1771957093581908500,12.646908447265625,-0.07544774743318557,0.037865912535786625,0.0361178998246789
1771957093601873400,12.666873291015625,0.024915830069780348,0.022867665368318555,0.011977730302512646
1771957093621838600,12.686838623046874,0.07841653411090374,0.011815525478124618,0.01802373246848583
1771957093641803500,12.706803466796876,0.04608838195800781,0.04987433023750782,0.019527122768759727
1771957093661768400,12.7267685546875,0.042192543563246726,0.0579705429315567,0.03835910288020968
1771957093681733600,12.746733642578125,0.012077975806593894,0.04536766646802425,0.005894610996544361
1771957093701698600,12.766698486328124,0.004422492617368698,0.010437222862243651,-0.05244724946543574
1771957093721663500,12.78666357421875,0.012416413980722426,-0.007010755544900894,-0.016866232996433972
1771957093741629700,12.806629638671875,-0.0064963762819767,-0.006442015746235847,0.041686493737250564
1771957093761594600,12.8265947265625,0.00317453838288784,0.01887771894931793,0.0191252639696002
1771957093781559600,12.8465595703125,0.010179448708891868,0.025105215162038803,-0.017965426409989594
1771957093801524500,12.8665244140625,0.041136897030472755,0.041752398580312725,-0.02994227992966771
1771957093821489700,12.88648974609375,0.015762801799178123,0.0594517214000225,-0.058659401978552336
1771957093841454600,12.90645458984375,0.008545710027217865,0.04437339473366737,-0.012157909175008535
1771957093861420000,12.926419921875,0.01849427258968353,-0.004082300877571106,0.042268239147961136
1771957093881385000,12.946385009765624,-0.10725509058237075,0.00006897358298301697,-0.06184577692970633
1771957093901350000,12.966349853515625,-0.07088847669363021,0.021347908455133437,-0.10121054972112178
1771957093921315000,12.986315185546875,-0.023024317234754562,0.02558101598024368,0.014499649995565413
1771957093941280000,13.006280029296875,-0.0864613088786602,0.02571837862432003,0.08308584109619259
1771957093961245000,13.026244873046876,-0.055174190211296076,0.09235270500481128,0.03210895644426345
1771957093981210000,13.046210205078125,-0.07258534373939036,0.14455577045083046,-0.0020962416268885133
1771957094001175000,13.066175048828125,-0.16174071400761603,0.15880232246816156,-0.04698489240631461
1771957094021140700,13.086140625,-0.26527590728402134,0.195225050458312,-0.12085311556309461
1771957094041106000,13.10610595703125,-0.2656418179869652,0.19394728560745714,-0.156237148155272
1771957094061070800,13.12607080078125,-0.21191607301831245,0.13346212950646877,-0.19216244801729918
1771957094081035800,13.146035888671875,-0.012459668600559234,0.13103928627371786,-0.20009864784404635
1771957094101000700,13.166000732421875,0.24010171853899953,0.5138274742603302,-0.2574026896908879
1771957094120966000,13.1859658203125,0.14884674564301967,0.4135393000811338,-0.09973068642690777
1771957094140930800,13.205930908203126,0.0835071352481842,-0.13108370993733406,0.01280380586311221
1771957094160895700,13.225895751953125,0.11025251883268355,-0.15101239924430845,-0.2758190747387707
1771957094180861000,13.24586083984375,-0.2690133402466774,-0.20725451094806194,-0.34266675160899757
1771957094200825900,13.265825927734374,-0.5115016616612672,-0.25978257056474685,-0.30480843785777684
1771957094220790800,13.285790771484375,-0.47494215554893016,-0.1405851132541895,-0.2188045173577964
1771957094240755700,13.305755615234375,-0.2773310867369175,-0.06406827528476715,-0.07968933052569627
1771957094260721000,13.325720947265625,-0.30860359235703944,-0.06147007548511028,-0.10468290200680494
1771957094280685800,13.345685791015624,-0.006261983004212379,0.026381226447224616,0.010951748255640268
1771957094300651800,13.36565185546875,0.07813596360385418,-0.032172084808349606,0.06671382135748863
1771957094320617000,13.385616943359375,0.18843875131905077,0.09174947841465472,0.14626958863139153
1771957094340582000,13.405581787109375,0.34533436338305473,0.12679682639837264,0.26454861592277884
1771957094360546800,13.425546875,0.2926929065197706,0.09809680161476135,0.39348113917559385
1771957094380512000,13.445511962890626,-0.03702127840518951,0.0024228432327508924,0.4036903985008597
1771957094400477000,13.465476806640625,-0.22030630022287367,0.19365560918450356,0.21773469616919755
1771957094420441900,13.48544189453125,-0.2655588158786297,0.11726152081191539,0.08623407599404453
1771957094440406800,13.50540673828125,-0.05904021798968315,0.029323125118017195,0.05572627113610506
1771957094460372000,13.5253720703125,-0.25046295355558396,0.03320785759687424,0.045035219643265005
1771957094480337000,13.5453369140625,-0.22199673752784727,0.11040858617722987,0.07357873869091272
1771957094500301800,13.5653017578125,-0.1576096055522561,0.11079144801497459,0.023577859464287757
1771957094520266800,13.585266845703124,0.0305646496117115,-0.011523849055171013,-0.001121112984418869
1771957094540233000,13.60523291015625,0.020617256093025206,0.06890577844381332,-0.03229045049101114
1771957094560198000,13.625197998046875,-0.04972615393847227,-0.00710720165669918,-0.011152969916164874
1771957094580162800,13.645162841796875,0.0266781635671854,-0.2304267122209072,-0.17318272999823092
1771957094600128000,13.6651279296875,0.07145487840473652,-0.20986323214173316,-0.1710150305703282
1771957094620093000,13.685093017578126,0.015057283878326415,-0.1702513527214527,-0.0634556963443756
1771957094640057900,13.705057861328125,-0.11058920344114304,-0.0865653537750244,-0.04759790973812342
1771957094660023000,13.72502294921875,0.02748772638440132,-0.023762568381428716,0.04887772041559219
1771957094679988000,13.744988037109374,-0.05797405006289482,0.05035772984027862,-0.006146539930999279
1771957094699953000,13.764952880859376,-0.03318827611356973,0.11683540435433387,-0.04449059137254953
1771957094719917800,13.784917724609375,-0.2328320197969675,0.0931494083404541,-0.03243365835398435
1771957094739883000,13.804883056640625,0.2522913380265236,0.044668578287959095,-0.05693710823059082
1771957094759848000,13.824847900390624,1.6728499180957674,-0.050637715825438495,0.36367724480330943
1771957094779814000,13.84481396484375,0.13984627758562565,-0.04095511072278023,0.022204525284469128
1771957094799778800,13.86477880859375,-0.1063771387040615,0.21129823338091372,0.13438012113422154
1771957094819743700,13.88474365234375,0.0348521176725626,0.3127227181136608,0.24415157845169305
1771957094839709000,13.904708984375,0.019271102181077002,0.2561497670203447,0.3006245763018727
1771957094859673600,13.924673583984376,0.7283978611797094,0.17445640319585798,0.5984340951830148
1771957094879638500,13.944638427734375,1.5457999937191604,0.02679506794512272,0.6611845658674835
1771957094899603700,13.964603759765625,0.8960904693290591,-0.3600023556828499,0.19874825614839792
1771957094919568600,13.984568603515624,0.24581074383556842,-0.3641191433519125,-0.3451595913380384
1771957094939533600,14.004533447265626,-0.37259587979614733,-0.18041735742688178,-0.3972112656146288
1771957094959498500,14.02449853515625,-0.2673947991341352,0.019596096351742743,-0.20614362709671258
1771957094979463700,14.044463623046875,0.09761281749010085,0.26483810038864614,0.26203356436192987
1771957094999429400,14.064429443359375,-0.04983107561767101,0.2216390101313591,0.33360563940554855
1771957095019394300,14.084394287109374,-0.08079378463625908,0.14044248991310596,0.12236907308399676
1771957095039359500,14.104359375,-0.020585107389092444,0.00011164368093013762,-0.006669979283213615
1771957095059324400,14.124324462890625,0.02972469165623188,-0.020309213057160377,-0.012537117750942706
1771957095079289300,14.144289306640625,-0.028479660031199453,-0.02411094342768192,0.02908025627285242
1771957095099254500,14.164254638671874,-0.15000819063782692,0.04148819468617439,0.02139773894622922
1771957095119219500,14.184219482421875,-0.0978068787574768,0.15076514648497102,0.04604045116305351
1771957095139184400,14.204184326171875,-0.11871873388290405,0.15556290215551852,0.09042699763923882
1771957095159149300,14.2241494140625,-0.20379881753623486,0.15292144773602484,0.04123042053282261
1771957095179114500,14.244114501953124,-0.4416366827964782,0.046833647367358205,-0.03439297572821379
1771957095199079400,14.264079345703125,-0.5536024352878332,-0.055225628137588495,-0.15302885363325475
1771957095219044400,14.28404443359375,-0.48237493589818475,0.01727262184023857,-0.13292042384520172
1771957095239010600,14.304010498046875,-0.30915421197712417,0.07865326547622681,-0.0961333925873041
1771957095258975500,14.3239755859375,-0.39559973876476284,0.024219664499163625,-0.13067775948494673
1771957095278940400,14.3439404296875,-0.3842226047039032,-0.10847089611291885,-0.06330941974148153
1771957095298905600,14.363905517578125,-0.29444530314505096,-0.10262450817227363,-0.016156038900464773
1771957095318870500,14.38387060546875,-0.1769131486982107,-0.0873234786659479,-0.008859013760089874
1771957095338835500,14.40383544921875,0.052741410106420514,-0.05389525631666183,0.09865940393358469
1771957095358800400,14.42380029296875,0.06904080300033093,0.07415595405697822,0.17199907317161559
1771957095378765600,14.443765625,0.2148497883826494,0.09317337373793125,0.14428119129315017
1771957095398730500,14.46373046875,0.3003828765004873,0.03716331722438335,0.1880580814383924
1771957095418695400,14.4836953125,0.37151392977833747,-0.07124035887122154,0.1723765281818807
1771957095438660600,14.50366064453125,0.23737784653306007,-0.20810732838511467,0.16280454384684562
1771957095458626600,14.52362646484375,-0.1294037940263748,-0.021833646145462987,-0.01580956355035305
1771957095478591500,14.543591552734375,-0.19319909758865833,0.2370885081976652,-0.0743009154856205
1771957095498556700,14.563556640625,-0.17630056975781916,0.08848959983587265,0.02328501399755478
1771957095518521600,14.583521484375,-0.224238963496685,-0.23066052097678183,0.09614742111265659
1771957095538486500,14.603486572265625,-0.32060382675230503,0.04173837005496025,-0.07161781388148665
1771957095558451500,14.623451416015625,-0.2644599147260189,0.3530523904144764,-0.12116729607880115
1771957095578416600,14.643416748046874,-0.04326631027460098,0.18198212252557278,-0.08498933662995696
1771957095598381600,14.663381591796876,0.11373393120765686,-0.013960136291384696,-0.032811990147084
1771957095618346500,14.683346435546875,-0.03435001336932182,-0.03814472947716713,-0.15186682411655783
1771957095638311700,14.703311767578125,-0.05051029005348682,0.0008767828345298766,-0.14286065697073935
1771957095658276600,14.723276611328124,-0.06750994017124176,-0.06717208651900292,-0.11723068728223442
1771957095678242600,14.74324267578125,-0.049290977391600606,-0.053231239449977874,-0.026050679318606853
1771957095698207700,14.763207763671875,0.020237316864728926,0.03723696698248386,0.09125482676550746
1771957095718172700,14.783172607421875,0.08266893085837364,0.04768704932630062,0.18763547211214898
1771957095738137600,14.8031376953125,0.05227028546333313,-0.01158405480980873,0.05026610603407025
1771957095758102500,14.8231025390625,-0.1401274326145649,-0.10973463243842124,-0.1264921443633735
1771957095778067700,14.843067626953125,-0.08118132264912128,-0.055258361363410946,-0.08320274547412991
1771957095798032600,14.86303271484375,-0.16710253330171107,0.027413492104411123,-0.018310586585849522
1771957095817997600,14.88299755859375,-0.27385902671217915,0.10665244851410388,-0.019000760807096957
1771957095837962500,14.90296240234375,-0.3044786213815212,0.16786241175830363,-0.01939779730066657
1771957095857928000,14.922927978515625,-0.15020108286142347,0.1051437975168228,0.056333589379489415
1771957095877892900,14.942892822265625,0.31477205185890195,-0.021672902625799177,0.20090558031275868
1771957095897859000,14.962859130859375,0.545448939448595,0.0021826047360897064,0.17117650474235416
1771957095917824000,14.982823974609374,0.5997662205696106,-0.06489478923678398,0.09276727715507149
1771957095937789000,15.002788818359376,0.5036170458912849,-0.29662966144680974,0.008969780658185482
1771957095957753900,15.02275390625,0.408820454865694,-0.19267478145360944,-0.18189298293739556
1771957095977719000,15.042718994140625,0.23170447707176206,-0.030139117676019667,-0.2224080948077142
1771957095997684000,15.06268408203125,-0.1110346091210842,0.050666357398033136,-0.2324324990853667
1771957096017649000,15.08264892578125,-0.4791366846293211,0.07430325357317924,-0.13309870302155613
1771957096037614000,15.102614013671875,-0.6269909121036529,0.1349193425774574,-0.03808101659119129
1771957096057579000,15.1225791015625,-0.5001753810048103,-0.016862871995568275,0.01918839233368635
1771957096077544000,15.1425439453125,0.02713175255358219,-0.17981296179294584,0.2302269518651068
1771957096097508900,15.1625087890625,0.09421499174535274,-0.1935749451637268,0.32798692274093627
1771957096117475000,15.18247509765625,0.020365911680459974,-0.06492284628748893,0.18858721987903118
1771957096137440000,15.20243994140625,0.04198328472673893,0.019039631512761116,0.051666182090342044
1771957096157405000,15.222405029296874,0.14906594135165213,0.07653612719178199,0.11897855386286973
1771957096177370000,15.2423701171875,0.18606968410015104,0.20568974584937094,0.12498173980042337
1771957096197335000,15.2623349609375,0.1148649810642004,0.268805250453949,0.10135814149826765
1771957096217300000,15.282300048828125,-0.09369944343864917,0.31777298724055286,-0.0006738076083362102
1771957096237265200,15.30226513671875,-0.03656184419989586,0.29477321992516514,-0.007186988894641399
1771957096257230000,15.32222998046875,0.10337678784430027,0.1705833611547947,0.06016542262732982
1771957096277195000,15.342195068359375,0.21850246567130088,0.02584463535249233,0.029975305416435002
1771957096297160000,15.362159912109375,0.14969430238306522,0.011959902384877204,-0.06707593266814947
1771957096317125000,15.382125,0.1138274547100067,-0.03310848887562751,-0.12504486816450952
1771957096337090000,15.402090087890626,0.0783136582583189,0.0018517653465270996,-0.2354156065493822
1771957096357056000,15.422055908203125,0.14328443534076213,-0.0479448234796524,-0.16333163646087048
1771957096377021200,15.442021240234375,0.004582067093253136,-0.2955249150753021,-0.07366729375720024
1771957096396986000,15.461986083984375,-0.21611703183948994,-0.2907575545430183,-0.07574073903039097
1771957096416951000,15.481950927734376,-0.29299978051185604,-0.1748316662490368,-0.11540960933491587
1771957096436916200,15.501916259765625,-0.10886311030089854,-0.08398995032906532,-0.00993029625341296
1771957096456881200,15.521881103515625,-0.05733341407179832,-0.16881868956983087,0.17267931052073834
1771957096476846000,15.54184619140625,-0.2060620862931013,-0.20935937427282333,0.11790639458671212
1771957096496811000,15.56181103515625,-0.25018589017987247,-0.03785480661988258,0.028628566982597112
1771957096516776200,15.581776123046875,-0.20088146878480911,0.11991349662542343,0.04812558687403798
1771957096536741000,15.6017412109375,-0.02087853737771511,0.18981237775981424,0.12494520718231797
1771957096556706000,15.6217060546875,0.08546119192540645,0.2021533884167671,0.1078609475210309
1771957096576672000,15.641672119140624,0.14554478148818015,0.1406932498037815,0.037951837253570556
1771957096596637000,15.661636962890626,0.1739420239329338,0.10380699595510959,-0.008396803075820207
1771957096616601900,15.681601806640625,0.1578998206704855,0.08691080621182919,-0.002768149539083242
1771957096636567000,15.701567138671875,0.1619604942381382,0.040593876194953915,-0.027956805200874804
1771957096656532000,15.721531982421874,0.19341946234107016,0.011105915904045104,0.013154518996924162
1771957096676497000,15.741496826171876,-0.014575053319334983,-0.10701251399815082,0.004135346239060163
1771957096696461800,15.7614619140625,-0.026511574828624724,-0.04452653946876525,-0.02470189505815506
1771957096716427000,15.781427001953125,-0.08355974221825599,-0.020700842723250387,0.006393646559864282
1771957096736392000,15.801391845703124,-0.18138532567620277,-0.06842004075348376,0.04365384828746319
1771957096756356900,15.82135693359375,-0.1249555824458599,-0.010531330886483193,0.055932607363164424
1771957096776322000,15.841322021484375,-0.2783843951821327,0.005789104795455933,0.04806538111940026
1771957096796287000,15.861286865234375,-0.31426644042432306,0.02587035431563854,0.03312485548853874
1771957096816253000,15.8812529296875,-0.2198515421926975,0.07195639818608761,0.05783917163684964
1771957096836218000,15.901218017578126,0.047829088145494456,0.09752163207530974,0.1050958667218685
1771957096856183000,15.92118310546875,0.1970171945720911,0.07369009011089801,0.10500234321951865
1771957096876148000,15.94114794921875,0.24756080237329003,0.058742696347832676,0.03872705940976739
1771957096896113000,15.96111279296875,0.21548516367673873,0.007375497204065323,0.006296323665231466
1771957096916078000,15.981078125,0.1742915680229664,0.03098550537228584,-0.04669102402627468
1771957096936043000,16.00104296875,0.004599018228054046,-0.00611468348801136,0.03197276284396648
1771957096956008000,16.021008056640625,-0.09030746291279793,0.034601357781887054,0.03568140810355544
1771957096975972900,16.040972900390624,-0.00890752907693386,0.039002223089337346,0.02794774511158466
1771957096995938000,16.06093798828125,-0.02286006658375263,-0.043108489364385605,-0.004386836782097816
1771957097015903000,16.080903076171875,-0.11662556099593639,-0.08817746514678002,-0.05150675374493002
1771957097035868000,16.100867919921875,-0.13947919783890247,-0.024355273577570915,0.017935323532670737
1771957097055834000,16.120834228515626,-0.0693944387435913,0.059195116290450094,0.05049246213585138
1771957097075799000,16.140799072265626,0.06229015969634056,0.016330372554063798,0.044711686777323484
1771957097095764000,16.160763916015625,-0.0027267946153879162,-0.030736499047279355,-0.02142433469220996
1771957097115729200,16.180729248046877,0.019985972452163697,-0.005729483562707901,-0.028450872328132388
1771957097135694000,16.200694091796876,0.03646948974132538,0.03227437613904476,-0.01406710379719734
1771957097155659000,16.220658935546876,0.10831775137782096,0.028043022179603576,0.003179945210367441
1771957097175624000,16.2406240234375,-0.06242050807774067,-0.048420039775967594,0.01655176021978259
1771957097195589000,16.260589111328127,-0.1171872865319252,0.030825930896401402,0.01860036331266165
1771957097215554000,16.280553955078126,-0.07022504434883595,0.09892565365433692,0.052147535866498944
1771957097235519000,16.30051904296875,0.03095335666835308,0.06566285099983216,0.09377148576155304
1771957097255484200,16.320484130859374,0.015651742640137672,-0.0336450799703598,0.0689373426258564
1771957097275449000,16.340448974609377,-0.07859832041859627,-0.008031915286183357,0.001852349868416786
1771957097295415000,16.3604150390625,-0.02736731487512588,0.03090367230772972,0.022033991023153066
1771957097315380200,16.380380126953124,0.0865220991551876,0.005748772785067558,0.06005246377214789
1771957097335345200,16.40034521484375,0.0634299773812294,-0.06260054081976413,-0.021909487860649824
1771957097355310000,16.42031005859375,0.05789455508589744,-0.06622574557960033,-0.017610037101060152
1771957097375275000,16.44027490234375,-0.027871757265925407,-0.026153262910246847,-0.0008807283572852611
1771957097395240200,16.460240234375,0.030594460228085516,0.02815992655754089,-0.024791326907277107
1771957097415205000,16.480205078125,0.05437339522242546,-0.031820202630758285,0.0012488310173153876
1771957097435170000,16.500170166015625,0.1001122330904007,-0.03864566473662853,0.013229337798804044
1771957097455135200,16.52013525390625,0.023194997626543045,-0.0033200843334197996,0.010876637192815541
1771957097475100200,16.54010009765625,-0.04965104287564754,-0.023757892206311224,-0.014664631298929452
1771957097495065000,16.560065185546875,-0.12760814278125762,0.006076689565181732,0.07178191840201616
1771957097515031000,16.580031005859375,-0.05985737959146499,0.06276537599265575,0.0848654179893434
1771957097534996000,16.599995849609375,-0.025929391026496884,0.031498715591430665,0.10053060463294386
1771957097554961000,16.6199609375,-0.01691664800941944,0.03146013714671135,0.040052901186048984
1771957097574925800,16.63992578125,0.0605892009973526,0.0267827929854393,0.009479045354574918
1771957097594891000,16.65989111328125,0.0898725786268711,0.04401332924962043,-0.014073533537983893
1771957097614856000,16.67985595703125,0.1157312425047159,0.024072949504852295,0.0007477496273815632
1771957097634820900,16.69982080078125,0.05769640216529369,-0.022111294043064115,0.0087903324380517
1771957097654786000,16.7197861328125,0.06042904199957847,-0.009821136790513992,-0.0010815116263926028
1771957097674751000,16.7397509765625,0.06483107635080813,-0.002028290957212448,-0.011055647021532057
1771957097694716000,16.7597158203125,0.02504033323228359,-0.07350655023753642,-0.009028378977626561
1771957097714680800,16.779680908203126,-0.09518705164790153,-0.049503743359446524,0.05006941441819072
1771957097734647000,16.79964697265625,-0.09197744195163249,0.0038689503878355023,0.10420710118860006
1771957097754612000,16.819612060546874,-0.11209902348220348,0.016881576696038247,0.12025178866907954
1771957097774577000,16.839576904296877,-0.12653028441667555,-0.011776362511515617,0.04977043147161603
1771957097794542000,16.8595419921875,-0.14546996268630027,0.03033025633394718,0.032347587505728005
1771957097814507000,16.879507080078124,-0.05534720869064331,0.03399462406039238,0.08775763229951263
1771957097834472000,16.899471923828123,0.027628011637926102,0.025273557466268536,0.08503376029357314
1771957097854437000,16.91943701171875,0.056274844929575914,-0.03574760520756244,0.005145984586328267
1771957097874402000,16.939402099609374,0.06962006419301033,-0.014110942938923834,-0.014503887779265642
1771957097894367000,16.959366943359374,0.08872633120119572,0.03414718427360058,0.012929624199867248
1771957097914332000,16.979331787109373,0.09477204110622406,0.04619418042004108,0.005398498042672872
1771957097934297000,16.999297119140625,0.04881400752961635,0.021973346877098083,0.02087415346354246
1771957097954262000,17.019261962890624,0.024947394251823424,0.0032546178817749022,0.011309037260711193
1771957097974227000,17.03922705078125,-0.045486908933520316,0.006046878948807716,0.007472381707280874
1771957097994193200,17.059193115234375,-0.044288639059662814,-0.024092823249101638,-0.0016067045442759989
1771957098014158000,17.079157958984375,-0.013148819908499717,-0.03416179732084274,0.014027356308698653
1771957098034123000,17.099123046875,-0.1169207445502281,-0.07018003616333007,0.04258358870744705
1771957098054088200,17.119088134765626,-0.10799509529471396,-0.04384615598917007,0.004727759174257516
1771957098074053000,17.13905322265625,-0.09614683659076691,0.0021603929042816163,0.022207009502500295
1771957098094018000,17.15901806640625,-0.05076104994416237,0.01945113492310047,0.03120981564745307
1771957098113983000,17.17898291015625,-0.023091537252068518,0.028640988072752952,0.04972936880886555
1771957098133948200,17.1989482421875,-0.03599719605445861,0.030232056656479833,-0.021730185770988463
1771957098153913000,17.2189130859375,0.00814940418601036,-0.0255278244882822,-0.026001433349400756
1771957098173878000,17.2388779296875,-0.0448468574643135,-0.02103226663470268,-0.029676760861277577
1771957098193843200,17.25884326171875,0.006819616886973381,0.010157821398973465,-0.006734422821551561
1771957098213808000,17.27880810546875,0.034925182908773424,0.01704874995648861,0.006226473299413919
1771957098233773000,17.29877294921875,0.08240355792045592,0.017985154023766516,0.01779094662591815
1771957098253739000,17.318739013671873,0.011865794360637665,0.006197685596346855,-0.017876725213229656
1771957098273704000,17.338703857421876,0.021051555857062337,0.009189853149652481,0.02704568170532584
1771957098293668900,17.3586689453125,-0.04397299723923206,0.037816812697052955,0.009845686709880829
1771957098313633800,17.3786337890625,-0.0025227964758872986,0.052629766425490374,0.047490796101838345
1771957098333599000,17.398598876953123,0.04451894068419933,0.014050152662396431,0.05106850845813751
1771957098353564000,17.41856396484375,0.08489420569241046,0.007148702710866928,-0.0026126667164266108
1771957098373528800,17.43852880859375,0.007991583275794982,-0.029528876823186872,-0.029193799649924038
1771957098393494000,17.458493896484374,0.00037292496562004086,-0.008994038316607474,0.024742519329488274
1771957098413459000,17.478458984375,0.0027530981004238128,-0.02169336089193821,0.048707770676165815
1771957098433424000,17.498423828125,0.02766249842941761,0.004823474633693695,0.03801584240049124
1771957098453389000,17.51838916015625,-0.08222937039732933,0.016081950750946997,0.003765490013360977
1771957098473354000,17.53835400390625,-0.02992109101116657,0.015527823999524116,-0.013452332899719475
1771957098493320000,17.55831982421875,-0.07829086190462112,-0.025133856734633444,0.026316490647941827
1771957098513284900,17.578284912109375,-0.014659808993339537,-0.013650339689850806,0.0038012919791042803
1771957098533250000,17.59825,0.06489712732434272,-0.02607084532380104,0.01907104956433177
1771957098553215000,17.618215087890626,0.08442658818066119,0.001536123526096344,0.011182196010649204
1771957098573180000,17.638179931640625,0.06010638591647148,0.0184913499802351,0.02265402261763811
1771957098593144800,17.658144775390625,0.10040449403524399,0.02518763274848461,0.016879969260841607
1771957098613110000,17.678110107421876,0.03364391092658043,0.029697803649306295,0.03911445129215717
1771957098633075000,17.698074951171876,0.0365513228058815,0.04093757506608963,0.03145809132009744
1771957098653039900,17.718039794921875,0.04255260904729366,0.05674889218211174,0.06362053151726722
1771957098673005000,17.738005126953126,-0.035709611284732816,-0.010217442631721496,0.06430676021575928
1771957098692970000,17.757969970703126,-0.0630120442301035,-0.002877601262927055,0.01770765225663781
1771957098712936000,17.77793603515625,-0.06825579010248184,-0.03474690373241901,-0.014644026902318
1771957098732901000,17.797901123046874,0.014689035087823868,-0.04023848688602447,0.05014321030676364
1771957098752866000,17.817865966796877,0.014939794978499411,-0.021726094117760657,0.043387452436238524
1771957098772831000,17.8378310546875,-0.04758183538615703,-0.05255553214550018,-0.012303747386485337
1771957098792796000,17.8577958984375,-0.03744856390655041,-0.07427636556625365,-0.053499534997344014
1771957098812761000,17.877760986328123,0.003205518043041229,-0.0363029010027647,-0.03142185096293688
1771957098832726000,17.89772607421875,0.0035240824729204177,-0.04490180252194404,-0.00979439491406083
1771957098852691500,17.91769140625,0.007761281651258468,-0.03482347609996796,-0.032618513401597736
1771957098872656400,17.937656494140626,0.009787819042801857,-0.0279722950309515,-0.0026361937224864958
1771957098892621300,17.957621337890625,0.007483049231767654,0.008809329399466515,-0.01386105983108282
1771957098912586200,17.977586181640625,-0.058144730454683304,0.00015840543210506437,0.027800591725856066
1771957098932552400,17.997552490234376,-0.03851940800845623,0.038709962144494056,0.015900602834671734
1771957098952517400,18.017517333984376,-0.03475333347320556,0.04257949705421924,0.0521047196380794
1771957098972482300,18.037482421875,-0.11430559361577033,0.025920623198151586,0.022812281919270753
1771957098992447500,18.057447509765623,-0.07713584665060043,0.09659925653338432,0.05004457223787904
1771957099012412400,18.077412353515626,0.05842997713685035,0.09582359598577021,0.13607406557053328
1771957099032377300,18.09737744140625,0.08983283113837241,0.07207213352024555,0.12745923582985996
1771957099052342500,18.117342529296874,0.21018179657161234,0.036301731958985325,0.07365969497263432
1771957099072307500,18.137307373046873,0.25893209121525285,-0.03980243355631828,-0.007362053200602531
1771957099092272400,18.1572724609375,0.23005729438662528,-0.06449205365478992,-0.023351064971089363
1771957099112237300,18.1772373046875,0.08730535848736762,-0.03967033160924911,-0.0716775812447071
1771957099132203300,18.197203369140624,-0.03524024020731449,-0.03232230693399906,-0.05517068307995796
1771957099152168200,18.217168212890623,-0.18208675194382667,0.018343465942144394,0.007615297309309244
1771957099172133000,18.237133056640626,-0.16127894171476362,0.028510055169463155,0.02570069683715701
1771957099192098300,18.257098388671874,-0.09807342073917388,-0.0065437225550413125,0.019897271255403755
1771957099212063200,18.277063232421874,-0.05092880772650241,-0.04136252247989178,0.01871244538500905
1771957099232028200,18.297028076171873,0.007106617134809493,-0.04276186788380146,-0.005768646529316902
1771957099251993300,18.316993408203125,0.03875672389566898,-0.006429740786552429,0.0571881603822112
1771957099271958300,18.336958251953124,-0.06512275277376174,-0.004022095122933387,0.05916866667494178
1771957099291923200,18.356923095703124,-0.12175298701226711,0.01965162593126297,0.016165975772589443
1771957099311889400,18.376889404296875,-0.08660042508840561,0.08808101903498172,0.022707652501016855
1771957099331854300,18.396854248046875,-0.059468088012933726,0.049043140110373494,0.010508534532785415
1771957099351819300,18.4168193359375,0.026102409505844113,0.029654549029469488,0.012094780810922384
1771957099371784200,18.4367841796875,-0.10325988346636295,0.009943886387348175,-0.06644304159209131
1771957099391749400,18.456749267578125,0.40474984442591666,0.024938041901588437,0.0118086573459208
1771957099411714300,18.47671435546875,0.3768453539341688,0.014268763849139212,0.16875117729157207
1771957099431679200,18.49667919921875,0.1277355685532093,-0.034273441001772875,-0.043202158997207876
1771957099451644200,18.51664404296875,0.020991934624314305,-0.08241115670502186,-0.06971738708764315
1771957099471609300,18.536609375,0.079559274405241,0.0040951603591442105,0.05545417619645595
1771957099491575300,18.5565751953125,0.07339081490337848,-0.03823240776062011,0.15576090894564984
1771957099511540500,18.57654052734375,-0.21391864501237867,-0.07053542547225952,0.10420154823064803
1771957099531505400,18.59650537109375,-0.43459553211331364,-0.009084639209508895,-0.0448677541218698
1771957099551470300,18.61647021484375,-0.36955928857922554,0.04696808740198612,-0.07216200376078485
1771957099571435300,18.636435302734377,-0.07909399498105049,0.013667875346541404,0.015297230114042758
1771957099591400400,18.656400390625,0.08513561323285103,0.054798927158117294,0.15748992469534276
1771957099611365400,18.676365478515624,0.04487608355879783,0.06176058286428451,0.031400369783490895
1771957099631330300,18.696330322265624,0.15106091456115245,0.057142859935760494,-0.01118365731537342
1771957099651295200,18.716295166015627,0.1530453663766384,0.05771744495332241,0.03671557345688343
1771957099671260400,18.736260498046875,0.098800565969944,0.028301965376734732,-0.02206803942322731
1771957099691225300,18.756225341796874,0.030370588344335554,0.06465630430579185,0.02437953123599291
1771957099711191300,18.77619140625,0.011480009913444519,0.04975976394712925,0.053812692599743604
1771957099731156200,18.79615625,0.006204699859023094,0.04830898061692714,0.03838657540902495
1771957099751121400,18.816121337890625,-0.016366612911224366,0.00894201586842537,-0.012099749246984719
1771957099771086300,18.83608642578125,-0.001152092644572258,-0.032138182538747784,-0.06382862130999564
1771957099791051300,18.85605126953125,0.055223874571919435,-0.05678162540793419,-0.03917655674293637
1771957099811016400,18.876016357421875,0.018544541472196578,-0.05230769486427307,0.01231105391010642
1771957099830981400,18.8959814453125,-0.08178454923927783,-0.017557284000515937,0.027042466834932565
1771957099850946300,18.9159462890625,-0.09111527216434478,0.01664309176504612,0.042446372193843125
1771957099870911200,18.9359111328125,-0.0843085147589445,0.01902151133418083,0.01898220223709941
1771957099890876400,18.95587646484375,-0.05165186130404472,0.015647650986909865,0.039301790557801725
1771957099910842400,18.97584228515625,-0.05596563284993172,0.03368833459019661,0.07259878774285317
1771957099930807300,18.995807373046876,-0.03993102837204933,0.016245032358169556,0.03549669918641448
1771957099950772200,19.015772216796876,-0.06295885273814202,-0.03159983787834644,-0.01664046141654253
1771957099970737400,19.0357373046875,-0.039296822121739385,0.0024602526336908338,0.021715280462801457
1771957099990702300,19.055702392578127,0.0012964695513248442,0.05375438654124737,0.052609015898406504
1771957100010667300,19.075667236328126,0.052180269092321395,0.018151742762327193,0.028291443982720373
1771957100030632400,19.095632568359374,0.044727614998817444,0.019452303966879844,0.007691139024496078
1771957100050597400,19.115597412109373,0.032580081087350846,0.00008534019589424133,-0.013126608076691627
1771957100070562300,19.135562255859377,-0.050017538100481033,0.004848609074950218,-0.02359583351239562
1771957100090527200,19.15552734375,0.001260229194164276,0.02166939549446106,0.011975976736843585
1771957100110492400,19.175492431640624,0.041021746218204494,0.02218961997628212,0.014474661684781311
1771957100130457300,19.195457275390623,0.0025385785669088364,-0.04117956712841987,-0.07793795681372284
1771957100150423300,19.21542333984375,0.0152104286134243,-0.04702770863473415,-0.04620923185870051
1771957100170388500,19.235388427734375,-0.0006499883413314818,-0.047343350455164905,0.006682400373369455
1771957100190353400,19.255353515625,-0.11030103414952755,-0.10236264236569403,0.024076895027607677
1771957100210318300,19.275318359375,-0.16641455103754996,-0.03615677053034305,-0.0029015666604042052
1771957100230283500,19.295283447265625,-0.057118894538283345,0.03542904077768325,0.12732099640294908
1771957100250248400,19.31524853515625,-0.07826163581013679,0.025188217270374298,0.12124854462146759
1771957100270213400,19.33521337890625,-0.031037527820467946,-0.003170446729660034,0.049091217035800216
1771957100290178300,19.35517822265625,0.0361199456512928,0.006027589726448059,-0.015450520979613065
1771957100310143500,19.3751435546875,0.01835924803316593,0.011074936243891715,0.030502690291404722
1771957100330108400,19.3951083984375,0.10938508834838867,0.040513212174177166,0.10252207071110606
1771957100350073300,19.4150732421875,0.05929565405547618,0.05413958646655082,0.06613192981630564
1771957100370039600,19.43503955078125,0.09604805239140987,0.0316670578956604,-0.01224354163184762
1771957100390004500,19.45500439453125,0.052231122496724125,0.009465162959694861,-0.021522680500149726
1771957100409969400,19.474969482421876,0.07388765850961208,0.0037841947138309477,0.017390987522900102
1771957100429934600,19.4949345703125,0.09668108959794044,0.0069254153490066524,0.05177855642363429
1771957100449899500,19.5148994140625,0.18086217858493328,0.025254852765798568,0.03186652599051595
1771957100469864400,19.534864501953123,0.006789221748709678,-0.06802782656550407,-0.06696487350910901
1771957100489829400,19.554829345703126,-0.09151859226822853,-0.1116670618057251,-0.07716098109185696
1771957100509794600,19.574794677734374,-0.1920399906814098,-0.04357610687613487,0.038760523287951945
1771957100529759500,19.594759521484374,-0.12970774540901184,0.026817279776930807,0.11828794125020503
1771957100549724400,19.614724365234373,-0.11126958692073821,0.039027942052483555,0.07282865097597241
1771957100569689300,19.634689453125,-0.09587211130261421,-0.02021802764236927,0.010290361737459897
1771957100589654500,19.654654541015624,-0.03916062852144241,-0.040891397836804386,-0.02234334923326969
1771957100609619500,19.674619384765624,0.05131868382692337,-0.03087093908190727,0.020087094739079474
1771957100629585200,19.694585205078123,0.015524901390075682,0.0007014262676239013,0.04579524423032999
1771957100649550300,19.71455029296875,0.009690203887224197,0.022043489503860474,-0.023412439769506452
1771957100669515300,19.734515380859374,0.0370130950987339,0.05051788883805275,0.01243088089749217
1771957100689480200,19.754480224609374,0.12535890254974363,0.06288754106760025,0.0022493863619863987
1771957100709445400,19.7744453125,0.1019809495717287,0.011891513323783874,-0.019918606304377317
1771957100729410300,19.794410400390625,0.1496913797736168,-0.0006008885025978088,-0.007966010443121195
1771957100749375200,19.814375244140624,0.03032499563694,-0.04696282670497894,-0.021972908485680818
1771957100769340200,19.834340087890624,0.07561024451851844,-0.04584872798323631,0.03817804722487926
1771957100789305300,19.854305419921875,0.11052607507705688,-0.039378655186295505,-0.023378975891321895
1771957100809270300,19.874270263671875,0.13583353481292723,-0.12209084066450596,0.021607143913209437
1771957100829235200,19.894235107421874,0.1679939291834831,-0.09496084167659283,-0.17678163127303123
1771957100849200400,19.914200439453126,0.22832009533047676,-0.1392944889217615,-0.29132132590562104
1771957100869165000,19.9341650390625,0.36832185573875903,-0.17146832729578018,-0.11632570126652717
1771957100889131000,19.954131103515625,-0.22844635205864905,-0.27069559424519535,-0.08041574510410428
1771957100909096000,19.974095947265624,-0.8895429473817348,0.10952069742679596,-0.1420021404452622
1771957100929060900,19.994060791015624,-1.072309498283267,0.3134241443812847,0.009198182586580514
1771957100949026000,20.014026123046875,-2.3285744649916884,0.39946635106503964,0.566939471244812
1771957100968991000,20.033990966796875,-0.6057493866324425,0.4191746756196022,0.1340907827988267
1771957100988956000,20.053955810546874,-0.39201486601531504,0.18142974933981895,-0.04695347435474395
1771957101008920800,20.0739208984375,0.03358078256249428,0.028169863429665563,0.06782762781828641
1771957101028886000,20.093885986328125,0.3085357878178358,0.18136779001951217,0.2054708424016833
1771957101048851000,20.113850830078125,0.7093208202660083,0.03143091105222702,0.3866659062027931
1771957101068816000,20.13381591796875,-0.01817103198468685,0.015553542962670325,0.2583132286645472
1771957101088781000,20.153781005859376,0.9643570730865001,0.06645254007279873,-0.08071122091934084
1771957101108746000,20.17374609375,0.19243980365395544,-0.019354104289412498,-0.026279811899363993
1771957101128711000,20.1937109375,-0.3913157778352499,0.2582932087898254,-0.1317632166340947
1771957101148675800,20.21367578125,-0.6094599315881729,0.2747854939073324,-0.26264365908429027
1771957101168642000,20.23364208984375,-0.4133218579381704,0.05183715474307537,-0.1403293849274516
1771957101188607000,20.25360693359375,-0.02300911966562271,0.0595610269933939,0.04762625904977321
1771957101208572000,20.273572021484377,-0.7123749471396207,-0.07362988435626029,0.14623247149139643
1771957101228537000,20.293537109375,-0.9849053555965424,-0.2873299181818962,-0.2753330447874963
1771957101248502000,20.313501953125,-1.0702128182649613,-0.3566448619484901,-0.5724957901977002
1771957101268467000,20.333467041015624,-0.7109849540859461,-0.5763888521134853,-0.5688365370377898
1771957101288432000,20.35343212890625,-0.06486088696718216,-0.5624930132299661,-0.48735769274681806
1771957101308397000,20.37339697265625,-0.052335751914978024,-0.38721301869153973,-0.45326779161840675
1771957101328362000,20.393362060546874,0.010323825615644454,-0.2824731258004904,-0.3603361176818609
1771957101348327000,20.413326904296873,0.21781039175391195,-0.0957242272645235,-0.47281975656747816
1771957101368292000,20.4332919921875,0.3707838619381189,0.1697989327788353,-0.2985617985531688
1771957101388257000,20.453257080078124,2.947466826313734,-0.1851303574234247,0.031184535075724124
1771957101408222000,20.473221923828124,3.600378946137428,0.1798638151973486,0.6885881210997701
1771957101428187000,20.493186767578123,2.1849118439882993,0.27799568812549114,0.9954285031765698
1771957101448152000,20.513152099609375,0.9112918378531932,0.1436345639526844,0.4767842762842774
1771957101468117000,20.533116943359374,0.014324293428659438,0.3342857306241989,0.007353285372257232
1771957101488083200,20.553083251953126,0.06719312930703163,0.6080155779987573,-0.0016185411125421523
1771957101508048100,20.573048095703125,0.49851241622865194,0.5623989052057266,0.4468503257915377
1771957101528013000,20.593012939453125,0.724621849772334,0.32457623751461506,0.6046271046042442
1771957101547978000,20.61297802734375,0.9207125771492719,0.3410357894062996,0.3910186945848167
1771957101567943200,20.632943115234376,1.2692717477977276,0.11129822849333286,0.16329890323504806
1771957101587908000,20.652908203125,-0.4967997670918703,-0.25214345398843285,-0.18957140861079097
1771957101607873000,20.672873046875,-0.16088672752678393,-0.3700304132223129,-0.40071430529952046
1771957101627838000,20.692837890625,-0.5144798006892204,-0.21700141345858573,-0.6558833907194436
1771957101647803100,20.71280322265625,-1.163413080009818,-0.091650109693408,-0.7287941670209169
1771957101667768000,20.73276806640625,-1.1015700795590877,-0.2774380542427301,-0.6436364880867302
1771957101687733000,20.75273291015625,-0.658816959953308,-0.08112696211338043,-0.3448804821357131
1771957101707698200,20.7726982421875,-0.4135714487850666,-0.2210194169282913,-0.4242776978470385
1771957101727663000,20.7926630859375,-0.41146950806975363,-0.2741103711247444,-0.5342056609004736
1771957101747628000,20.8126279296875,-0.28559856434464453,-0.3606850772500038,-0.4678286702819168
1771957101767593000,20.832593017578127,-0.08774608799219132,-0.4050824373811483,-0.2955463962547481
1771957101787558100,20.85255810546875,0.33092765236794947,0.3856266262829304,-0.12493877744153141
1771957101807523000,20.872523193359374,-1.3007365611195563,-0.3791051155596971,0.3297396116271615
1771957101827488000,20.892488037109374,-0.14389058454036713,0.6385065778523683,0.0965086556404829
1771957101847454000,20.912453857421873,-0.397697587826848,-0.12918985901474953,0.003837824597209692
1771957101867419000,20.9324189453125,-0.19908874014914035,0.5275210685700178,0.23894319615364074
1771957101887383800,20.9523837890625,-0.47513913942575453,-0.15361001452207565,0.2643263514742255
1771957101907349000,20.972348876953124,0.12132979316413402,0.5062736978799104,0.4655702238306403
1771957101927314000,20.99231396484375,-0.16992226689755915,-0.054578562405705446,0.48013475575596093
1771957101947278800,21.01227880859375,0.40269057380855083,0.3812719382047653,0.503163749165833
1771957101967243800,21.032243896484374,0.21138824975192547,0.12905951063334942,0.4762893323741853
1771957101987209000,21.052208984375,0.5882008704602718,-0.03951017261147499,0.5443582216024399
1771957102007174000,21.072173828125,0.8049135301053524,-0.02645896785855293,0.3099323567427695
1771957102027138800,21.092138916015625,0.383661463689804,-0.0893067614376545,0.17439181352704763
1771957102047103700,21.112103759765624,0.2894680992543697,-0.0659878451704979,0.11174553386941552
1771957102067069000,21.13206884765625,0.1470809050142765,-0.02313946804702282,-0.007292202834784984
1771957102087033900,21.152033935546875,-0.21113222916424274,0.05060498259961605,-0.27397965741716324
1771957102106998800,21.171998779296874,-0.42678748871088024,0.014049568140506744,-0.4935775171097368
1771957102126964000,21.1919638671875,-0.3601245207577944,0.07198562428057194,-0.5824504171747714
1771957102146929000,21.211928955078125,-0.3891366802304983,-0.05489595779180526,-0.4624688968144357
1771957102166893800,21.231893798828125,-0.3707043669611215,-0.19950316616892813,-0.23020349792428313
1771957102186858800,21.251858642578124,-0.339845118317008,-0.10968728616535663,-0.17441629038117826
1771957102206824000,21.271823974609376,-0.2598953832894563,-0.03803834649324417,-0.1241509149994701
1771957102226789600,21.29178955078125,-0.1271340955287218,0.011020575708150864,-0.005377528319880366
1771957102246754600,21.311754638671875,-0.14806874700784683,-0.04228372897803783,-0.012894918212667106
1771957102266719700,21.3317197265625,-0.19449556713998317,-0.12381167310774326,-0.00954670376330614
1771957102286684700,21.3516845703125,-0.0573737460821867,0.006435586005449295,0.06140380531586706
1771957102306649600,21.371649658203125,-0.05564414581060409,0.1531283684849739,0.1309003892596811
1771957102326614800,21.39161474609375,0.17011048294603823,0.14820961678326128,0.13767945494055747
1771957102346579700,21.411579833984376,0.38127252272665496,0.11347440348863601,0.190643714017421
1771957102366544600,21.431544677734376,0.21624971830844877,0.05991115560531616,0.13617708755359054
1771957102386509600,21.451509521484375,0.012038812839984894,0.07497720731198787,-0.05249313443377614
1771957102406474800,21.471474853515623,-0.031034605211019514,-0.014754501539468765,-0.21046777390614152
1771957102426439700,21.491439697265626,0.07865852617323398,-0.059636430317163466,-0.1298055066950619
1771957102446404600,21.511404541015626,0.31740473845005035,-0.01191957037448883,0.07886215898655355
1771957102466369800,21.531369873046874,0.16408347774147986,-0.04373860396146774,0.11231346995048225
1771957102486334700,21.551334716796877,-0.07815992900133133,-0.041187165912985796,-0.04594802363924682
1771957102506299600,21.571299560546876,-0.2503466336995363,-0.0010270049601793288,-0.16444215498603879
1771957102526264600,21.5912646484375,-0.3031640316516161,-0.07174889291524887,-0.14435929803065956
1771957102546229800,21.611229736328124,-0.1571545552611351,-0.12338380308449268,-0.0740720751658082
1771957102566194700,21.631194580078127,-0.08206862687766552,-0.056619712844491,0.08996230273693799
1771957102586159600,21.65115966796875,0.05154080214500427,0.044079964745044706,0.1687337147001177
1771957102606124500,21.67112451171875,0.1178361058294773,-0.004626490756869316,0.2243879435133189
1771957102626089700,21.69108984375,-0.02297521739602089,0.005647065976262093,0.10043079752027988
1771957102646054700,21.7110546875,-0.12033669047355651,0.010796703824400901,0.005088189984485507
1771957102666019600,21.73101953125,-0.05534779321253299,-0.017604045751690865,0.010482742504402995
1771957102685984800,21.75098486328125,-0.01201543196439743,0.01708089866042137,0.07619527786485851
1771957102705950700,21.77095068359375,0.07379939570426941,-0.0013087445110082625,0.10384586666077375
1771957102725915600,21.79091552734375,0.03355564812123775,-0.010135025045275688,0.0954231254260987
1771957102745880800,21.810880859375,0.03277589592039585,0.04640986899733543,0.07634476933814585
1771957102765845800,21.830845703125,0.03057634004950523,0.05210895742177963,-0.021110446437448263
1771957102785810700,21.850810791015626,-0.02027940244078636,-0.009540566283464431,-0.05497136111557483
1771957102805775600,21.870775634765625,-0.07077274135947227,-0.05270984592437744,-0.06412723893038928
1771957102825740800,21.89074072265625,0.04435527455508709,-0.05297346529662609,-0.020569471428543328
1771957102845705700,21.910705810546876,0.18655834439992905,-0.01954524294734001,0.07526537660360336
1771957102865670700,21.930670654296875,0.08771919998526573,-0.017164485290646552,0.07900938543751836
1771957102885635800,21.9506357421875,0.05827332527041435,-0.03434592171609401,-0.0502596762932837
1771957102905600800,21.970600830078126,0.01614683268070221,-0.06786357591450214,-0.11662716843113302
1771957102925565700,21.990565673828126,-0.01623918713927269,-0.04568739994168281,-0.07881291301734746
1771957102945530600,22.010530517578125,-0.040380525705218315,-0.05319733718037605,-0.00405599739253521
1771957102965495800,22.030495849609373,-0.023552140501141548,-0.05877250696420669,-0.013934563458710908
1771957102985460700,22.050460693359376,-0.013440496331453323,-0.07203180150985718,-0.01474076527506113
1771957103005425700,22.07042578125,-0.08676876739263534,-0.04398351863324642,0.00798515353500843
1771957103025390800,22.090390869140624,-0.13931085553467273,-0.051178983095288275,-0.015230594618618488
1771957103045355800,22.110355712890627,-0.04936112001836299,-0.008048866420984268,0.0017405600570142268
1771957103065320700,22.13032080078125,0.04688099364042282,0.02697276259958744,0.03695478904023766
1771957103085285600,22.15028564453125,0.058386722517013545,-0.024421909072995185,0.04126140019297599
1771957103105250800,22.170250732421874,0.02233107427358627,-0.016668226206302643,0.06289031754657626
1771957103125215700,22.1902158203125,-0.0333925665140152,0.02217208431959152,0.08980345891341567
1771957103145180700,22.2101806640625,0.10619710596203803,0.04533727132976055,0.03076426383703947
1771957103165145900,22.230145751953124,0.032227029865980146,0.0065963295251131055,0.06257511411756277
1771957103185110800,22.25011083984375,-0.00801087249815464,0.0053308396339416505,0.052448564639687535
1771957103205075700,22.27007568359375,0.027003742259740827,0.05989361994862556,0.0007487725406885147
1771957103225040600,22.29004052734375,0.07342647073864936,0.00945171895623207,-0.0033536943420767783
1771957103245005800,22.310005859375,0.03664075465500354,-0.04045300641953945,-0.03841434019878506
1771957103264970800,22.329970703125,0.0018710545688867567,-0.03499883266687393,-0.0317487448297441
1771957103284935700,22.349935791015625,0.06212649356722831,-0.0486854127138853,0.11129019131734967
1771957103304900600,22.369900634765624,0.1441010124206543,-0.023213702327013013,0.14516191965043543
1771957103324865800,22.38986572265625,0.07533201209902762,-0.020851649370789527,0.09156155462712048
1771957103344830700,22.409830810546875,-0.008984101444482803,-0.04259761723279953,0.01378288002833724
1771957103364795600,22.429795654296875,-0.012896890974044799,-0.06873977422714234,-0.03858312089443207
1771957103384760800,22.4497607421875,-0.021009470281004906,-0.06482698469758033,-0.019705694206058978
1771957103404725800,22.469725830078126,-0.09357903192937374,-0.02845511011183262,-0.019115034836530684
1771957103424690700,22.489690673828125,-0.09827800340056418,0.010308628046512603,-0.018847177680581806
1771957103444655600,22.509655517578125,-0.13031097199916838,0.03042787148952484,0.019307780929654836
1771957103464621800,22.529621826171876,-0.06010580139458179,0.015337269863486288,-0.044382454822957516
1771957103484586800,22.549586669921876,0.000218026664853096,0.00018529343903064726,-0.006827800193428993
1771957103504551700,22.5695517578125,0.02397474982738495,-0.01132569613456726,0.008647124575078487
1771957103524516900,22.589516845703123,0.09323416401445865,-0.03688274671733379,0.006645137102901935
1771957103544481800,22.609481689453126,0.11353636280894279,-0.040868016961216926,0.042963966327160596
1771957103564446700,22.62944677734375,0.07268705054819584,-0.014860884523391724,-0.004043430171906948
1771957103584412000,22.649411865234374,0.031332711374759674,-0.03237199129462242,0.014423369888961314
1771957103604376800,22.669376953125,-0.018240005567669866,-0.020136194577813148,-0.028349457780271765
1771957103624341800,22.689341796875,-0.006954641443490982,-0.03756079210937023,0.055601767973601814
1771957103644306700,22.709306640625,-0.09052548957765102,-0.02778875515758991,0.07537409767508506
1771957103664272000,22.72927197265625,-0.16066227112114428,0.009852116450667381,-0.019709785859286785
1771957103684236800,22.74923681640625,-0.11850947504639625,-0.022542671197652814,-0.024191899709403514
1771957103704201700,22.76920166015625,0.004686696511507034,-0.021921908950805664,-0.0022923487208783627
1771957103724167000,22.7891669921875,0.09469429969489573,-0.047101942914724346,0.026057255189865826
1771957103744131800,22.8091318359375,0.15081307727992535,-0.031499884635210036,0.05321151183620095
1771957103764096800,22.8290966796875,0.08413958793282508,-0.015037994655966757,0.029902824702113865
1771957103784061700,22.849061767578124,0.005728314518928528,0.016868132692575453,-0.028897739312797783
1771957103804027000,22.86902685546875,0.04255319356918335,0.010123919129371642,-0.03998392760306597
1771957103823991800,22.88899169921875,0.009088146340847016,-0.03189151430130005,0.040068244885653255
1771957103843956700,22.908956787109375,-0.015116905111074446,0.024374562799930572,0.0888302299670875
1771957103863922400,22.92892236328125,-0.004227846828103066,0.03877192146480083,0.07032616663575172
1771957103883887400,22.948887451171874,-0.007892214554548263,0.01660509784221649,0.037503947355598206
1771957103903852300,22.968852294921874,-0.07643091325163841,-0.013119593814015387,-0.0042355917431414125
1771957103923817200,22.988817138671877,-0.01889876173734665,-0.006046294426918029,-0.055295624633878465
1771957103943782400,23.008782470703125,0.0041547815918922424,-0.05410276158750057,-0.04852320788949728
1771957103963747300,23.028747314453124,-0.005172434201836586,-0.02227671373784542,-0.007317921797931194
1771957103983712300,23.048712158203124,0.01918108581006527,-0.014855039304494857,0.08852920119389891
1771957104003677400,23.068677490234375,0.054691959652304646,-0.012839023306965828,0.11224822269454597
1771957104023642400,23.088642333984374,0.08775251773297786,-0.028572599011659622,0.06256620015874505
1771957104043607300,23.108607177734374,0.013415946412086486,-0.03973813614845276,-4.3839141726493836e-7
1771957104063572200,23.128572265625,-0.0839034410893917,-0.035415596774220466,-0.04485007233470678
1771957104083537400,23.148537353515625,-0.04754384146332741,-0.02307400159537792,-0.00011602759510278701
1771957104103502300,23.16850244140625,-0.01707914509475231,0.00369651643037796,0.0182429281771183
1771957104123467300,23.18846728515625,-0.053877720659971234,-0.010175941577553749,0.07143909631371498
1771957104143432200,23.20843212890625,-0.03126256874799728,-0.09126023359298706,0.13561477749571205
1771957104163397400,23.2283974609375,0.017743746483325957,-0.07912672820687293,0.06040215399265289
1771957104183362300,23.2483623046875,0.009053659549355506,0.026242694759368895,-0.029179917255043982
1771957104203327200,23.2683271484375,-0.05363339051008224,-0.013403671452403067,-0.0843773422114551
1771957104223292400,23.28829248046875,0.00018120178580284117,-0.05226853189766407,-0.08151873790994286
1771957104243257300,23.30825732421875,0.01582651468515396,-0.03742167589962482,-0.027111148156970737
1771957104263222300,23.32822216796875,0.017635025411844252,0.02918868508338928,0.04417348824739456
1771957104283187200,23.348187255859376,0.014420155018568038,0.058573769521713254,0.02970291821584105
1771957104303152400,23.36815234375,0.042561961397528644,0.0065092357635498045,0.025434739377349615
1771957104323117300,23.388117431640627,-0.05036649766862392,-0.015848141995072364,0.004885726214945316
1771957104343082200,23.408082275390626,-0.031126959669589994,-0.011542553755640983,0.06146116152629256
1771957104363047400,23.42804736328125,-0.0013946692287921906,0.01991641434729099,0.11104483825415372
1771957104383012400,23.448012451171873,-0.0769452925145626,-0.04229425037205219,0.045694121943414205
1771957104402977300,23.467977294921877,-0.07592880894839764,-0.03496434587538242,0.017271452796459197
1771957104422942200,23.487942138671876,-0.05912672722935676,-0.0013256956458091735,-0.01757964196279645
1771957104442907400,23.507907470703124,-0.0780827721118927,-0.027799861073493956,0.027749153799563643
1771957104462872300,23.527872314453123,-0.35273674859404563,0.0014396774142980575,-0.1737394870981574
1771957104482837200,23.547837158203127,0.8632774562686681,-0.031578795090317725,0.04748319731727242
1771957104502802400,23.567802490234374,0.4581605320960283,-0.07195289105474949,0.10548340473473071
1771957104522767400,23.587767333984374,0.07055354565083981,-0.15769289992153643,-0.15150807380676268
1771957104542732300,23.607732177734373,-0.38999242027699943,-0.3480582353889942,-0.2112076324880123
1771957104562697200,23.627697265625,0.2714911285370588,-0.02839256626963615,-0.02619520235583186
1771957104582661000,23.6476611328125,-0.08685352306663989,-0.017886369824409484,0.08224456796646118
1771957104602626300,23.667626220703124,-0.2378513092637062,-0.13221534431576729,-0.14486439800858497
1771957104622591200,23.68759130859375,-0.13253332422375677,-0.22470307387709618,-0.3222821352280676
1771957104642556200,23.70755615234375,0.0981289503186941,-0.09721709617078304,-0.12883140096589923
1771957104662521300,23.727521240234374,0.10765899520814418,0.05188917719125748,0.13528408423662186
1771957104682486300,23.747486328125,0.09020926323533057,0.16354045690596103,0.20653715645894408
1771957104702451200,23.767451171875,0.03231646171510219,0.24056407535374164,0.1769409134879708
1771957104722416000,23.787416015625,-0.06579203033745289,0.22043781764805315,0.14800561864376066
1771957104742381300,23.80738134765625,-0.0024970775127410886,0.17087153044641018,0.13814794923514126
1771957104762346200,23.82734619140625,0.01602642117142677,0.0689373426258564,0.1724528082884848
1771957104782311200,23.847311279296875,-0.11793313646316528,0.04238368222117424,0.07274652565047145
1771957104802276400,23.8672763671875,-0.1164157176375389,0.037138182783126826,0.057202481168508526
1771957104822241300,23.8872412109375,-0.14066519275307654,-0.0019061258822679519,0.02284311544895172
1771957104842206200,23.907206298828125,0.06314356165528297,-0.04189969809651375,-0.03815744282826781
1771957104862171000,23.9271708984375,0.14145254373848437,-0.0937988121598959,-0.043806993022561073
1771957104882136000,23.947135986328124,0.1306844814866781,-0.09524608835875988,-0.07517199923172593
1771957104902101000,23.96710107421875,0.041353754651546476,-0.08038929548859595,-0.10620134374573827
1771957104922066000,23.98706591796875,0.05691431187689304,-0.0593517681568861,-0.09110884242355823
1771957104942030800,24.00703076171875,0.0851584095865488,-0.09781915371716023,-0.06826134306043385
1771957104961996000,24.02699609375,0.06384323435723781,-0.09227671715915202,-0.013400748842954635
1771957104981961000,24.0469609375,-0.015907763227820396,-0.01616378381550312,0.026143179907649753
1771957105001926000,24.06692578125,-0.1370943485289812,0.01860416270494461,0.028831396078318357
1771957105021891000,24.08689111328125,-0.1325321551799774,0.005295768320560455,-0.009506664013862609
1771957105041856000,24.10685595703125,-0.010184124884009362,-0.013685411003232001,0.006988543713092803
