time,seconds_elapsed,z,y,x
1771956811380077600,0.08507763671875,0.030781507232785225,-0.006846431828662753,0.04488444039518945
1771956811400040700,0.105040771484375,-0.0224953249245882,-0.009702405781671404,-0.011817288176948205
1771956811420003300,0.12500341796875,0.046937692263722415,0.049105574354715645,-0.012590044381422921
1771956811439966500,0.144966552734375,0.05057692554891109,0.006268558875471353,-0.015004083253210409
1771956811459929300,0.164929443359375,-0.09986965650618075,0.024864099882543084,-0.01249916949388571
1771956811479892500,0.184892578125,-0.05251695370078086,-0.07865045246463269,0.07625394011638127
1771956811499855600,0.204855712890625,-0.048587213036417956,-0.06449453787282108,0.0401435020789504
1771956811519818500,0.224818603515625,-0.08308160331249237,0.024166838333383203,-0.01909146216469817
1771956811539781600,0.24478173828125,0.05195815077424049,-0.00040131080988794565,0.016715919539239257
1771956811559744500,0.26474462890625,0.009831073662638664,0.02099478416852653,-0.060260955423675475
1771956811579707000,0.284706787109375,0.059927522218227385,0.04716108922343701,0.006075063863676041
1771956811599670000,0.304669921875,-0.027318215036392212,-0.029398236180841922,-0.005039309341460466
1771956811619633000,0.3246328125,-0.08683715645372866,0.029615239932388064,-0.005638170283753425
1771956811639594800,0.3445947265625,0.023144728744029997,0.004910897188819945,0.0066551653065718705
1771956811659558000,0.364557861328125,0.01770925969183445,-0.013525763462111352,-0.007722164350422099
1771956811679520800,0.384520751953125,-0.06960486662387848,0.012206862883269786,-0.017281179606029762
1771956811699484000,0.40448388671875,-0.025749358284473417,-0.02018770556934178,0.0017025570010300725
1771956811719446800,0.42444677734375,-0.04066168073415756,-0.04363269590158015,0.014861861770926042
1771956811739410000,0.444409912109375,-0.03980243355631828,0.00667622636090964,0.013914744513388722
1771956811759373000,0.464373046875,-0.006223989081382751,-0.005427614539302885,-0.01687134756296873
1771956811779336000,0.4843359375,-0.0202864167034626,0.005077778188325464,-0.011541777437506243
1771956811799299000,0.504299072265625,-0.017016601252555847,0.009088402069173752,-0.009114632488973437
1771956811819261700,0.52426171875,0.004841594812273979,0.01807334376387298,-0.00493334648264572
1771956811839224800,0.544224853515625,-0.025273557466268536,0.017792773256823418,0.003991371191106737
1771956811859188000,0.56418798828125,-0.007702244940400123,-0.0062459817174822085,0.0198239868234843
1771956811879150800,0.58415087890625,-0.019770868396759032,0.03300974120888859,-0.004923574007302522
1771956811899114000,0.604114013671875,-0.010416180074214935,-0.0062530690453946585,0.012168092642305417
1771956811919076900,0.624076904296875,-0.017325813332200048,-0.01038954779561609,-0.007949223705101758
1771956811939040000,0.6440400390625,-0.04703706098496914,-0.014625943256355821,0.01578416424761526
1771956811959003000,0.6640029296875,-0.048078094470500946,-0.03571388560105115,0.025507631083624437
1771956811978966000,0.683966064453125,-0.018887655821442605,-0.011728797042742371,0.00550433303732425
1771956811998929000,0.703928955078125,-0.016520926690101623,-0.007129961477778852,0.02002623139731586
1771956812018891800,0.723891845703125,-0.01786298894882202,0.0007776698416098952,-0.010123508137417957
1771956812038855000,0.74385498046875,-0.023721651849150656,0.007715908139571547,0.000553633561078459
1771956812058817800,0.76381787109375,-0.01880465371310711,-0.008954254295490682,-0.020551899239234624
1771956812078781000,0.783781005859375,-0.0169967275083065,-0.0065272828768938775,-0.005026157598942518
1771956812098743800,0.803743896484375,-0.0005646481454372405,-0.010765066577121615,-0.006957490987703204
1771956812118707000,0.82370703125,0.001978022074699402,0.009507431198842823,0.0019028379466384648
1771956812138670000,0.843670166015625,-0.025893735191226005,0.014111490928195415,0.015828423514449966
1771956812158633000,0.863633056640625,-0.005412088176608086,0.014889526095986365,-0.005928303203592077
1771956812178596000,0.88359619140625,-0.0223299052298069,-0.013731953558698296,0.005585745976772159
1771956812198558700,0.903558837890625,-0.023069909942150114,-0.031895131030492484,0.010570822646655141
1771956812218521900,0.92352197265625,-0.025886136406660078,-0.025284480719082056,0.006959682944789529
1771956812238484700,0.943484619140625,-0.017639117065072058,-0.0032855244766920805,0.005401831644074991
1771956812258448000,0.96344775390625,-0.0077729720890522,-0.019475721375085412,-0.008756713296240195
1771956812278410000,0.983409912109375,-0.0039028526574373243,-0.005018851075321435,0.0049714956691022955
1771956812298372900,1.003372802734375,-0.004372223734855652,0.008802315136790275,-0.007847955287713556
1771956812318336000,1.0233359375,-0.006924830827116966,-0.0058890215059742325,-0.019862720531830563
1771956812338299000,1.043298828125,-0.011122867038846015,-0.01408350694272667,0.0027495727027766403
1771956812358261800,1.06326171875,-0.010846972706913947,-0.014232450426742434,-0.002283480427833274
1771956812378225000,1.083224853515625,-0.010094693034887314,-0.018763664115592837,0.01009497616267763
1771956812398187800,1.103187744140625,-0.009506664013862609,-0.0021693799283355472,0.004002678036410362
1771956812418151000,1.12315087890625,-0.028373861569166183,0.0049354105755686755,0.018265404870407655
1771956812438114000,1.143114013671875,-0.03271919729709625,-0.0008449994567781686,0.0076844992211554195
1771956812458077000,1.163076904296875,-0.027328736430406567,-0.007373232181742787,-0.004625769237661734
1771956812478040000,1.1830400390625,-0.008463876962661742,-0.009911080096289515,-0.002272301446693018
1771956812498003000,1.2030029296875,-0.0005208090037107468,0.007624284333363175,-0.015810805659368633
1771956812517965800,1.2229658203125,-0.014889526095986365,0.006613134529441594,0.006222573442431167
1771956812537928700,1.2429287109375,-0.002031213566660881,0.006002893676608801,-0.0004274681644514203
1771956812557891800,1.262891845703125,-0.025376433318853378,0.005410334610939025,0.0077849273883271956
1771956812577855000,1.28285498046875,-0.009512509232759475,0.0011263736814260481,-0.003792505884449929
1771956812597817900,1.30281787109375,-0.005310381367802619,0.003011895167082548,-0.017441840927302835
1771956812617781000,1.322781005859375,-0.025518472138047216,-0.023465229402668774,-0.008767207290790974
1771956812637743900,1.342743896484375,-0.00876373669207096,-0.003933832317590713,0.009495603763731196
1771956812657707000,1.36270703125,-0.019245383217930793,-0.000974909446761012,-0.0021882124929688868
1771956812677670000,1.382669921875,-0.024036709147691727,0.010972462250106035,0.007208570538787171
1771956812697632800,1.4026328125,-0.029289222848415373,0.0012388210799545048,0.008673902984149754
1771956812717596000,1.422595947265625,-0.04169219282567501,-0.003913702845014632,-0.021745794332074
1771956812737558800,1.442558837890625,-0.01566927829682827,-0.018300320920161903,-0.001635693176742643
1771956812757522000,1.46252197265625,-0.012069792500138283,-0.0014239683885127305,-0.007898644295334815
1771956812777484800,1.48248486328125,-0.011018237620592116,-0.0053598465327173465,-0.016962012387951836
1771956812797448000,1.502447998046875,-0.021503975799679755,0.000731492612324655,0.007135642299894243
1771956812817411000,1.5224111328125,-0.02150806745290756,0.0037467853128910064,-0.010380177179072051
1771956812837373000,1.542373046875,-0.012536825489997863,0.011802739061787724,0.0139610039410647
1771956812857335800,1.562335693359375,-0.013580197063088417,-0.015703545892611144,0.0005149272521957755
1771956812877299000,1.582298828125,-0.020167174237966535,-0.007346672968380152,0.0031059209929313507
1771956812897261800,1.60226171875,-0.025409166544675826,-0.009409560314938425,-0.004553142392868176
1771956812917225000,1.622224853515625,-0.00206043966114521,-0.0013746128214523195,-0.006205759304948151
1771956812937187800,1.642187744140625,-0.0004196867167949676,-0.004879369539394975,0.01775836866372265
1771956812957151000,1.66215087890625,-0.024516017097234725,0.011112382177449762,0.0005499437666498124
1771956812977113900,1.68211376953125,-0.015375848308205604,-0.00981700860466808,-0.010708906809939071
1771956812997077000,1.702076904296875,-0.042755438143014905,0.009264562353678047,-0.005588211928494275
1771956813017040100,1.7220400390625,-0.014781974068284034,-0.009622289750166237,0.021905807199375703
1771956813037002800,1.742002685546875,-0.006401099213957786,0.0025152707565575835,0.0027550160628743467
1771956813056966000,1.7619658203125,-0.006110007312893867,-0.005725318844243884,0.013480088556325062
1771956813076928800,1.7819287109375,-0.01657937887907028,0.0061040159635245795,0.0009049129504710436
1771956813096892000,1.801891845703125,-0.014038462224602699,0.020196546462923286,-0.00998609069441445
1771956813116854800,1.821854736328125,-0.018232406783103942,0.008966346592083573,0.0041712578026577825
1771956813136818000,1.84181787109375,-0.017184943556785584,0.01229377398174256,0.0043713195525575425
1771956813156781000,1.861781005859375,-0.009852700972557067,-0.010769158230349421,-0.0014411204527132212
1771956813176744000,1.881743896484375,-0.010294599521160125,-0.007404650233313441,0.000762344408314675
1771956813196707000,1.90170703125,-0.012841945916414261,-0.0039833340151235455,0.005910374821256846
1771956813216669700,1.921669677734375,-0.02257131277024746,0.007285078974254429,0.009175541496509686
1771956813236632800,1.9416328125,-0.0029798925936222074,-0.006637392187863588,0.008806370257399975
1771956813256596000,1.961595947265625,-0.00881342105269432,0.010202829584479331,-0.008858831096999347
1771956813276558800,1.981558837890625,-0.0020808979272842407,-0.008437244684062898,-0.01447005857490003
1771956813296522000,2.00152197265625,-0.0047714521855115885,0.004331380267813802,-0.005734789925487711
1771956813316484900,2.02148486328125,-0.020335516542196272,-0.0034599677281454203,0.012983089686464517
1771956813336448000,2.041447998046875,-0.011350246053934096,0.0004193579232320189,0.005221232646470889
1771956813356411000,2.061410888671875,-0.02452010875046253,0.006870397226139902,-0.014586561094038188
1771956813376374000,2.0813740234375,-0.0173234752446413,0.017554799782484767,0.0012492511424235999
1771956813396335900,2.1013359375,-0.013729250144958495,-0.01329122405387461,0.000769303872063756
1771956813416298800,2.121298828125,-0.01986731450855732,-0.01147752569541335,0.0020211122977547348
1771956813436262000,2.141261962890625,-0.016119944673776625,0.0031540801167488095,-0.0024834873788058755
1771956813456225000,2.16122509765625,-0.009974866047501564,0.0001638487922027707,-0.008915885913325473
1771956813476188000,2.18118798828125,-0.03302314867973327,0.0034235812405124305,-0.010543441449385136
1771956813496151000,2.201151123046875,-0.021654782447218895,-0.004682166466861963,-0.004880374186392873
1771956813516114000,2.221114013671875,-0.008485504272580146,-0.004878419691324234,-0.001556855786871165
1771956813536077000,2.2410771484375,-0.03227612970471382,-0.007763290945254265,-0.009973450408549979
1771956813556040000,2.2610400390625,-0.012678864309191703,-0.008650887434743345,0.014837147454777731
1771956813576002800,2.2810029296875,-0.022711598023772237,-0.0030913170788437125,-0.008997755510499701
1771956813595966000,2.300966064453125,-0.023300796088576315,0.0032568829040974375,0.0010478559519629925
1771956813615928800,2.3209287109375,-0.019115034836530684,0.009603767712786792,-0.010167840469488874
1771956813635891700,2.3408916015625,-0.017466683107614515,0.0019723960515111686,-0.0071874729518312955
1771956813655854600,2.3608544921875,-0.0023491934746503827,-0.006667421999946236,-0.026501446160254998
1771956813675817700,2.380817626953125,-0.007587094128131866,0.004470642608031631,0.008654650294408203
1771956813695780900,2.40078076171875,-0.017311200284957886,0.017180413512140513,-0.009833868407923727
1771956813715743700,2.42074365234375,-0.00788929194509983,-0.010201441344991326,-0.0023075097573921084
1771956813735707000,2.440706787109375,-0.027790508723258972,0.008754530472308397,0.005401393252657726
1771956813755669800,2.460669677734375,-0.018958967491984367,0.002459047057293355,0.000987613664707169
1771956813775633000,2.4806328125,-0.022395371681451795,0.004690751632116735,-0.010376715713506564
1771956813795595800,2.500595703125,-0.01999707836806774,-0.01177537613082677,-0.00039663463477045293
1771956813815558700,2.52055859375,-0.015506196689605713,-0.0030103242645040155,-0.00634694874077104
1771956813835521800,2.540521728515625,-0.007723872250318527,-0.012715323862060904,-0.022635948104830456
1771956813855484700,2.560484619140625,-0.0050385786890983575,0.0028600656062364575,0.00602145224660635
1771956813875447800,2.58044775390625,-0.017460253366827962,-0.0027146292535588142,-0.0009112970254849642
1771956813895410700,2.60041064453125,-0.006536708292365074,0.0019127748187631368,0.007354801475908607
1771956813915373800,2.620373779296875,-0.018516484421491623,-0.0010213424043729901,-0.0038950986092444505
1771956813935336700,2.640336669921875,-0.018815175107121468,-0.012157397718355058,0.00551577687994577
1771956813955298800,2.660298828125,-0.01358136610686779,-0.0010039894107729196,-0.007559758596634492
1771956813975261700,2.68026171875,-0.011937690553069114,-0.004931647715903818,0.006661869041994214
1771956813995224800,2.700224853515625,-0.025108137771487234,0.008957359568029642,-0.009673426282359286
1771956814015187700,2.720187744140625,-0.016436755537986753,0.004661744733341038,0.0009983907870482654
1771956814035150800,2.74015087890625,0.002564297530055046,-0.00031703005991876124,-0.012048320453846826
1771956814055113700,2.76011376953125,-0.02211538569629192,-0.016156367694027722,-0.007791932517848908
1771956814075076900,2.780076904296875,-0.028843817168474197,-0.02355444205608219,-0.001788545650895685
1771956814095039700,2.800039794921875,-0.02076514013111591,-0.015146204270794987,0.01671861381982453
1771956814115003000,2.8200029296875,-0.01747954258918762,0.0038087081005796788,0.00901132737812586
1771956814134966000,2.839966064453125,-0.015541852524876594,0.001619235232286155,0.008113483489258215
1771956814154928600,2.8599287109375,-0.009257073166966438,0.0188309206655249,0.012174860309809446
1771956814174891800,2.879891845703125,-0.03304652955532074,-0.015837547535821794,-0.0009674293932039291
1771956814194854700,2.899854736328125,-0.00012216507494449615,0.0026694384049624205,-0.002200195191707462
1771956814214817800,2.91981787109375,-0.011344400835037231,-0.02050616040136665,-0.00017953955167904494
1771956814234780700,2.93978076171875,-0.022715105155110358,-0.0069948638560250395,0.004204758213460445
1771956814254743800,2.959743896484375,-0.02466565470099449,-0.0050515112359076735,0.010610588401462883
1771956814274707000,2.97970703125,-0.02436930210292339,0.004445544699393213,0.001215348872821778
1771956814294669800,2.999669921875,-0.014489128601551056,0.01174074320886284,-0.012017450391547753
1771956814314633000,3.019633056640625,-0.027058687317371367,0.004731522033922374,0.003312056290591135
1771956814334595600,3.039595703125,-0.019568039301037787,-0.0033377295879647136,-0.013298576243268325
1771956814354558700,3.059558837890625,-0.009546411502361298,-0.01356368431970477,-0.00588717660875991
1771956814374521900,3.07952197265625,-0.014630582898855209,-0.0017192980732768774,-0.007323383424337953
1771956814394484700,3.099484619140625,-0.00909925225675106,-0.010715564879588782,0.004986145248962566
1771956814414447900,3.11944775390625,-0.027056933751702306,0.009537643674015998,0.012873930223565548
1771956814434410800,3.13941064453125,-0.03424129229784011,0.003139174808561802,-0.0069987728461623185
1771956814454374000,3.159373779296875,-0.004160042288899422,-0.0030551132543012497,-0.021948824357194825
1771956814474336800,3.179336669921875,-0.01942424691617489,-0.006578574672713875,-0.012336352748144418
1771956814494300000,3.1992998046875,-0.03154372377693653,0.004260762717016041,-0.01801852657040581
1771956814514262800,3.2192626953125,-0.020174773022532462,-0.006607910365052521,-0.012394211282068864
1771956814534224600,3.239224609375,-0.01598550463914871,0.02032294932156801,0.006090498894825577
1771956814554187800,3.259187744140625,-0.03020166151821613,-0.005417166210524738,0.0045291678622365
1771956814574151000,3.27915087890625,-0.02107844386398792,-0.0028866248195990917,-0.010741292975889518
1771956814594114300,3.2991142578125,-0.016600421667098998,-0.007242883800342679,-0.009135857940092681
1771956814614077400,3.319077392578125,-0.01794365296959877,-0.010302782827615738,-0.0011554810449015348
1771956814634040300,3.339040283203125,0.002704582783579826,-0.011593991681933402,0.007217055239342153
1771956814654003500,3.35900341796875,-0.013012626308202742,0.0010050488566979766,-0.013841770608723164
1771956814673966300,3.37896630859375,-0.016598083579540252,0.008036372265592217,0.005990719181625172
1771956814693929500,3.398929443359375,-0.021229835033416748,-0.0007245148822665214,-0.008875983161199837
1771956814713892400,3.418892333984375,-0.007459083834290504,-0.009231609932146966,-0.003601029299804941
1771956814733855500,3.43885546875,-0.017336334726214406,-0.0005593874484300613,-0.004682942784996703
1771956814753818600,3.458818603515625,-0.025713702449202538,-0.010802731706388295,-0.012603534050658345
1771956814773781200,3.47878125,-0.0001315174251794815,-0.006421411349624395,0.0019804788932669907
1771956814793744400,3.498744384765625,0.0019599018961191177,0.00042319384813308713,-0.005548089980660006
1771956814813707300,3.518707275390625,-0.023632220000028608,0.010185220862552522,-0.0051228959716856474
1771956814833670400,3.53867041015625,-0.02902092730104923,0.00214252845402807,-0.001939306632662192
1771956814853633300,3.55863330078125,-0.02812251715660095,-0.010428381968662142,-0.005283950018603354
1771956814873596400,3.578596435546875,0.0006143325060606002,-0.0032742724303156134,-0.00934739093207754
1771956814893559600,3.5985595703125,-0.009401450073719024,-0.00007850859630852937,0.0023759353511035443
1771956814913522400,3.6185224609375,-0.012988660910725593,-0.0014789865113794803,0.0020512151750735935
1771956814933485600,3.638485595703125,-0.014192776003479957,0.008022270675003529,0.01497573394156061
1771956814953448200,3.6584482421875,-0.026461305946111676,0.005684256181493401,-0.00943839368377812
1771956814973411300,3.678411376953125,-0.011948211947083473,0.021267902021482585,-0.0009782065155450254
1771956814993374500,3.69837451171875,-0.0016273089408874511,-0.0052500294826924795,-0.015014412850979715
1771956815013337300,3.71833740234375,-0.015244915404915809,0.00011463935561478137,0.01232900969190523
1771956815033300500,3.738300537109375,-0.0022270283997058867,-0.0031808219932019707,0.007717214180668816
1771956815053262600,3.7582626953125,-0.023620529562234878,0.004941657653264701,-0.011355451952014118
1771956815073225500,3.7782255859375,-0.03035246816575527,0.005201441100612283,-0.013032536585070193
1771956815093188600,3.798188720703125,-0.007899813339114188,0.0025301760647445915,-0.005591180203715339
1771956815113151200,3.818151123046875,-0.039021512311697,-0.007749664278700948,-0.012999273636285214
1771956815133114400,3.8381142578125,-0.022422844210267065,-0.013722089751809835,0.020339489464415238
1771956815153077200,3.8580771484375,-0.026167291435599326,-0.005745375251583754,0.009282244140841066
1771956815173040400,3.878040283203125,-0.017030629777908323,-0.007659172983653843,-0.012454955892823636
1771956815193003500,3.89800341796875,-0.009553425765037536,0.009804002992622554,0.002549209558777511
1771956815212966400,3.91796630859375,-0.03468786702156067,0.0066371364595368505,0.01856458874638192
1771956815232929500,3.937929443359375,-0.024210896670818327,0.0013613880136981605,-0.00592258584885858
1771956815252892400,3.957892333984375,-0.01194528933763504,-0.001984378750249743,0.00034042920181527733
1771956815272855600,3.97785546875,-0.02121756007373333,-0.0012122983992099762,-0.012773438124312086
1771956815292818400,3.997818359375,-0.015534253740310668,-0.011609189251065254,0.008078887099912389
1771956815312781300,4.01778125,-0.016282441759109496,-0.0063750879898667335,-0.005969831657223403
1771956815332744400,4.037744384765625,-0.014341244563460349,0.001687405097670853,0.011609563710400833
1771956815352707300,4.057707275390625,-0.024062428110837936,-0.00965410966053605,-0.00730550984092988
1771956815372670500,4.07767041015625,-0.02570084296762943,0.011030731775984168,0.008846985395578667
1771956815392633300,4.09763330078125,-0.02180617361664772,-0.010761376782692969,0.0026269509701058267
1771956815412596500,4.117596435546875,-0.0077402388632297515,-0.02431757191568613,0.0003554167083930224
1771956815432559600,4.1375595703125,-0.02150456032156944,0.00017064385917037726,0.010614360394282266
1771956815452522500,4.1575224609375,-0.006984452059864998,-0.004139291761815548,-0.012384511871961877
1771956815472485400,4.1774853515625,-0.02957856118381023,0.005588796450383961,0.006252530189277604
1771956815492448300,4.1974482421875,-0.005340191984176635,-0.003292063815332949,0.0020150204836856572
1771956815512411400,4.217411376953125,-0.021947043392062184,-0.008174830888211727,0.0032166604915633795
1771956815532374300,4.237374267578125,-0.02569382870495319,-0.003226743494160473,-0.006738030417589471
1771956815552337400,4.25733740234375,0.0009387421548366546,-0.012484729976579546,-0.008795300874114035
1771956815572300500,4.277300537109375,-0.017018354818224907,0.002019230867922306,0.01070542707806453
1771956815592262100,4.29726220703125,-0.014622399592399596,0.010379537858255208,-0.003440267513832077
1771956815612225300,4.317225341796875,-0.02598842773735523,-0.0006807488057762384,-0.010742334155505523
1771956815632188400,4.3371884765625,-0.01581248615980148,-0.004953969145566225,-0.001460473607154563
1771956815652151300,4.3571513671875,0.0003407762616872787,-0.007456161224842071,-0.003474224582361057
1771956815672114400,4.377114501953125,-0.007432780349254608,0.0003052665568888187,-0.005273373825661838
1771956815692077300,4.397077392578125,-0.016124036327004432,-0.0008972045680508017,-0.009275759601127356
1771956815712040200,4.417040283203125,-0.005502689069509506,0.019426183144934474,-0.003513615877833217
1771956815732003300,4.43700341796875,-0.021060908207297325,0.012415062273852527,-0.007706674520345404
1771956815751966200,4.45696630859375,-0.0017629180192947386,-0.003455949140153825,-0.014823593853460625
1771956815771929300,4.476929443359375,-0.01194528933763504,0.008646978444606065,-0.002104361001262441
1771956815791892200,4.496892333984375,-0.027805706292390823,-0.012193711140751838,-0.022554663029545917
1771956815811855400,4.51685546875,-0.02301905653774738,-0.003985599037446081,0.001744624310778454
1771956815831818200,4.536818359375,-0.015244330883026121,-0.006249817642383277,-0.00005831519165076315
1771956815851781400,4.556781494140625,-0.023021394625306127,0.007336407302692532,-0.0055700826167594635
1771956815871744500,4.57674462890625,-0.014797171637415885,-0.004854856152646243,-0.005442455915408209
1771956815891707100,4.59670703125,-0.020035656812787055,0.012129486798122525,-0.01781912240763195
1771956815911670300,4.616670166015625,-0.010907178461551665,-0.002327529632113874,0.007806216771528125
1771956815931633200,4.636633056640625,-0.005824176108837127,-0.008962802928127348,-0.0017794581621419637
1771956815951596300,4.65659619140625,-0.005074234524369239,-0.006228555658645928,0.012605031888000667
1771956815971559200,4.67655908203125,-0.005976736322045326,0.004301131260022521,-0.0026080544733908025
1771956815991522300,4.696522216796875,-0.01001636710166931,0.007194770342297852,0.001234217970073223
1771956816011485400,4.7164853515625,-0.01465571734011173,0.012457695839181541,-0.01194799275137484
1771956816031448300,4.7364482421875,-0.01391162097454071,-0.00021630963180214164,-0.014104988122172653
1771956816051411500,4.756411376953125,-0.006581131955981254,-0.016620405009202657,-0.014398956966912372
1771956816071374000,4.7763740234375,-0.022591186514496802,-0.013146554886177182,0.00766063428837806
1771956816091336200,4.796336181640625,-0.019299743753671644,-0.02455561845526099,0.0008021558288950473
1771956816111299300,4.81629931640625,-0.005530746120214462,0.007009257707558572,0.005567972858063876
1771956816131262200,4.83626220703125,-0.02094166574180126,0.008606792564690113,-0.00012970906058326363
1771956816151225300,4.856225341796875,-0.023631050956249237,0.007654606406390666,-0.0227629811511375
1771956816171188500,4.8761884765625,-0.009415478599071502,-0.0030395503589883445,0.009780759114352985
1771956816191151400,4.8961513671875,-0.005517886638641357,-0.007557539240084588,-0.008985781944915651
1771956816211114200,4.9161142578125,-0.010000585010647774,-0.00700242610797286,0.010193267171690239
1771956816231077000,4.9360771484375,-0.018376783689856527,-0.018677812463045118,-0.0005686941328924149
1771956816251040300,4.956040283203125,-0.027951252242922782,0.004705656940303743,-0.0024270079512149095
1771956816271003100,4.976003173828125,-0.027194296395778656,0.011409721156209706,0.015046652886457741
1771956816290966300,4.99596630859375,-0.040655835515260696,0.004732654545083642,-0.028285123839788137
1771956816310929400,5.015929443359375,-0.012529811227321623,-0.011140439228154718,-0.016817946008453145
1771956816330892300,5.035892333984375,-0.031981530672311784,-0.013244316172227263,0.007061791612394154
1771956816350855400,5.05585546875,-0.0047451487004756925,0.007245842942409217,0.008560861930577084
1771956816370818300,5.075818359375,-0.016560089656710623,0.009154562640562653,0.00464390768255107
1771956816390781200,5.09578125,-0.017011340555548666,0.0059392538558691735,-0.004664932204270735
1771956816410744000,5.115744140625,-0.02045358996391296,0.005953574642166495,0.005516617130162194
1771956816430707200,5.135707275390625,-0.007135843229293823,-0.002123166166432202,-0.023821641624905167
1771956816450670300,5.15567041015625,-0.0212058696359396,-0.0038629225058481095,-0.02510930681526661
1771956816470633200,5.17563330078125,-0.012828501912951469,-0.005214410180039704,-0.002616064249910414
1771956816490596400,5.195596435546875,-0.008040683114528656,-0.007772204904071986,0.011411246393015608
1771956816510559200,5.215559326171875,-0.015227964270114898,0.005639467191696166,0.002992423281632364
1771956816530522400,5.2355224609375,-0.009102174866199493,0.007346636435762047,-0.009708333198959007
1771956816550485200,5.2554853515625,-0.022421090644598005,0.012840411546453833,-0.018602975394856183
1771956816570448400,5.275448486328125,-0.006560089167952537,0.0033322862278670072,-0.010517731619393452
1771956816590409500,5.295409423828125,-0.01658639314174652,-0.005659633196890354,-0.0007354564013890922
1771956816610372600,5.31537255859375,-0.011643676042556762,-0.0028476445160806178,0.000627575580123812
1771956816630335500,5.33533544921875,-0.011491115829348563,0.002434058746509254,0.006686784287542104
1771956816650298600,5.355298583984375,-0.013881810358166694,-0.001101494968496263,0.0005374770107213408
1771956816670261500,5.375261474609375,-0.02135959889292717,0.02524151836019009,-0.005376852466445416
1771956816690224600,5.395224609375,-0.022405308553576468,-0.0024466259671375155,-0.0016314645261969417
1771956816710187500,5.4151875,-0.021803251007199285,0.002886990145780146,-0.012671822647051885
1771956816730150400,5.435150390625,-0.020761632999777794,-0.0026377646250650287,0.002733169557247311
1771956816750113500,5.455113525390625,-0.013436989200115204,0.012866568901017308,0.00330813816729933
1771956816770076400,5.475076416015625,-0.0237590612500906,-0.0022580811250954864,-0.013843633772246539
1771956816790039600,5.49503955078125,-0.006699789899587631,0.01313311088271439,0.0008315645864699036
1771956816810002700,5.515002685546875,-0.021364275068044662,0.0037164267072454095,-0.003677181542245671
1771956816829965600,5.534965576171875,-0.020757541346549988,0.007529993646033108,-0.007757737987302243
1771956816849928700,5.5549287109375,-0.019113281270861624,-0.016941380591876803,-0.003007812647009268
1771956816869891600,5.5748916015625,-0.015673369950056075,0.0020151392146945,-0.000029609686974436044
1771956816889854500,5.5948544921875,-0.0065413844674825665,-0.01787899023555219,-0.004544940820103511
1771956816909817300,5.6148173828125,-0.014169395127892493,0.0027205840703099964,-0.005440885012829676
1771956816929780500,5.634780517578125,-0.016867548170685767,0.006179200091585516,0.005212912342697382
1771956816949743600,5.65474365234375,-0.010730068328976631,-0.002365961946360767,-0.00614603760750033
1771956816969706500,5.67470654296875,-0.015822423031926155,-0.015079970634169876,-0.014290025832876562
1771956816989669600,5.694669677734375,-0.01507189692556858,-0.015458265894651413,0.00323003142978996
1771956817009632500,5.714632568359375,-0.01237140579521656,-0.005706833339482546,0.02232800553366542
1771956817029595600,5.734595703125,-0.02283785475194454,-0.0007240034256130456,-0.007966512766620144
1771956817049558500,5.75455859375,-0.015052607703208922,-0.008385222235880792,-0.005572448103781789
1771956817069521400,5.774521484375,-0.023127777609229086,0.0005124795667827129,-0.010986280712904408
1771956817089483500,5.7944833984375,-0.03300678206682205,0.0030148543091490865,0.013933211751841007
1771956817109446400,5.8144462890625,-0.016543723043799398,-0.008269048510305584,-0.01444822120242752
1771956817129409500,5.834409423828125,-0.010115735822916031,-0.004279394352249801,0.005410654271347448
1771956817149372700,5.85437255859375,-0.007272036829590797,-0.014532748547568917,-0.015811454113340003
1771956817169335600,5.87433544921875,-0.010710194584727287,0.005401311054266989,-0.0015298033831641078
1771956817189298700,5.894298583984375,-0.004569792133569717,0.000698284462466836,0.00224953249245882
1771956817209261300,5.91426123046875,-0.019520693027973175,-0.0018830007350072264,-0.0005446465370245278
1771956817229224400,5.934224365234375,-0.028511808735132215,-0.009304967429302632,-0.009969623616803437
1771956817249187600,5.9541875,0.007255085694789886,-0.02049125509317964,0.005510945441201329
1771956817269150500,5.974150390625,-0.011297639083862304,-0.013937559133395552,-0.001507682882901281
1771956817289113600,5.994113525390625,-0.027457915768027304,0.003908259484916925,-0.007623909874027594
1771956817309076500,6.014076416015625,-0.010101122775673866,0.024661672645621,0.0030790969180874523
1771956817329039600,6.03403955078125,-0.018481413108110425,0.005083915668167174,0.00993312753131613
1771956817349002500,6.05400244140625,-0.00530512067079544,-0.0063636898130178445,-0.004741879031155258
1771956817368965600,6.073965576171875,-0.00769932233095169,-0.008505852940864861,0.0025698048222344365
1771956817388928500,6.093928466796875,-0.01607961266338825,-0.010441022254526615,-0.007458809839654713
1771956817408891400,6.113891357421875,-0.020867431461811064,0.000025317104347050188,0.004640546681685373
1771956817428854500,6.1338544921875,-0.017571312525868413,-0.0016131342850625515,-0.01354407543693669
1771956817448817400,6.1538173828125,-0.02894552397727966,0.008075973623618483,-0.005917873141122982
1771956817468780500,6.173780517578125,-0.011894435933232307,-0.013266053079999982,-0.003643306672107428
1771956817488743400,6.193743408203125,-0.03688450028300285,0.004285129973292351,0.017373460999364033
1771956817508706600,6.21370654296875,-0.02505260819196701,-0.017940328501351178,-0.011601480868645011
1771956817528669700,6.233669677734375,-0.006641337710618972,-0.011454948537424205,-0.002655446412228048
1771956817548631600,6.253631591796875,-0.01591886914372444,-0.004119162289239466,0.010632718034880235
1771956817568594400,6.273594482421875,-0.02430091304183006,0.00690473788715899,-0.01563602448119782
1771956817588557800,6.293557861328125,-0.028792963764071464,-0.007066723515838385,0.0019946352827828378
1771956817608520700,6.313520751953125,-0.012180851659178734,-0.006450345183163881,-0.003204376398725435
1771956817628483800,6.33348388671875,-0.019512509721517562,0.0010932020641863346,-0.011377380656031891
1771956817648446700,6.35344677734375,-0.01442658475935459,-0.012646313746459782,0.0009530264085158705
1771956817668409900,6.373409912109375,-0.014720599269866942,0.010775039981864392,-0.024983296682266516
1771956817688372700,6.393372802734375,-0.014271686458587646,-0.0016187968408688902,0.003819010298885405
1771956817708335900,6.4133359375,-0.02639233236312866,0.009632007426582276,-0.018413005780708043
1771956817728298800,6.433298828125,-0.024299159476161,0.01028214189838618,-0.009620033860998228
1771956817748261600,6.45326171875,-0.013971826729178427,-0.0010102730210870504,-0.0025835136871784924
1771956817768224800,6.473224853515625,-0.0024509002834558484,-0.011576200296916066,-0.010429843273386358
1771956817788187600,6.493187744140625,-0.019213819035887716,-0.009809592483192681,-0.02141036096578464
1771956817808150800,6.51315087890625,-0.01621522174179554,0.0006347907721996307,-0.014479529656143858
1771956817828114000,6.533114013671875,-0.026689269483089445,0.009747633162885903,0.007041826536599546
1771956817848076800,6.553076904296875,-0.02683423091173172,0.012762998928688466,-0.0028499826036393642
1771956817868040000,6.5730400390625,-0.024440613773465156,0.007069134668633342,-0.01444496979941614
1771956817888002800,6.5930029296875,-0.023689503145217894,-0.0008442688044160604,-0.0020358897417783735
1771956817907966000,6.612966064453125,-0.02698503755927086,-0.005394552519917488,-0.002463156976830214
1771956817927928600,6.632928466796875,-0.0018535189121961593,0.0013757453326135873,0.00362161543010734
1771956817947891700,6.6528916015625,-0.016221066960692403,0.0008748466057702898,-0.009604836291866377
1771956817967853800,6.672853759765625,-0.02400046879053116,-0.004725128825753927,-0.00866159149184823
1771956817987816700,6.692816650390625,-0.02324702007472515,0.0038654067238792773,-0.013630018421029672
1771956818007779800,6.71277978515625,-0.025492753174901007,-0.0046368660204112525,0.021821562982024624
1771956818027743000,6.732742919921875,-0.013220131579041481,0.003624072248674929,-0.0026926822832319883
1771956818047705900,6.752705810546875,-0.0042418753534555435,0.005383994593285024,-0.007112279690615833
1771956818067668700,6.772668701171875,-0.024589666855335233,-0.015843611950427293,-0.006519592760782689
1771956818087631600,6.792631591796875,-0.0172539171397686,-0.0153413980493322,0.014574742792081086
1771956818107594800,6.8125947265625,-0.010958616387844086,0.006348638374358415,0.00033727826350368555
1771956818127557600,6.8325576171875,-0.0289133752733469,0.011399857349321245,0.004805034794704988
1771956818147520800,6.852520751953125,-0.023970073652267453,0.007198387071490287,-0.01419968066830188
1771956818167484000,6.87248388671875,-0.003028407910466194,-0.018352672161906957,-0.01734125749650411
1771956818187446800,6.89244677734375,-0.021429741519689557,-0.007076587322726846,-0.018008078241627663
1771956818207410000,6.912409912109375,-0.022777064475417136,0.011108619317784904,-0.010143701542075723
1771956818227372800,6.932372802734375,-0.0055716626524925225,0.001461925778724253,-0.01358494630344212
1771956818247335700,6.952335693359375,-0.014554595053195953,0.011806684584543108,-0.006035480771958828
1771956818267298800,6.972298828125,-0.01170388179719448,0.013995098006911575,-0.02357504645269364
1771956818287261700,6.99226171875,-0.022781740650534628,0.009159567609243094,-0.01001960023837164
1771956818307224800,7.012224853515625,-0.007373743638396262,-0.01334028735999018,-0.015757102710753677
1771956818327187700,7.032187744140625,-0.024134324303269384,-0.0034462314637377857,0.0007774049801286309
1771956818347150800,7.05215087890625,-0.0190577516913414,0.003519515895657241,0.016474840792361646
1771956818367113700,7.07211376953125,-0.011424480333924293,0.0013658084604889153,-0.0070023073769640174
1771956818387076900,7.092076904296875,-0.004234276568889618,-0.004080218518339097,-0.014221052249893545
1771956818407038700,7.112038818359375,-0.02862403693795204,0.013553053327836096,-0.0033311811161693184
1771956818427001600,7.132001708984375,-0.029670915642380714,-0.0030395503589883445,-0.008851488040760159
1771956818446964700,7.15196484375,-0.020246084693074224,-0.0036879312651231884,0.0003302548676729202
1771956818466927900,7.171927978515625,-0.022044658547639845,-0.00039535599313676354,-0.010022312785265967
1771956818486890800,7.191890869140625,-0.028331775993108748,-0.0018215163387358187,-0.016738213569438085
1771956818506854000,7.21185400390625,-0.012767127114534378,0.010407119984924792,-0.014318685671780258
1771956818526816800,7.231816650390625,-0.012165069568157195,-0.016180698417685924,-0.014914916265569626
1771956818546780000,7.25177978515625,-0.017702829951047896,-0.0017833762854337692,-0.00861483887382783
1771956818566742800,7.27174267578125,0.00414484471976757,0.0035057065660133954,-0.010926120624039321
1771956818586706200,7.2917060546875,-0.00933013840317726,-0.005727145475149155,-0.004541406289301812
1771956818606669300,7.31166943359375,-0.0012520458877086638,0.003897409297339618,-0.005390186872053891
1771956818626632200,7.331632080078125,-0.025939912420511243,0.013656952093727887,-0.009428475077962501
1771956818646595300,7.35159521484375,-0.02368307340443134,0.006256576176732778,0.013804580403491853
1771956818666558200,7.37155810546875,-0.02113338892161846,-0.005824833695963025,-0.0037103257600218055
1771956818686521000,7.39152099609375,-0.018285598275065422,0.005862316162139177,-0.005548720168322324
1771956818706484000,7.41148388671875,-0.019033201771974564,-0.0077362568078562614,-0.011318563140882178
1771956818726447000,7.431447021484375,-0.01903846246898174,0.017698372971639037,0.0060620491184759885
1771956818746410200,7.45141015625,-0.019037877947092056,-0.012286577055975793,-0.021194827652117235
1771956818766373000,7.471373046875,-0.015001169776916503,0.010302673229761422,-0.002022655800869688
1771956818786336300,7.491336181640625,-0.02936462617218494,0.011768654129095375,-0.008391907704994083
1771956818806298400,7.51129833984375,-0.012301263168454169,0.0005395867694169283,0.0026217176725622264
1771956818826261000,7.531260986328125,-0.02486439214348793,-0.003213664816878736,0.005234987177187576
1771956818846224100,7.55122412109375,-0.03159165457189083,-0.01204115092754364,-0.010605501234391704
1771956818866187000,7.57118701171875,-0.0064496145308017725,0.009381722459942102,-0.010649267310881987
1771956818886150100,7.591150146484375,-0.010941080731153487,-0.0006397226756438613,0.0033180293736513704
1771956818906113000,7.611113037109375,-0.007478957578539848,-0.0038271570727229118,-0.009537068285280838
1771956818926076200,7.631076171875,-0.020639467924833295,0.006017762452177703,-0.004272909812536091
1771956818946039300,7.651039306640625,-0.0195849904358387,0.0020215689554810524,-0.016823407634859903
1771956818966002200,7.671002197265625,-0.023322423398494718,-0.003348798971250653,-0.01630606922986917
1771956818985965300,7.69096533203125,-0.004625321713089943,-0.01112600884400308,-0.009812021902296691
1771956819005928000,7.710927978515625,-0.00971533832848072,-0.006092836982384324,0.01151724578444846
1771956819025891000,7.73089111328125,-0.014201543831825255,-0.007833470104634761,-0.004009436570759862
1771956819045854200,7.750854248046875,-0.031111177578568457,-0.006910911899618804,-0.0037534616488497704
1771956819065817000,7.770817138671875,-0.01180500408411026,0.005272971966862678,-0.018739287726162
1771956819085780200,7.7907802734375,-0.013451602247357367,-0.008848127039894462,-0.010723611188726499
1771956819105743000,7.8107431640625,-0.02197743853032589,-0.01581266882289201,-0.01719932827516459
1771956819125706200,7.830706298828125,-0.01614332554936409,-0.0013112287290394306,-0.018663172016339376
1771956819145669000,7.850669189453125,-0.007169745498895644,-0.0020928806260228157,0.004116568473353982
1771956819165632300,7.87063232421875,-0.005229132825136184,0.018165040635317563,-0.007434743977477774
1771956819185595400,7.890595458984375,-0.021089549779891966,0.00019979688841849564,-0.0031782190441619605
1771956819205557000,7.910556884765625,-0.026318682605028152,-0.0013083791848272084,-0.022269818206178023
1771956819225520000,7.93052001953125,-0.021827216404676435,-0.013034326683357357,-0.0013504099619574845
1771956819245483300,7.950483154296875,-0.022421090644598005,-0.020875724366120993,-0.014741870386758818
1771956819265446100,7.970446044921875,-0.01014671548306942,-0.002265131920389831,-0.0013564104444812983
1771956819285409300,7.9904091796875,-0.007599953609704971,-0.00941525940336287,0.013848081618500872
1771956819305372200,8.0103720703125,-0.016729601004719732,0.01568400094192475,-0.0011250950397923589
1771956819325335300,8.030335205078124,-0.029456396108865735,0.002137486952729523,-0.004720754044735804
1771956819345298200,8.050298095703125,-0.0025222119539976117,-0.0146919576972723,-0.01985882067484781
1771956819365261000,8.070260986328124,-0.018833879807591436,-0.016299173698201774,-0.02093277918244712
1771956819385224200,8.09022412109375,-0.008806406790018081,0.00236713099014014,-0.006788445430574938
1771956819405187000,8.11018701171875,-0.009707739543914795,-0.0034941257260739803,-0.0002473166914191097
1771956819425150200,8.130150146484375,-0.009556932896375655,-0.0029340076252818105,-0.0011213047806639224
1771956819445113000,8.150113037109374,-0.032311201018095016,0.015224858997575938,0.0041438309396151455
1771956819465076200,8.170076171875,-0.008525251761078835,-0.006597754297219216,-0.0107755971042905
1771956819485039400,8.190039306640625,-0.02857435257732868,0.00006002309154719114,-0.010007261346606537
1771956819505002200,8.210002197265625,-0.0016395839005708694,-0.008150646295025944,-0.014662265811907127
1771956819524965000,8.229965087890625,-0.024389175847172737,-0.008666340732201933,0.0013253485859371721
1771956819544928000,8.249927978515625,-0.01511632058918476,-0.004823072774894535,0.0069842785299289965
1771956819564891100,8.26989111328125,-0.01751402938067913,-0.0006546279838308692,-0.016873612585291266
1771956819584853500,8.289853515625,-0.020658172625303266,0.0016943828277289866,0.004061139358533546
1771956819604816400,8.30981640625,-0.03412321887612343,0.010053995698317884,-0.01317132400125265
1771956819624779300,8.329779296875,-0.006591068828105926,-0.010151866582222282,-0.010806047041481361
1771956819644742100,8.3497421875,-0.012433365115523337,-0.0072808046579360955,-0.014668887348938732
1771956819664705300,8.369705322265625,-0.009444120171666145,0.0023292466651648283,0.012189893482159823
1771956819684668400,8.38966845703125,-0.020814824491739273,0.01040061717890203,0.005927152426121756
1771956819704631300,8.40963134765625,-0.024998832178115844,0.0016114903172478078,-0.029285606119222936
1771956819724594400,8.429594482421875,-0.03396948961913585,0.00008066402077674865,-0.026231049987347797
1771956819744557300,8.449557373046876,-0.023041268369555473,-0.013499971433728932,-0.0007007595473434775
1771956819764520400,8.4695205078125,-0.012716273710131645,-0.004944726393185555,-0.017095356444036588
1771956819784483300,8.4894833984375,-0.00926701003909111,0.002396174421533942,0.008109547099657357
1771956819804446200,8.5094462890625,-0.02153553998172283,0.0012981865843757986,-0.02510482243639417
1771956819824409300,8.529409423828126,-0.022130583265423772,-0.006590118980035186,0.0006134009242989122
1771956819844372200,8.549372314453125,-0.017643208718299865,0.011276377100124954,0.003764065241254866
1771956819864335400,8.56933544921875,-0.031111762100458143,0.009990319344960152,-0.016998672870220617
1771956819884298200,8.58929833984375,-0.021986790880560873,0.00033266602046787736,-0.010656838695984333
1771956819904261400,8.609261474609376,-0.009269348126649856,-0.013806955023668705,-0.01269737721341662
1771956819924224300,8.629224365234375,-0.0037350948750972746,-0.002223886594548821,-0.005193641386646777
1771956819944187400,8.6491875,-0.014365794482827186,0.00324953984785825,-0.009354149466427042
1771956819964149200,8.669149169921875,-0.025738252368569373,0.00863587252870202,-0.002028866345947608
1771956819984112400,8.6891123046875,-0.012277882292866707,0.0031487098218873143,-0.0029307927548885343
1771956820004075300,8.7090751953125,-0.007496493235230445,-0.00039217765536159275,-0.017423638550331817
1771956820024038400,8.729038330078126,-0.020059622210264205,0.0051096346313133836,-0.013080302983243017
1771956820044001300,8.749001220703125,-0.00838379746377468,0.002011412887647748,-0.011916930892830713
1771956820063964400,8.76896435546875,-0.022903321203589438,-0.013049962643906473,0.001648242131061852
1771956820083927300,8.78892724609375,-0.010638298392295837,-0.0028312048379331824,0.007358034612610935
1771956820103890400,8.808890380859374,-0.01453121417760849,-0.005928842059709131,-0.004071067097503692
1771956820123853300,8.828853271484375,-0.026197102051973342,-0.001472227977029979,-0.013925156309548764
1771956820143816200,8.848816162109374,-0.016474164938926696,-0.004029182450845837,-0.003125676006171852
1771956820163779300,8.868779296875,-0.020516133806109428,-0.0054339712148532265,-0.004146296891337261
1771956820183742200,8.8887421875,-0.00689852734208107,-0.02198642555437982,-0.004523313510185107
1771956820203705300,8.908705322265625,-0.010936989077925681,-0.002619754044339061,0.0042583515642210835
1771956820223668200,8.928668212890624,-0.02126490634679794,0.006470693851448595,0.0027147114519495514
1771956820243631400,8.94863134765625,-0.017825579547882078,0.005875979361310601,-0.0027691815855447202
1771956820263594500,8.968594482421874,-0.016926000359654424,-0.002827515043504536,-0.03190661140573211
1771956820283557400,8.988557373046875,-0.022758944296836853,0.011370083265565335,-0.007726420400431379
1771956820303520500,9.0085205078125,-0.0046533787637948985,-0.00147540631480515,-0.012492264829063788
1771956820323483100,9.028483154296875,-0.02245966908931732,0.0022544278632849455,-0.00235005199117586
1771956820343445200,9.0484453125,-0.00046352585852146145,-0.010659560376033186,0.0018691366064362226
1771956820363408400,9.068408447265625,-0.00868833336830139,0.004167677606083452,-0.0017822437742725013
1771956820383371300,9.088371337890624,-0.016017653343081473,-0.011378814561292529,-0.014178829676518215
1771956820403334400,9.10833447265625,-0.023794132563471793,-0.009533259759843348,-0.002648313418542966
1771956820423297300,9.12829736328125,-0.020045593684911725,-0.0011589607767760752,-0.01646884944299236
1771956820443260400,9.148260498046875,-0.022140520137548445,-0.009838453251495956,0.00029721111459657547
1771956820463223300,9.168223388671874,-0.028275661891698837,-0.0009043649611994623,0.0010465316445566713
1771956820483186200,9.188186279296875,-0.01225333237349987,0.00800784029085189,0.009722416523238643
1771956820503149300,9.2081494140625,-0.027664836516976356,-0.008448569795675575,-0.003423060650704428
1771956820523112200,9.2281123046875,-0.008212532550096512,-0.003191051126271486,-0.011370676920609548
1771956820543075300,9.248075439453125,-0.013149404430389403,-0.006345058177784085,-0.01578936101254076
1771956820563038500,9.26803857421875,-0.012400631889700888,0.00043265579622238875,-0.0071443279298488045
1771956820583001300,9.28800146484375,-0.008514730367064476,-0.006174779644794762,-0.021324920305190606
1771956820602964700,9.30796484375,-0.008521744629740714,0.005679032017104327,-0.013904935505427419
1771956820622927600,9.327927734375,-0.013157587736845016,0.003704590138979256,-0.0004615804966073483
1771956820642890800,9.347890869140626,-0.008213117071986197,0.0014372297288849948,-0.005155830126907676
1771956820662853600,9.367853515625,-0.011949380990862846,-0.008997289719618856,-0.005401986907701939
1771956820682815500,9.3878154296875,-0.030053777480125426,0.001992963915504515,-0.015296654725307599
1771956820702778600,9.407778564453125,-0.021076105776429176,-0.013200878889299928,0.0009703337363433092
1771956820722741500,9.427741455078126,-0.019876666858792302,-0.004304967184923589,-0.01151015845653601
1771956820742704600,9.44770458984375,-0.021226912423968312,-0.01142258063778281,-0.0069191956707742065
1771956820762667800,9.467667724609376,-0.023917466682195663,0.011063501534424721,-0.0005922668047249317
1771956820782630700,9.487630615234375,-0.023461539608240125,0.0024905747067183255,-0.018138170894701034
1771956820802593800,9.50759375,-0.021070845079421995,0.004994228090718388,-0.0072027892519719895
1771956820822556700,9.527556640625,-0.015541268002986906,0.00725369745530188,-0.011303995759412646
1771956820842519800,9.547519775390626,-0.019135493102669716,-0.017870770396478473,-0.015861531199608
1771956820862482400,9.567482421875,-0.012855389919877051,-0.003816781809180975,-0.0134879339360632
1771956820882445600,9.587445556640626,-0.01300093587040901,-0.004116203147172927,-0.0026326500585302707
1771956820902408700,9.60740869140625,-0.03394435517787933,0.015614917761087416,-0.009625915612513199
1771956820922371600,9.62737158203125,-0.016139233896136283,0.006044833122193813,-0.010095314089395105
1771956820942334700,9.647334716796875,-0.023328268617391585,0.0005254851788282394,-0.0021105715463403613
1771956820962297600,9.667297607421874,-0.017501754420995712,0.006764927557669579,-0.018193627408985048
1771956820982260700,9.6872607421875,-0.002841360905766487,-0.005361125174351037,0.007892881274828687
1771956821002223600,9.7072236328125,-0.024236615633964537,-0.012796901198290288,-0.017963225319748744
1771956821022185500,9.727185546875,-0.01630757620036602,0.008725596638768911,0.00578645618064329
1771956821042148600,9.747148681640626,-0.006282441270351409,0.005157236632704735,-0.015308527826191857
1771956821062111700,9.76711181640625,-0.013166355565190314,-0.004346249043382704,-0.012664187329867854
1771956821082074600,9.78707470703125,-0.011379472148418427,-0.003022891485132277,0.0032665914473589508
1771956821102037800,9.807037841796875,-0.020961539486050604,-0.005526252608187497,-0.020623521437030286
1771956821122000600,9.827000732421874,-0.007048749467730522,0.008306275248154997,-0.0008833769720979034
1771956821141963800,9.8469638671875,-0.02202127767205238,-0.00637209231518209,0.0024662165835965424
1771956821161926700,9.8669267578125,-0.023663784182071684,0.01242116322107613,-0.015199669757392257
1771956821181889800,9.886889892578125,-0.021426818910241126,0.0009446239063516258,-0.006712649381160736
1771956821201852700,9.906852783203124,-0.011854688444733618,-0.01405365979373455,-0.021610550579847766
1771956821221815600,9.926815673828125,-0.03429156118035316,0.012217274679429829,0.00741524469256401
1771956821241778700,9.94677880859375,-0.008702946415543556,-0.005422390374913811,-0.01796881481031887
1771956821261741600,9.966741455078125,-0.028008535388112068,0.0032504896959289907,0.004381831813417375
1771956821281704700,9.98670458984375,-0.008255787169933318,0.0011298442801460622,-0.011573560815257952
1771956821301667600,10.00666748046875,-0.024254151290655133,-0.0033074440475553274,-0.0029793446043506265
1771956821321630700,10.026630615234374,-0.022457915523648262,-0.006875840586237609,-0.007759592017671093
1771956821341593900,10.04659375,-0.013781857115030287,-0.0008011603150516748,-0.006117852692632004
1771956821361555500,10.066555419921874,-0.01916881085038185,-0.019207754621282217,-0.005953328046994283
1771956821381518600,10.0865185546875,-0.006603343787789344,-0.0029968437284231186,-0.0014017108909320085
1771956821401481700,10.106481689453124,-0.022612813824415205,-0.0012874094620347022,0.00037085173954255876
1771956821421444600,10.126444580078125,-0.016926000359654424,-0.0012034575056284666,-0.012687842200091108
1771956821441407700,10.14640771484375,0.0010322656571865082,-0.006872552650608122,-0.004070172048360109
1771956821461370600,10.16637060546875,-0.014686112478375434,0.004988602067530155,-0.0066022112766280765
1771956821481333800,10.186333740234375,-0.011547229930758476,-0.005621456610970198,-0.004084885560302063
1771956821501296600,10.206296630859375,-0.01574409709870815,-0.004453180016577243,-0.01598691114494577
1771956821521259500,10.226259521484375,0.013282675421237945,-0.003043203620798886,0.0011376896598841995
1771956821541222700,10.24622265625,-0.022025953847169873,0.0010064005635678768,0.014705273836571723
1771956821561185500,10.266185546875,-0.02231938383579254,-0.006556143645197153,-0.007275151235284283
1771956821581148700,10.286148681640626,-0.025164251872897146,0.001411401167884469,-0.0289240153983701
1771956821601110800,10.30611083984375,-0.028002105647325515,0.007873436788842081,-0.016628168190550057
1771956821621073700,10.32607373046875,-0.016031097346544263,-0.008451492405124009,-0.018639882472297177
1771956821641036800,10.346036865234375,-0.012145195823907851,0.0010460019215941428,0.008937787217879667
1771956821660999700,10.365999755859375,-0.0010685060143470764,-0.0007233823711052537,-0.011816813252912834
1771956821680961800,10.3859619140625,-0.0013724573969841002,0.02247296696230769,-0.014238149515166878
1771956821700925000,10.405925048828125,-0.03114800245761871,0.01225388036277145,-0.008918050470948218
1771956821720887800,10.4258876953125,-0.019635843840241432,0.009808277308940887,-0.011040449452400207
1771956821740850700,10.4458505859375,-0.014095160847902298,-0.004782302373088896,-0.024981643581297248
1771956821760813800,10.465813720703125,-0.018432313269376752,-0.013175159926153718,-0.008645827667135744
1771956821780776700,10.485776611328125,-0.015287000980973242,-0.01087912141084671,-0.0032403427612502124
1771956821800739800,10.50573974609375,-0.01633680229485035,-0.004273804861679673,-0.016697242238232865
1771956821820702700,10.52570263671875,-0.013946692287921905,-0.005233005282655358,0.012263214446697384
1771956821840665900,10.545665771484375,-0.037438042512536046,-0.013495587519556283,-0.006500276138959452
1771956821860628700,10.565628662109376,-0.019181670331954954,-0.005497611035592854,-0.01766420584055595
1771956821880592000,10.585591796875,-0.01753624121248722,-0.0028139979748055335,0.0024388353863265366
1771956821900555000,10.605554931640626,-0.01694061340689659,-0.011500358581729233,-0.01073121910644695
1771956821920517600,10.625517578125,-0.02487608258128166,-0.006816475081816316,-0.0014686112478375433
1771956821940480800,10.645480712890626,-0.03011106062531471,0.004838891398534178,-0.016444911444978786
1771956821960443600,10.665443603515625,-0.016194178953766823,-0.004105024166032672,-0.0009220558815170079
1771956821980406800,10.68540673828125,-0.009312602746486664,0.011762114790454506,-0.030844936990970743
1771956822000369700,10.70536962890625,-0.029219664743542668,-0.0014782558590173721,-0.008318230547429993
1771956822020331800,10.725331787109376,-0.015746435186266897,0.001841865007020533,-0.008138499199505895
1771956822040295000,10.745294921875,0.005506780722737312,-0.003923566651903093,-0.01164480855371803
1771956822060257800,10.7652578125,-0.03145253836214542,0.0025016806226223704,0.00432016475405544
1771956822080220700,10.785220703125,-0.0184434191852808,0.004889014150574803,-0.004149475229112431
1771956822100183800,10.805183837890626,-0.023828034833073615,0.002893200690858066,-0.001171327068004757
1771956822120146700,10.825146728515625,-0.019196867901086805,-0.006455971206352115,-0.02049954799748957
1771956822140109800,10.84510986328125,-0.025342531049251556,-0.006516944145970046,-0.024807182063534855
1771956822160072700,10.86507275390625,-0.006187748724222183,-0.006653539605066179,-0.02119026107485406
1771956822180035800,10.885035888671876,-0.025049685582518577,-0.0008086129691451787,-0.012321255643712356
1771956822199999000,10.9049990234375,-0.00858428847193718,-0.007228928340226411,-0.005812759665679186
1771956822219961900,10.9249619140625,-0.004843932899832725,-0.00573386747688055,-0.007712967263814061
1771956822239924700,10.9449248046875,-0.02071077959537506,0.0014000760562717914,-0.020877423132862893
1771956822259887600,10.9648876953125,-0.013524082961678504,-0.009754172501526772,-0.010670985952345653
1771956822279850800,10.984850830078125,-0.021897359031438825,0.0029227190462872386,-0.01691193530168384
1771956822299813600,11.004813720703124,-0.01651274338364601,0.0022472674701362848,-0.01393545850785449
1771956822319775700,11.024775634765625,-0.0033358664244413374,0.010005261185765266,0.00271068373080343
1771956822339739000,11.04473876953125,-0.009321955096721648,0.008617496621794998,-0.004897672381065785
1771956822359701800,11.06470166015625,-0.01934475193917751,0.012930793243646621,-0.026289447377389294
1771956822379665000,11.084664794921874,-0.014397943186759948,-0.015116174458712339,-0.01668483028123155
1771956822399627800,11.104627685546875,-0.02456628597974777,0.0020750527083873748,-0.03370341342831962
1771956822419590700,11.124590576171874,-0.008406593817472458,0.00399261330012232,-0.006877804214460775
1771956822439553800,11.1445537109375,-0.007211831074953079,-0.021240904416702688,-0.015528974776994437
1771956822459516700,11.1645166015625,-0.02069207489490509,0.0032432927701622244,-0.015270917495852335
1771956822479479800,11.184479736328125,-0.41640988708138466,0.2871600049750879,-0.21948172249961642
1771956822499442700,11.204442626953124,0.9324234732091427,-0.09225951029602437,0.017204077515518293
1771956822519405800,11.22440576171875,-1.1833897001117468,-0.3616564795654267,0.3209944700377062
1771956822539369000,11.244368896484374,0.3138642893642187,-0.23620788943823426,0.08104046200686134
1771956822559331800,11.264331787109375,-0.3432745082437992,0.4268087141619995,-0.1452106724292971
