time,seconds_elapsed,z,y,x
1771956742139692300,0.0836923828125,-0.07713584665060043,-0.003768266492336988,-0.0043109311348292975
1771956742159656200,0.10365625,-0.01664309176504612,-0.004584660909138619,0.03996469317963346
1771956742179619300,0.123619384765625,0.01959317374229431,0.0002298267005011439,-0.01916159565830603
1771956742199582500,0.14358251953125,-0.06450374409258365,0.04474043794777244,-0.005633567173872142
1771956742219545300,0.16354541015625,0.07357961547374725,-0.005599354377016425,0.009285723872715607
1771956742239508500,0.183508544921875,-0.007120061138272285,0.0028904972771182655,-0.029988511957880108
1771956742259471400,0.203471435546875,-0.05467793112695217,-0.02844973981697112,0.02428450989630073
1771956742279435500,0.223435546875,-0.08447159636616706,-0.08477050624750554,0.0708973449866753
1771956742299398400,0.2433984375,-0.07705284454226494,-0.0058196095315739505,0.007955023258225991
1771956742319361500,0.263361572265625,0.01258884793817997,-0.0016284779846668243,0.03786773003353737
1771956742339324400,0.283324462890625,0.016556582525372503,0.0006854615135118365,-0.00004764766716398299
1771956742359287600,0.30328759765625,-0.0379150123745203,0.02312869092468172,-0.014075077041098847
1771956742379250200,0.323250244140625,0.06674655458331108,0.01442468506321311,-0.011615527660306543
1771956742399214600,0.343214599609375,-0.026278350594639777,-0.011603526695258914,-0.004160005756281316
1771956742419177200,0.36317724609375,-0.030916531789302825,0.012086378308758139,0.02008189797415398
1771956742439140400,0.383140380859375,0.0007207154899835586,-0.002842164623364806,0.004892292953049764
1771956742459103200,0.403103271484375,-0.010738251635432242,0.018532229979895055,-0.012198661310505121
1771956742479066400,0.42306640625,0.02171206559240818,0.0076946826884523025,-0.011162888521980493
1771956742499029500,0.443029541015625,-0.013021394136548042,-0.002122910438105464,-0.011877941456157714
1771956742518993400,0.462993408203125,-0.0333750308573246,-0.021454693297855553,-0.005179156203567982
1771956742538956300,0.482956298828125,-0.05215338108539581,-0.034318303056806325,0.024607540438743306
1771956742558919400,0.50291943359375,-0.03790449098050594,-0.029704562183655796,0.024637926443852484
1771956742578882600,0.522882568359375,-0.022753099077939987,0.011725436041876673,-0.017186295263655484
1771956742598845400,0.542845458984375,-0.00032850130200386043,0.0028826792968437076,-0.021659394690254703
1771956742618808600,0.56280859375,0.002437456279993057,0.006795322695933282,-0.014109490767354144
1771956742638772500,0.5827724609375,-0.01035538979768753,0.010287402595393359,0.011888554181717335
1771956742658735600,0.602735595703125,-0.0010907178461551665,-0.0043120545128360385,-0.004168727918853983
1771956742678698200,0.6226982421875,-0.017098434317111968,0.01692150684762746,0.01065033588996157
1771956742698661400,0.642661376953125,-0.0030050270348787305,0.011771613271161913,0.0006340601198375225
1771956742718624300,0.662624267578125,0.0013636895686388016,0.018608985010534523,0.0067109049486462026
1771956742738587400,0.68258740234375,-0.009891863939166069,0.01054934146720916,0.009410510163009166
1771956742758550500,0.702550537109375,-0.008107318609952925,-0.007081848019734024,-0.018063014166103675
1771956742778514400,0.722514404296875,-0.011118190863728523,-0.020779278254322707,0.0009152334150858223
1771956742798477300,0.742477294921875,-0.0406032285451889,-0.03423310899138451,0.010886080874595791
1771956742818440400,0.7624404296875,-0.031608021184802056,-0.010711217498034237,-0.0037543201653752476
1771956742838403600,0.782403564453125,-0.03233925806879997,0.006837810130789875,0.014470944490889086
1771956742858366500,0.802366455078125,-0.017678864553570747,0.019140644201822578,-0.01125244823526591
1771956742878329300,0.822329345703125,-0.010379939717054367,-0.006403437301516533,-0.009723667765408754
1771956742898293500,0.84229345703125,-0.007417582780122756,-0.0031652225652709603,0.006376056104246527
1771956742918256400,0.86225634765625,-0.0068003276646137235,-0.004204064093716442,-0.009149877332290633
1771956742938219300,0.88221923828125,-0.006783961051702499,-0.003877535553090274,-0.0107183778911829
1771956742958182400,0.902182373046875,-0.012928455156087875,0.003997179877385497,-0.008763234368572011
1771956742978145300,0.922145263671875,-0.016942951494455336,0.005167904157191515,0.007069207733869552
1771956742998108400,0.9421083984375,-0.01099193413555622,-0.0001508431801572442,-0.0016423147137742489
1771956743018072300,0.962072265625,-0.014589666366577148,-0.004276179481856525,0.0021562829847447573
1771956743038035500,0.982035400390625,-0.019542320337891578,-0.0037189474578946825,0.004004093675361946
1771956743057998300,1.001998291015625,-0.02433189270198345,-0.028429866072721778,0.022336864693555978
1771956743077961500,1.02196142578125,-0.037485973307490345,-0.008920680819451809,0.018622666476015
1771956743097924400,1.04192431640625,-0.02640577636659145,0.0030601547555997965,-0.03250786523451097
1771956743117887500,1.061887451171875,-0.013816343906521797,0.002045497820340097,-0.000695855043362826
1771956743137850400,1.081850341796875,-0.014447627547383308,0.002523307932540774,0.007902653750171884
1771956743157814500,1.101814453125,-0.008307225096225739,-0.007342471717298031,-0.007739480811404064
1771956743177777400,1.12177734375,-0.01416296538710594,-0.002717076938971877,-0.009614097310556098
1771956743197740300,1.141740234375,-0.004290975192189217,-0.00020717647727578877,0.020034944426733998
1771956743217703400,1.161703369140625,-0.004003390422463417,0.008385587562061847,-0.0013669409716501831
1771956743237666300,1.181666259765625,-0.008943769434094428,0.008751169471442699,0.0031601536645088344
1771956743257629400,1.20162939453125,-0.024511340922117233,0.015538710719719528,-0.004764099996117875
1771956743277593300,1.22159326171875,-0.020483400580286977,0.006345752297528088,-0.005382706818496808
1771956743297556500,1.241556396484375,-0.01062426986694336,-0.01914762193188071,-0.00899958214140497
1771956743317519400,1.261519287109375,-0.004479775762557983,-0.015840031753852964,-0.00980951941795647
1771956743337482500,1.281482421875,-0.01118541088104248,-0.011147380425594747,-0.016049372788751497
1771956743357445400,1.3014453125,-0.01025952820777893,-0.007287307463958859,0.007573549659969285
1771956743377408500,1.321408447265625,-0.028673136776685714,-0.00406045437194407,-0.00019037147294729946
1771956743397372400,1.341372314453125,-0.026577041280269623,0.003702105920948088,-0.023719560356764122
1771956743417335600,1.36133544921875,-0.0153629888266325,0.008403780805878341,-0.013710591110261156
1771956743437298200,1.381298095703125,-0.008939677780866623,0.011306297314353286,-0.005894108673045411
1771956743457261300,1.40126123046875,-0.005644143366813659,-0.00009103928431868553,0.011274176009884104
1771956743477224400,1.421224365234375,0.0021294132441282273,0.007840557432547211,0.006030110477097332
1771956743497187300,1.441187255859375,-0.031252047353982924,0.009180537332035601,-0.015301394832506775
1771956743517152000,1.461152099609375,-0.015384616136550903,0.0005264350268989801,-0.008372070493362844
1771956743537115100,1.481115234375,-0.024956162080168723,0.003940152460522949,-0.004965869645914062
1771956743557078000,1.501078125,-0.016566519397497176,-0.015440364911779761,0.005585901240399107
1771956743577041200,1.521041259765625,-0.0025017536878585815,-0.0036235607920214533,0.0011404661388602108
1771956743597004300,1.54100439453125,-0.02015782188773155,-0.004168042932264506,0.00848231680165045
1771956743616967200,1.56096728515625,-0.012971709775924682,0.005334967819787562,-0.0024060473615769296
1771956743636930300,1.580930419921875,-0.010426701468229294,0.009045476242899895,-0.011271244267281145
1771956743656894200,1.600894287109375,-0.01147474921643734,-0.006454948293045163,0.006568254208099097
1771956743676857300,1.620857421875,-0.010875029757618903,-0.0018329145155847072,-0.016528087083250282
1771956743696820200,1.6408203125,-0.013270400461554527,-0.006254530350118875,0.002272949900664389
1771956743716783000,1.660783203125,0.0012432780593633651,-0.008839395744167268,0.013401196367526427
1771956743736746000,1.68074609375,-0.0029506664991378784,0.01758840979114175,0.009333809931296854
1771956743756709000,1.700709228515625,-0.02374853985607624,-0.013443163212575018,-0.017881355722574516
1771956743776673000,1.720673095703125,-0.00803483789563179,-0.009630399991385638,0.004028716659964993
1771956743796636200,1.74063623046875,-0.01835807898938656,-0.0013430121067911386,-0.015412061265902593
1771956743816599000,1.76059912109375,-0.03151274411678314,0.00440313032977283,0.0036895660997834055
1771956743836562200,1.780562255859375,-0.01206686989068985,-0.009276618117652832,-0.027088160007027906
1771956743856525000,1.800525146484375,-0.007875263419747352,-0.010846351652406156,-0.008052583614876494
1771956743876488200,1.82048828125,-0.015514964517951011,0.01348908471353352,0.00005359335076063871
1771956743896451300,1.840451416015625,0.0012520458877086638,0.005538892894051969,-0.006547165754297748
1771956743916415200,1.860415283203125,-0.020748188996315,0.00249897720888257,-0.0203772185257636
1771956743936378400,1.88037841796875,-0.008788286611437797,-0.003549326512031257,-0.012790444058040156
1771956743956341000,1.900341064453125,-0.0206043966114521,-0.002006919375620782,0.004579929935093969
1771956743976304000,1.92030419921875,-0.015977905854582787,-0.0044482115805149075,0.0008279935230500996
1771956743996267000,1.94026708984375,-0.0026665888607501982,0.0006129442665725947,0.013892761010443792
1771956744016230100,1.960230224609375,-0.012991583520174026,0.00629310879483819,0.00850487569333054
1771956744036194000,1.980194091796875,-0.020175357544422148,0.0069042629631236195,0.009344678385183214
1771956744056157200,2.0001572265625,-0.0315448928207159,-0.0015356486020609735,-0.025282060433132574
1771956744076120000,2.0201201171875,-0.01687690052092075,-0.0028386574920266864,-0.010783643413428216
1771956744096083200,2.040083251953125,-0.020025719940662382,-0.018337547658011315,0.00005590403885580599
1771956744116046000,2.060046142578125,-0.0028109657675027848,-0.0035304391484707594,0.00973144007991068
1771956744136009200,2.08000927734375,0.004971358671784401,0.003910122648440301,0.0034378380947280673
1771956744155972400,2.099972412109375,-0.017761866661906243,0.006935096492804586,-0.008161195088503883
1771956744175936300,2.119936279296875,-0.021510990062355993,-0.0025520591029897332,0.014891882449854165
1771956744195899100,2.139899169921875,-0.014929273584485054,0.0009960983652621508,-0.010070919433655217
1771956744215862000,2.159862060546875,-0.013731588232517241,-0.00259038181938231,-0.007133870467916131
1771956744235825200,2.1798251953125,-0.009991232660412788,-0.0076837229030206795,-0.001697497233422473
1771956744255788000,2.1997880859375,-0.002356207737326622,-0.010870499712973833,0.0030885405998677014
1771956744275751200,2.219751220703125,-0.021204116070270538,-0.002265241518244147,0.0019757113866042345
1771956744295715000,2.239715087890625,-0.034222003075480456,0.0016711846152320502,-0.007196587840048596
1771956744315678200,2.25967822265625,-0.011779869642853736,0.002364208380691707,0.0076072601333260536
1771956744335641000,2.27964111328125,-0.01972176855802536,-0.0016483151962980627,-0.0002897858599666506
1771956744355604200,2.299604248046875,-0.015382278048992157,-0.012987674530036747,0.0017068313173484056
1771956744375567000,2.319567138671875,0.0027250410497188567,-0.000226904091052711,0.005674958630185574
1771956744395530200,2.3395302734375,-0.013583119672536849,-0.0014519523739814758,0.022934109067497772
1771956744415493400,2.359493408203125,-0.023007950621843336,0.014735468045435844,0.014590972407674416
1771956744435457300,2.379457275390625,-0.03333002267181873,-0.006120820967853069,0.006003414266416803
1771956744455420200,2.399420166015625,-0.029887773263454435,0.003396254842169583,-0.010338703524367884
1771956744475383000,2.419383056640625,-0.010736498069763184,-0.005219159420393407,-0.005843848923686891
1771956744495346200,2.43934619140625,-0.014327216038107871,-0.009426876775920391,-0.009126779584493488
1771956744515309000,2.45930908203125,-0.008941431346535682,0.006629135816171765,0.0017356829524971544
1771956744535272200,2.479272216796875,-0.007145195579528808,0.003472169622592628,-0.0033431090159807353
1771956744555236000,2.499236083984375,-0.01014145478606224,0.003271715147048235,-0.007832693786500021
1771956744575199200,2.51919921875,-0.028397826966643332,-0.0019944982854649424,-0.013531754811480641
1771956744595161900,2.539161865234375,-0.013440496331453323,0.0013363631702959537,-0.007251313701970502
1771956744615125000,2.559125,-0.025415011763572692,0.002932875114120543,-0.014394344723876564
1771956744635088000,2.579087890625,-0.014939794978499411,0.007007504141889512,0.009348916168883442
1771956744655051000,2.599051025390625,0.002266191366314888,-0.00672543579749763,-0.0006005505758803337
1771956744675014100,2.61901416015625,-0.012992168042063712,-0.004801372399739921,0.004008395391143858
1771956744694978000,2.63897802734375,-0.017174422162771225,0.00901628668103367,-0.008494390831934288
1771956744714941000,2.65894091796875,-0.012839023306965828,-0.0006953983856365085,-0.006680044019501656
1771956744734904000,2.678904052734375,-0.009099836778640747,-0.00398322441726923,-0.008336907848436385
1771956744754867200,2.6988671875,-0.023168694141507146,-0.010738543896377087,-0.007401115702511742
1771956744774830000,2.718830078125,-0.01090308680832386,0.0002531345108523965,-0.01036490654470399
1771956744794793200,2.738793212890625,-0.017788170146942138,-0.00855506237745285,0.010677863217703998
1771956744814757000,2.758757080078125,-0.016299977415800092,-0.0030733795633539557,0.0013736721065361053
1771956744834720300,2.77872021484375,-0.016744214051961897,0.01239496933389455,0.011132858709897846
1771956744854683000,2.798682861328125,-0.036648937961459155,0.004230805970169603,-0.012003166137868539
1771956744874646000,2.81864599609375,-0.02557049458622932,-0.017472930185310542,0.0017552279031835495
1771956744894609000,2.83860888671875,-0.004472761499881744,0.006228263397701084,-0.0059392264564055944
1771956744914572000,2.858572021484375,-0.005526654466986656,0.0010439926275983451,0.0031507647816557435
1771956744934535000,2.878534912109375,-0.00987608184814453,0.0023484628222882747,-0.0009141557028517126
1771956744954499000,2.8984990234375,-0.011076689809560775,0.004697144840285182,-0.011125524786813184
1771956744974462000,2.9184619140625,-0.014506079736351965,0.0011968816343694924,-0.006049710226710885
1771956744994425000,2.938425048828125,-0.024375147321820258,0.008220642791315912,-0.014691199645446613
1771956745014388000,2.958387939453125,-0.00462064553797245,-0.023733378819562494,-0.0024105500067584215
1771956745034351000,2.97835107421875,-0.02392155833542347,-0.0064998103480786084,0.008378399769449606
1771956745054314200,2.998314208984375,-0.021676994279026984,0.0021018311174586415,0.004740235063340515
1771956745074278100,3.018278076171875,-0.020629531052708625,0.013027604681625962,-0.000415814259275794
1771956745094241000,3.038240966796875,-0.00610942279100418,0.0014594415606930852,-0.00038248737840913236
1771956745114204000,3.058203857421875,-0.02377075168788433,0.00464508585948497,-0.023661829687003044
1771956745134167000,3.0781669921875,-0.029008067819476124,0.004848280281387269,0.002497442838922143
1771956745154130000,3.0981298828125,-0.01897708767056465,-0.016693981702066957,0.0057929589866660535
1771956745174093000,3.118093017578125,-0.017639117065072058,-0.0010618936104699968,-0.007420277060708031
1771956745194056000,3.138055908203125,-0.0031336218506097793,-0.0015929682798683643,-0.00023088614642620086
1771956745214020000,3.15802001953125,-0.00013677812218666077,-0.006755940533615648,0.0005471672876738011
1771956745233983000,3.17798291015625,-0.011806173127889633,0.01148994678556919,0.004701163428276777
1771956745253946000,3.197946044921875,-0.025267127725481984,0.00418426341470331,-0.00023532485952600836
1771956745273909000,3.217908935546875,-0.03469312771856785,-0.011274842730164528,0.007582417953014373
1771956745293872000,3.2378720703125,-0.004614800319075584,-0.003417041901871562,0.008842912008659914
1771956745313835000,3.2578349609375,-0.02706336349248886,0.003960902987606823,0.0019413615924306212
1771956745333799200,3.277799072265625,-0.023918635725975034,-0.00007982377056032419,0.015809947142843155
1771956745353761800,3.29776171875,-0.013590718457102774,-0.008947240032814443,-0.0015321506038773803
1771956745373725000,3.317724853515625,-0.017028876212239266,0.008406995676271617,-0.01059481544359587
1771956745393688000,3.33768798828125,-0.020015198546648023,-0.00535918894559145,0.010548208956047892
1771956745413651000,3.35765087890625,-0.018213117560744285,-0.012243797360174356,-0.001266494538169354
1771956745433614000,3.377614013671875,-0.028243513187766075,-0.0035105654042214152,-0.009239199583558365
1771956745453577000,3.397576904296875,-0.012978139516711234,-0.003997764399275183,-0.014589593301340936
1771956745473541000,3.417541015625,-0.00010346037447452545,0.0014408829906955361,0.0040641350332181895
1771956745493504000,3.43750390625,-0.014168810606002807,0.0059898515319451685,-0.012483213872928172
1771956745513467100,3.457467041015625,-0.01552022521495819,-0.002902808769419789,-0.009646876202151178
1771956745533430000,3.477429931640625,-0.023753800553083418,-0.008908369327150285,-0.002245568703394383
1771956745553393200,3.49739306640625,-0.017612813580036163,-0.001688391478359699,0.0003082804978825152
1771956745573356000,3.51735595703125,-0.000263034850358963,-0.01900083387233317,0.004590679657971487
1771956745593319200,3.537319091796875,-0.002505260819196701,-0.001925743898190558,-0.007923504741955549
1771956745613283000,3.557282958984375,-0.014475684598088264,0.0036853739818558094,-0.01839969877456315
1771956745633246200,3.57724609375,-0.013722820404171943,0.004159275103919208,-0.000018713833624497054
1771956745653209000,3.597208984375,-0.018217793735861777,0.00013995645996183156,-0.0031770865330006926
1771956745673172200,3.617172119140625,-0.012986907345056533,-0.01705430291444063,-0.005812366940034553
1771956745693135400,3.63713525390625,-0.013888240098953246,-0.0007697422634810209,0.017198086166149006
1771956745713098000,3.657097900390625,-0.008657353708148002,-0.006635346361249685,0.00674697177587077
1771956745733062100,3.677062255859375,-0.015692074650526047,0.012256218450330198,0.00919666648292914
1771956745753025000,3.69702490234375,-0.011353753185272215,0.014011428087204694,-0.005404087533243
1771956745772988200,3.71698828125,-0.010455343040823935,-0.0043407691506668926,0.0015531111935153602
1771956745792951000,3.736950927734375,-0.02048164701461792,0.011744469535909593,-0.0014188081562053411
1771956745812914200,3.7569140625,-0.01988426564335823,0.00018036153558641672,0.00489365379307419
1771956745832877000,3.776876953125,-0.004921674311161041,0.005745594447292387,0.0031124785978812724
1771956745852840200,3.796840087890625,-0.0032797523230314253,-0.0035990108726546167,0.0020182901530060916
1771956745872804000,3.81680419921875,-0.013755553629994392,0.006745528737455606,0.0013302987556904555
1771956745892767200,3.836767333984375,-0.014952654460072516,0.0077986545195803045,-0.017803933971654622
1771956745912730000,3.856730224609375,-0.025278818163275717,0.009074629272148013,-0.0003808890763670206
1771956745932693200,3.876693359375,-0.027077392017841338,-0.007198533201962709,-0.0174665735097602
1771956745952656100,3.89665625,-0.019150690671801567,-0.006975136242248117,-0.0024077278620097784
1771956745972619000,3.916618896484375,-0.014656301862001418,-0.00014941840805113315,-0.018998285722220315
1771956745992582100,3.93658203125,-0.004779050970077514,-0.0008080649798735976,-0.00023699622680433094
1771956746012546000,3.956546142578125,-0.01600830099284649,0.009853175896592438,0.007723406459437683
1771956746032509200,3.97650927734375,-0.027676526954770086,0.00046389118470251556,0.006231030743522569
1771956746052472000,3.99647216796875,-0.014959084200859068,0.0009040727002546191,0.002488775475276634
1771956746072435200,4.016435302734375,-0.011368950754404068,-0.017154511885903775,-0.009810469266027211
1771956746092398000,4.036398193359375,-0.005386369213461876,-0.017326397854089737,-0.015130988435354082
1771956746112361200,4.056361328125,-0.019457564663887022,-0.00023534312583506107,0.013526530647091566
1771956746132325000,4.0763251953125,-0.0046446109354496,0.012039360829256475,-0.014094421062385662
1771956746152288300,4.096288330078125,-0.01916004302203655,-0.010065795733965932,-0.0032509737531188874
1771956746172251100,4.116251220703125,-0.014530045133829116,0.0031579891068860885,-0.004595830757124349
1771956746192214300,4.13621435546875,-0.010040917021036147,-0.00045881315078586337,-0.0034582141624763607
1771956746212177200,4.15617724609375,-0.021416882038116453,-0.005629420721717179,0.01233802411542274
1771956746232140000,4.17614013671875,-0.015135609811544418,-0.01424713653922081,0.0028721396365202962
1771956746252103200,4.196103271484375,-0.012895721930265426,-0.0033357202939689155,0.0021383820018731057
1771956746272067000,4.216067138671875,-0.02397591887116432,0.0012985519105568528,0.010647824272466824
1771956746292030200,4.2360302734375,-0.016938275319337844,0.0015897534094750881,-0.0024673856273759154
1771956746311993000,4.2559931640625,-0.013351064482331275,0.013176000176370143,-0.006169345417851582
1771956746331956200,4.275956298828125,-0.01992693574130535,-0.013376125858351587,-0.007000288949813693
1771956746351919000,4.295919189453125,-0.025319150173664092,-0.001311447924748063,0.002894963389681652
1771956746371882200,4.31588232421875,-0.012753098589181899,-0.010576229474134743,-0.002804453828325495
1771956746391845000,4.33584521484375,-0.015894319224357602,-0.008337108777835965,0.007433136542281136
1771956746411809300,4.355809326171875,-0.019641689059138295,0.005766162311285734,0.005031783622130751
1771956746431772200,4.375772216796875,-0.024421909072995185,0.012907923824712633,-0.001962632709322497
1771956746451735300,4.3957353515625,-0.01933130793571472,0.006570318301022052,-0.004452029239106923
1771956746471698000,4.415697998046875,-0.017089081966876984,-0.006967610522918403,-0.009847321544541045
1771956746491661000,4.4356611328125,-0.015301029506325722,-0.010110475125908852,-0.011472082335315645
1771956746511624200,4.455624267578125,-0.014549334356188773,0.008251768581941724,0.0058847380565013735
1771956746531586300,4.47558642578125,-0.010215689066052436,0.009592661796882748,0.016454154197359457
1771956746551550700,4.49555078125,-0.011869886013865471,0.010349325383082031,0.0016747374123428015
1771956746571513300,4.515513427734375,-0.02205050376653671,0.009042444035597145,0.011317019637767226
1771956746591476500,4.5354765625,-0.010679799446463585,0.011922785244882106,0.013327318280562758
1771956746611439400,4.555439453125,-0.01306114162504673,-0.008446122110262513,-0.004528592473501339
1771956746631402500,4.575402587890625,-0.00872106659412384,-0.0025677315961569547,0.0017015980198048055
1771956746651365600,4.59536572265625,-0.006617956835031509,0.001545439343713224,0.011251489254040643
1771956746671328500,4.61532861328125,-0.012006664136052132,0.022130510200187564,-0.011717837257310747
1771956746691292400,4.63529248046875,-0.023375614890456198,0.012077354752086102,-0.007062613596301525
1771956746711255600,4.655255615234375,-0.011545476365089416,0.0053382557554170484,-0.016591060183709486
1771956746731218700,4.67521875,-0.009003975188732147,-0.0008738602250814438,-0.0022344993201084433
1771956746751181600,4.695181640625,0.004624152669310569,-0.01437858089916408,-0.01640949307172559
1771956746771144700,4.715144775390625,-0.013635142120718955,0.002706153686158359,0.008021302560623734
1771956746791107300,4.735107421875,-0.011837152788043022,0.009890219971351324,-0.007500648820539936
1771956746811071700,4.75507177734375,-0.0064472764432430265,0.0035252515166997907,0.010887368649384006
1771956746831034400,4.775034423828125,-0.0015092355191707611,0.009113792238757013,0.011819763261824845
1771956746850997500,4.79499755859375,-0.02260346147418022,0.004234093905799091,-0.017171746148495003
1771956746870960400,4.81496044921875,-0.02245090126097202,-0.009018478638119994,0.010949455833854153
1771956746890923500,4.834923583984375,-0.014076456147432326,-0.010224968351051212,0.003631086511351168
1771956746910886400,4.854886474609375,-0.00808452225625515,0.012106252053007483,0.022461532252840696
1771956746930849500,4.874849609375,-0.02260346147418022,0.0019789353901520372,0.004398152760555968
1771956746950812700,4.894812744140625,-0.017965280279517173,0.005872435697354376,0.006236355372611433
1771956746970776600,4.914776611328125,-0.023793548041582107,0.0018713468298316,-0.005022248608805239
1771956746990739500,4.934739501953125,-0.01780687484741211,-0.010754800911433994,-0.012118636610545217
1771956747010702600,4.95470263671875,-0.0158639240860939,-0.010854827219806611,-0.005058087107166647
1771956747030665700,4.974665771484375,-0.0142214175760746,0.000637384588085115,-0.004919628484547138
1771956747050628400,4.99462841796875,-0.010033902758359909,0.0056199222410097715,-0.00427591462037526
1771956747070591500,5.014591552734375,-0.03577273964881897,-0.006493197944201529,0.0010239453534130008
1771956747090554400,5.034554443359375,-0.014973697248101233,-0.014956746113300322,-0.00778721981011331
1771956747110518500,5.0545185546875,-0.02395019990801811,-0.009831037130020558,-0.005602350051701069
1771956747130481400,5.0744814453125,-0.019309680625796317,-0.00376443056743592,0.003715175465075299
1771956747150444500,5.094444580078125,-0.010329086312651633,-0.013334040282294153,-0.0140789768980816
1771956747170407400,5.114407470703125,-0.014521277305483818,-0.007121449377760291,0.00508142231698148
1771956747190370600,5.13437060546875,-0.02321077971756458,-0.00387717022690922,-0.008700115137640387
1771956747210333700,5.154333740234375,-0.01976560769975185,0.001413008603081107,0.0007204962942749261
1771956747230296600,5.174296630859375,-0.020056115078926084,-0.0014398235447704792,0.009968865564977749
1771956747250260500,5.194260498046875,-0.027082652714848516,0.012356208226084709,-0.003061488196160644
1771956747270223600,5.2142236328125,-0.027983400946855544,-0.006938640156760811,0.002542021766165271
1771956747290186500,5.2341865234375,-0.019154782325029374,-0.008079955678991974,-0.012432917590951546
1771956747310149400,5.2541494140625,0.006576455780863762,-0.009705182260647415,0.0010718304825946688
1771956747330112500,5.274112548828125,-0.004647533544898033,0.0001742971209809184,-0.013220241176895797
1771956747350075400,5.294075439453125,-0.01841243952512741,0.014908011600747704,0.0013792981297243386
1771956747370039600,5.31403955078125,-0.026935937720537186,0.00357979471553117,-0.009997041346691549
1771956747390002400,5.33400244140625,-0.017656652721762655,-0.010759952010586857,0.008785482732998206
1771956747409965600,5.353965576171875,-0.019007482808828354,-0.020069595615006982,-0.0077994399708695705
1771956747429928400,5.373928466796875,-0.009575637596845626,0.0018667437199503182,-0.008529790938878432
1771956747449891600,5.3938916015625,-0.012569558715820313,-0.0072541723793372506,-0.0004957476276904344
1771956747469854700,5.413854736328125,0.00014963760375976562,0.01239409255106002,0.010142340702051297
1771956747489817600,5.433817626953125,-0.010034487280249594,0.003223382493294775,0.015972690823348238
1771956747509780500,5.453780517578125,-0.019610124877095222,-0.007420688052661716,0.008918845055392012
1771956747529745000,5.473744873046875,-0.014077040669322013,-0.004654767003282904,-0.010037473821779712
1771956747549707800,5.493707763671875,-0.019312018713355063,-0.009064180943369865,0.0005058488965965808
1771956747569671000,5.5136708984375,-0.02200608010292053,0.008931129148229956,-0.009282865195348858
1771956747589634000,5.533634033203125,-0.006591068828105926,-0.008624547417089342,-0.0017162749991286544
1771956747609597000,5.553596923828125,-0.020355390286445618,-0.013910196202434598,-0.001599480219045654
1771956747629560000,5.57356005859375,-0.014371639701724052,-0.0005833163132891059,0.01047080547143705
1771956747649522700,5.593522705078125,-0.023497779965400693,0.011642141672596334,-0.0016528909067157656
1771956747669487000,5.613487060546875,-0.011076689809560775,0.006332929348573088,-0.011440819547371937
1771956747689449700,5.63344970703125,-0.016919570618867872,-0.011027809166535734,0.004900850718840956
1771956747709412900,5.653412841796875,-0.010488660788536072,-0.0074212725745514034,0.00541272749742493
1771956747729375700,5.673375732421875,-0.00689852734208107,-0.009773644386976957,0.021720842553908003
1771956747749339000,5.6933388671875,-0.02768938643634319,-0.0025070874501019716,-0.01926747631873004
1771956747769302000,5.713302001953125,-0.02829670467972755,0.0035362478347495197,-0.0021539905629586425
1771956747789265000,5.733264892578125,-0.014531798699498175,0.003213664816878736,-0.0048958000843878835
1771956747809228800,5.753228759765625,-0.016474749460816382,0.0005160232307389378,0.006444847024139016
1771956747829192000,5.77319189453125,-0.005253098222613334,-0.005741795055009424,-0.0007233367053326219
1771956747849155000,5.793155029296875,-0.01542611719071865,-0.01792805354166776,0.01738268548543565
1771956747869118000,5.813117919921875,-0.029798341414332387,-0.0031207989016547796,-0.009994812856987119
1771956747889081000,5.8330810546875,-0.016326865422725677,0.014621924668364226,0.002725150647573173
1771956747909043700,5.853043701171875,-0.017225860089063644,-0.011543649734184145,0.007693056986946612
1771956747929006800,5.8730068359375,-0.02351706918776035,0.0016106500670313834,0.004538922071270645
1771956747948970800,5.892970703125,-0.00466857633292675,-0.005259601028636098,0.009081250809179618
1771956747968934000,5.912933837890625,-0.01395253750681877,0.008478563075140118,-0.0007826291445177048
1771956747988896800,5.932896728515625,-0.013504209217429161,-0.003120470108091831,-0.004341454137256368
1771956748008860000,5.95285986328125,-0.012305354821681975,0.0002479834116995335,0.002113466756325215
1771956748028822800,5.97282275390625,-0.013209025663137435,0.01571099854670465,-0.003906350655620917
1771956748048786000,5.992785888671875,-0.02158873147368431,0.008352014086022973,0.0039046701551880684
1771956748068749000,6.0127490234375,-0.034305005183815955,0.0105813440406695,-0.004034507079934701
1771956748088713000,6.032712890625,-0.010961538997292518,-0.009412519457004965,-0.006311219840263948
1771956748108675800,6.05267578125,-0.0046855274677276605,0.006362739964947104,0.00846743889292702
1771956748128639000,6.072638916015625,-0.011860533663630485,0.007687741491012275,-0.008711531580798328
1771956748148602000,6.09260205078125,-0.01963935097157955,0.015395393258891998,-0.004213690438587219
1771956748168564700,6.112564697265625,-0.018445172750949857,-0.006771539961546659,0.0037333047768101095
1771956748188527900,6.13252783203125,-0.006772855135798454,0.0037778745708987116,-0.0048958000843878835
1771956748208490800,6.15249072265625,-0.02428454642891884,-0.0005113835882395505,0.0008702526290435343
1771956748228455000,6.172454833984375,-0.008581365862488746,-0.0021406287578865884,0.010362111799418925
1771956748248417800,6.192417724609375,-0.013514146089553833,0.01162497134208679,-0.0005443999418523162
1771956748268381000,6.212380859375,-0.013659692040085792,0.016520926690101623,-0.008551637444505468
1771956748288343800,6.23234375,-0.02443476855456829,0.01366758308559656,-0.0049558323090896006
1771956748308307000,6.252306884765625,-0.011863456273078919,0.004712196278944611,0.00505334699996747
1771956748328270000,6.27227001953125,-0.014999416211247443,-0.016731171907298267,-0.0049734958299435675
1771956748348233000,6.29223291015625,-0.019037877947092056,-0.007234189037233591,-0.001152741098543629
1771956748368196000,6.312196044921875,-0.023823358657956123,-0.005546637809090316,-0.011895751107484101
1771956748388160000,6.332159912109375,-0.0073678984194993965,0.004497676745429635,0.0022574052716605366
1771956748408123000,6.352122802734375,-0.02936521069407463,0.008007986421324312,0.012887109365547074
1771956748428085800,6.372085693359375,-0.03729541917145252,-0.003984210797958076,-0.0088134484521579
1771956748448049000,6.392048828125,-0.018142974933981895,-0.009839695360511541,0.006447413440560922
1771956748468011800,6.41201171875,-0.004371639212965965,0.0028158611383289098,-0.012425410137930885
1771956748487975000,6.431974853515625,-0.008116086438298226,-0.008465046006441115,0.006300607114704326
1771956748507937800,6.451937744140625,-0.013510638958215714,-0.005771569138765335,0.009787006192049011
1771956748527902000,6.47190185546875,-0.014703063613176345,0.01596705566700548,0.012837972994195297
1771956748547864800,6.49186474609375,-0.022025953847169873,0.02202266591154039,0.00777715507382527
1771956748567828000,6.511827880859375,-0.03773907128572464,0.0012456892121583223,-0.014765452191745862
1771956748587790800,6.531790771484375,-0.016937690797448158,0.006108034551516175,-0.006015004239510745
1771956748607754000,6.55175390625,0.00012216507494449615,-0.006865209594368934,0.003946837929636239
1771956748627717000,6.571717041015625,-0.006318097105622291,-0.0003060702744871378,0.012282695465302093
1771956748647680000,6.591679931640625,-0.007066869646310806,-0.002535984751023352,-0.0038737361608073115
1771956748667643000,6.611642822265625,-0.030416765573620795,-0.005714797450229525,0.0014268361990340053
1771956748687607000,6.63160693359375,-0.023078093248605727,0.018036445819586515,0.0029088457845617083
1771956748707570000,6.65156982421875,-0.009762100079655646,0.0028298896636813876,-0.00351218197257258
1771956748727532800,6.67153271484375,-0.020388123512268066,-0.00017532003428786993,-0.010100903579965233
1771956748747496000,6.691495849609375,-0.00393266327381134,0.0011606412772089242,0.014299104188475758
1771956748767458800,6.711458740234375,-0.01305412736237049,-0.0012422551460564135,0.018135558812506496
1771956748787422000,6.731421875,-0.008275076392292975,0.008901610792800784,0.005215661422209814
1771956748807385000,6.751385009765625,-0.025326748958230016,0.016767193068750203,-0.011360886178957297
1771956748827349000,6.771348876953125,-0.028176293170452116,0.003656403615698218,-0.0024593667177017775
1771956748847312000,6.791311767578125,-0.021446108132600783,-0.00002436725627630949,-0.012615297553688287
1771956748867275000,6.81127490234375,-0.02354161910712719,0.011508834149129689,-0.01754280795059167
1771956748887238100,6.831238037109375,-0.008429390171170234,-0.015445296815223991,0.0005671232303138822
1771956748907201000,6.851200927734375,-0.0021487024664878845,-0.004220430706627667,-0.0004708232489880174
1771956748927164000,6.871163818359375,-0.01935878046452999,0.012495141772739589,0.010759714548569173
1771956748947126800,6.891126708984375,-0.021300562182068824,0.003343830535188317,-0.004391494690906256
1771956748967090000,6.91108984375,-0.013669628912210463,-0.004258607292547822,-0.008457264558784663
1771956748987053800,6.9310537109375,-0.013075754672288893,0.0014000760562717914,-0.0014128350731451064
1771956749007017000,6.951016845703125,-0.0015606734454631805,0.007402714004553854,-0.004727640443248674
1771956749026979800,6.970979736328125,-0.018177461725473402,0.003792487618140876,-0.001998087615193799
1771956749046943000,6.99094287109375,-0.010095277556777,-0.006904445626214146,0.004941274060774594
1771956749066905900,7.01090576171875,-0.03164192345440388,-0.013055479069240391,0.008659226004825904
1771956749086869000,7.030868896484375,-0.0204214412599802,-0.004812478315643966,-0.0009561408142093568
1771956749106832100,7.05083203125,-0.02085983267724514,0.002831241370551288,-0.009363538349280134
1771956749126796000,7.070796142578125,-0.015482231292128562,-0.0011341916617006063,-0.0007261588500812649
1771956749146759000,7.090759033203125,-0.014130816683173179,0.00045687692202627656,-0.02146177149261348
1771956749166721800,7.1107216796875,-0.004112696015834808,-0.01362323248721659,-0.00042327604652382433
1771956749186685000,7.130684814453125,-0.017888123390078545,-0.015189203162305057,-0.0011078242445830256
1771956749206647800,7.150647705078125,-0.01773497865498066,0.019747852847352622,-0.012259625116968527
1771956749226611000,7.17061083984375,-0.01668926899433136,0.017110891939885912,-0.00434210259122774
1771956749246573800,7.19057373046875,-0.02208323699235916,0.0011451149145141244,0.009599484263313933
1771956749266537000,7.210536865234375,-0.015950433325767517,-0.010604615318402648,-0.010923691204935311
1771956749286500900,7.2305009765625,-0.00682663114964962,0.0015802183961495756,0.004349820106802508
1771956749306464000,7.250464111328125,-0.006383563557267189,0.0030079496443271635,0.014185323349386453
1771956749326427000,7.270427001953125,-0.01431552560031414,0.011285839048214256,0.0002214515978004783
1771956749346390000,7.29039013671875,-0.015962708285450933,-0.0012627864774316549,0.0023523718124255537
1771956749366353200,7.310353271484375,-0.0038449849903583523,-0.0008258928975090384,0.0062667870434932405
1771956749386315800,7.330315673828125,-0.018664952981472013,-0.0023042583543807266,-0.00003057780135422945
1771956749406279000,7.35027880859375,-0.022258593559265134,0.006401281877048313,0.011066049684537574
1771956749426242800,7.370242919921875,-0.011190087056159972,0.0021116949243471027,0.003065497650997713
1771956749446206000,7.3902060546875,-0.01344751059412956,0.008290164363570511,-0.0033683621882461007
1771956749466168800,7.4101689453125,-0.009415478599071502,0.0174861549930647,0.01854751888057217
1771956749486132000,7.430132080078125,-0.025429624810814858,0.011844678507372737,0.0006929689665324985
1771956749506094800,7.4500947265625,-0.010467033478617667,0.005728497182019054,0.01945494344853796
1771956749526058000,7.47005810546875,-0.022145780834555626,0.0053006271587684745,0.011326216724375263
1771956749546020900,7.490020751953125,-0.01227028350830078,-0.01458144652750343,0.005913014302914962
1771956749565984000,7.50998388671875,-0.01974748752117157,0.002809504462778568,0.009589793986361473
1771956749585948000,7.529947998046875,0.00046352585852146145,-0.006683459819294512,0.009701510732527821
1771956749605910800,7.549910888671875,-0.024676760616898535,0.012379954427853225,-0.013428422301169484
1771956749625874000,7.5698740234375,-0.02198737540245056,-0.012428944668732582,-0.01284838479035534
1771956749645836800,7.5898369140625,-0.024534137275815007,0.0011808803476393223,-0.0031075010286644097
1771956749665800000,7.609800048828125,-0.014501403561234473,-0.0009790741652250289,0.00005391301116906106
1771956749685762800,7.6297626953125,-0.0239332487732172,0.0036170945186167953,-0.010494168080715462
1771956749705726000,7.649725830078125,-0.01915361328125,0.000011288578994572162,0.0018099080993328243
1771956749725688800,7.669688720703125,-0.004493219766020774,0.010122713552974163,-0.013973379365447907
1771956749745653000,7.689653076171875,-0.01840016456544399,0.01255436114668846,-0.0024837248408235606
1771956749765615900,7.709615966796875,-0.02093523600101471,0.002936528375931084,-0.013867800099123268
1771956749785579000,7.7295791015625,-0.027815058642625807,0.005730689139105379,-0.012966102019045501
1771956749805542000,7.7495419921875,-0.026019991919398307,-0.004719393204711378,-0.009091178548149764
1771956749825504800,7.7695048828125,-0.014045476487278937,-0.005505611678957939,-0.0036390049563255157
1771956749845468000,7.789468017578125,-0.0005827683240175247,0.010975165663845836,-0.018236854629358274
1771956749865430800,7.8094306640625,-0.024675007051229474,0.00442494030278176,-0.0020218338169623166
1771956749885394000,7.829393798828125,-0.018382044386863708,0.028152473903447387,0.014513212730037047
1771956749905357800,7.84935791015625,-0.016885083827376364,0.00005114566534757614,-0.0006903477511834352
1771956749925321000,7.869321044921875,-0.0025298107385635375,0.011178433150984346,0.011494467697059734
1771956749945283800,7.889283935546875,-0.010465864434838294,0.00955609264615923,0.0001610175142996013
1771956749965247000,7.9092470703125,-0.015851064604520796,-0.010913096745684742,0.013369878780655563
1771956749985209900,7.9292099609375,-0.004925765964388847,0.01719688972290605,0.0034316001501865684
1771956750005173000,7.949173095703125,-0.004623568147420883,0.009739011465013027,0.00607519172783941
1771956750025135900,7.969135986328125,-0.016442016234993934,0.010765249240212141,0.005908730853442103
1771956750045098800,7.9890986328125,-0.02138356429040432,-0.005680822115391493,0.000645823622867465
1771956750065063000,8.00906298828125,-0.03439911320805549,0.0030513503946363926,-0.002309153725206852
1771956750085025800,8.02902587890625,-0.026907880669832226,0.0048950054999440905,-0.007775027048820629
1771956750104989000,8.048989013671875,-0.005355389553308487,0.01651617744974792,-0.0033401955396868284
1771956750124951800,8.068951904296876,-0.013591302978992461,-0.00343465062379837,0.0007068239619489759
1771956750144915000,8.0889150390625,-0.022561375898122786,0.0187269488343969,0.01062985022435896
1771956750164877800,8.1088779296875,-0.01268120239675045,-0.0007065773667767644,0.0059188777881208805
1771956750184841000,8.128841064453125,-0.007884615769982338,-0.0012399535911157727,-0.0136811823526863
1771956750204803800,8.148803955078124,-0.01805821925997734,0.0029122707175090906,0.0024474022852722555
1771956750224768000,8.16876806640625,-0.00578092148900032,0.003455401150882244,0.0010925810096785425
1771956750244731000,8.18873095703125,-0.008327098840475082,-0.0007695596003904938,0.005626680775359273
1771956750264694000,8.208694091796875,-0.008769581910967826,0.012293152927234768,-0.005085760565381497
1771956750284657000,8.228656982421874,-0.028967735809087753,0.0044724692389369,0.0027017423725221304
1771956750304619800,8.248619873046875,-0.02043839239478111,0.01172035800796002,-0.007065636670449748
1771956750324583000,8.2685830078125,-0.022384850287437436,0.0068673650188371535,-0.010104657306475565
1771956750344545800,8.2885458984375,-0.0054763855844736095,-0.009432283603399991,-0.00544212712184526
1771956750364509000,8.308509033203125,-0.02388064180314541,-0.022647702474705874,-0.0009343125748913734
1771956750384472800,8.328472900390626,-0.01714285798072815,0.005794073231518268,0.015121928346063941
1771956750404436000,8.34843603515625,-0.013397826233506202,-0.0003198796041309833,0.01486103978701867
1771956750424398800,8.36839892578125,-0.024471593433618544,0.005225625693798065,-0.00219025831958279
1771956750444362000,8.388362060546875,-0.030455928540229795,0.008049889334291219,0.003163149339193478
1771956750464324900,8.408324951171876,-0.013840893825888633,-0.008373714461177587,0.0037833909962326287
1771956750484288000,8.4282880859375,-0.011745967373251915,-0.010373108117468655,-0.014927912744460627
1771956750504251000,8.4482509765625,-0.009209726893901824,-0.00550122776478529,-0.004473610883252695
1771956750524213500,8.468213623046875,-0.00921381854712963,0.0018307590911164878,0.01207237718286924
1771956750544177400,8.488177490234374,-0.017745500048995017,0.026082024304941297,0.0038787593957968053
1771956750564140500,8.508140625,-0.032412323305010794,-0.005711399916745722,0.013127009935490786
1771956750584103700,8.528103759765624,-0.013262217155098914,-0.009669928284175693,0.009015848289616405
1771956750604066600,8.548066650390625,-0.025084172374010085,-0.005610496825538575,0.01019181500012055
1771956750624029700,8.56802978515625,-0.009216741156578064,-0.009701419400982559,-0.003954235784802585
1771956750643992300,8.587992431640625,-0.010423194336891173,0.009051577190123498,0.014684952567750587
1771956750663955500,8.60795556640625,-0.011767594683170318,-0.0010107479451224206,-0.01026486197002232
1771956750683918600,8.627918701171875,-0.026128712990880012,0.0028994112359359858,0.0008654668560717254
1771956750703882500,8.647882568359375,-0.02957856118381023,-0.007319931091926991,-0.009971477647172286
1771956750723845400,8.667845458984376,-0.002792261067032814,-0.003036043227650225,-0.0034803163964301346
1771956750743808500,8.68780859375,-0.0246434428691864,0.010613638875074684,-0.022248830217076465
1771956750763771600,8.707771728515626,-0.015962708285450933,-0.005952113337442278,0.003763864311855286
1771956750783734500,8.727734619140625,0.0033346973806619644,-0.00685194825399667,-0.00020071020387113094
1771956750803697700,8.74769775390625,-0.018363924208283422,0.005303074844181538,0.0015903287982102483
1771956750823660500,8.76766064453125,-0.018654431587457655,0.006765767807886004,-0.005345799741055816
1771956750843623700,8.787623779296876,-0.013410685715079307,-0.005166296721994877,0.0022686116522643712
1771956750863587600,8.807587646484375,-0.014751578930020331,0.010058196949400007,-0.013403662319248541
1771956750883550500,8.827550537109374,-0.013549801924824714,0.00004460632670670748,-0.00012194587923586368
1771956750903513300,8.847513427734375,-0.012349193963408469,-0.005752462579496204,0.013522055401373655
1771956750923476500,8.8674765625,-0.00965045639872551,0.015469846734590828,0.0019328220929484814
1771956750943439400,8.887439453125,-0.014129063117504118,0.012965462698228656,0.014520574052585288
1771956750963402500,8.907402587890624,-0.029084640187025067,0.020360431787744163,0.011498742013378069
1771956750983365600,8.92736572265625,-0.022200725892186163,0.0030396599568426608,0.008680515388026833
1771956751003328500,8.94732861328125,-0.020846973195672035,-0.0026997239453718067,0.0026943627836648375
1771956751023291600,8.967291748046875,-0.023691256710886954,-0.010968005270697176,0.004969787769205868
1771956751043255600,8.987255615234375,-0.008872457763552666,0.002060585791617632,-0.014049586406815796
1771956751063218700,9.00721875,-0.017100187882781028,0.005806932713091373,0.00791578722638078
1771956751083181600,9.027181640625,-0.019645196190476416,0.0015235928380861877,-0.015045894834632053
1771956751103144400,9.04714453125,-0.026668811216950417,0.009400317562557756,-0.0032576774885412305
1771956751123107300,9.067107421875,-0.017090835532546044,-0.017441439068503678,0.007447758722677826
1771956751143070500,9.087070556640626,-0.017838439029455182,-0.0001394450033083558,-0.005344612430967391
1771956751163033600,9.10703369140625,-0.01753916382193565,-0.006096490244194865,0.0026659586730878797
1771956751182996500,9.12699658203125,-0.009921090033650397,0.008088540844246745,0.0014976181466132403
1771956751202960400,9.14696044921875,-0.012167992177605629,0.020325141278654337,0.004456979408860206
1771956751222923500,9.166923583984374,-0.026835399955511093,-0.0004542465735226869,0.0004765771363396197
1771956751242886700,9.18688671875,-0.018904606956243512,0.0043446416081860655,-0.006158613961283117
1771956751262849500,9.206849609375,-0.02848375168442726,0.002676343069784343,0.011890663940412924
1771956751282812700,9.226812744140625,-0.006935352221131325,-0.00855824071522802,0.0018503588407300412
1771956751302775600,9.246775634765624,-0.0021510405540466305,0.00974909446761012,-0.015312537281028925
1771956751322738400,9.266738525390625,-0.0123217214345932,0.02212327674180269,-0.01031377001251094
1771956751342701300,9.286701416015624,-0.030137364110350607,-0.008109693230129777,0.002589075778285041
1771956751362665500,9.30666552734375,-0.004250058659911155,0.019215828329883514,-0.005428290392737835
1771956751382628400,9.32662841796875,-0.009779051214456557,-0.007451923441141844,-0.0016291721044108271
1771956751402591500,9.346591552734376,0.0006955810487270354,0.005805215680040419,0.014234021329320966
1771956751422554400,9.366554443359375,-0.010526654711365699,0.009626856327429413,0.0044917401949875055
1771956751442517500,9.386517578125,-0.01187514671087265,0.00022898645028471946,-0.010100547386938705
1771956751462480600,9.406480712890625,-0.014717092138528823,-0.0026431714525446295,0.012621690761856734
1771956751482443500,9.426443603515626,-0.026387071666121482,0.015759696526639163,-0.015659250093158335
1771956751502406700,9.44640673828125,-0.013369184660911559,0.0029009821385145187,-0.02028526592599228
1771956751522369500,9.46636962890625,-0.016368950998783112,0.002700856456533074,-0.0012728146811015904
1771956751542333700,9.486333740234375,-0.011283610558509826,-0.004827785482630133,0.0009715758453588933
1771956751562296600,9.506296630859374,-0.007385434076189994,-0.011269435902684926,0.0017064477248582989
1771956751582259700,9.526259765625,-0.012315291693806648,-0.004626746485196054,0.005752617843123153
1771956751602222300,9.546222412109374,-0.019493220499157905,0.0019573811454698443,-0.013685219206986949
1771956751622185500,9.566185546875,-0.029670915642380714,0.0050311625676229595,-0.003226606496842578
1771956751642148600,9.586148681640625,-0.020090601870417595,-0.010732917873188853,-0.003209764959895983
1771956751662111500,9.606111572265625,-0.008713467809557915,-0.0031420243527740237,-0.0016726185204926876
1771956751682074600,9.62607470703125,-0.008725742769241332,0.0003230214092880487,0.004086072870390489
1771956751702038500,9.64603857421875,-0.011572364372014999,-0.016106500670313835,-0.0025955785843078047
1771956751722001700,9.666001708984375,-0.009774375039339065,-0.007114179386757314,-0.011631848607445134
1771956751741964500,9.685964599609376,-0.005136778366565704,0.003688186993449926,0.004668740729708225
1771956751761927700,9.705927734375,-0.014718261182308196,-0.010507328956387936,-0.0039359055436681955
1771956751781890600,9.725890625,-0.03447451653182507,-0.004061879144050181,0.022018336796294898
1771956751801853700,9.745853759765625,-0.02011164465844631,-0.01591576387118548,-0.0037550690840464085
1771956751821816300,9.76581640625,-0.01293780750632286,-0.017509718531742692,0.010421723899012431
1771956751841779500,9.785779541015625,-0.004553425520658493,-0.010600194871611892,0.009052453972958029
1771956751861742600,9.80574267578125,-0.020709610551595686,0.000694740798510611,0.00993971253572963
1771956751881706500,9.82570654296875,-0.01487140591740608,0.008296338376030325,-0.014394792248448356
1771956751901669400,9.84566943359375,-0.018017887249588964,-0.0011105915904045104,-0.006160221396479755
1771956751921632500,9.865632568359375,-0.01921323451399803,0.0003413242509588599,0.0008660331116523593
1771956751941595600,9.885595703125,-0.0204126734316349,0.012483962791599332,-0.0029081151321996
1771956751961558500,9.90555859375,-0.013383797708153724,-0.012108955466747283,0.016146759615465998
1771956751981521700,9.925521728515625,-0.029543489870429037,0.0028379268396645785,-0.011120757280150427
1771956752001484500,9.945484619140625,-0.01278524729311466,-0.002488236619159579,-0.0011719572556670753
1771956752021447700,9.96544775390625,-0.03987082261741161,0.0024831220526248215,-0.012381625795131548
1771956752041411600,9.98541162109375,-0.016678747600317,-0.013437427591532467,-0.018335821491805834
1771956752061374700,10.005374755859375,-0.03941898719668388,0.0013927330000326036,-0.017423364555696024
1771956752081337300,10.02533740234375,-0.010994272223114967,-0.002951360618881881,-0.012380237555643542
1771956752101300500,10.045300537109375,-0.010704349365830422,-0.00019895663820207118,-0.001297163671068847
1771956752121263600,10.065263671875,-0.010554711762070654,0.019857889093086122,0.0072553414231166236
1771956752141226500,10.0852265625,-0.016841829207539558,0.009943411463312804,0.006911140228481963
1771956752161189600,10.105189697265626,-0.017587094616889953,-0.0018875307796522975,-0.003003127338737249
1771956752181152500,10.125152587890625,-0.027753683844208715,0.006114829618483781,0.0005097030878067016
1771956752201115600,10.14511572265625,-0.021912556600570676,-0.008675218158401549,0.014217124993447213
1771956752221079600,10.16507958984375,-0.009187515062093735,0.006887604089267551,0.011902482242370024
1771956752241042700,10.185042724609374,-0.012627426382899284,-0.00863053876645863,0.021648772831540552
1771956752261005600,10.205005615234375,-0.013968319597840308,-0.00476443792283535,-0.004944616795331239
1771956752280968700,10.22496875,-0.025784429597854614,0.01241528146956116,-0.006387088954914361
1771956752300931300,10.244931396484375,-0.01846037032008171,-0.00348966874666512,0.0013600089073646812
1771956752320894500,10.26489453125,-0.012913257586956023,-0.0030079496443271635,-0.018209802225651217
1771956752340857600,10.284857666015625,-0.030571663874387738,-0.00002699760477989912,0.010031564670801163
1771956752360820500,10.304820556640625,-0.013056465449929236,-0.005151720207370817,-0.012344673051917925
1771956752380783600,10.32478369140625,-0.031764088529348374,-0.007671740204282105,0.00787213988089934
1771956752400747500,10.34474755859375,-0.01201367839872837,0.005091770181059837,0.005947985151596367
1771956752420710700,10.364710693359376,-0.021440847435593605,0.01580821184348315,0.0018888002881314605
1771956752440673500,10.384673583984375,-0.01156184297800064,0.014547909584082662,0.00199097288781777
1771956752460636700,10.40463671875,-0.018147651109099387,-0.009266352451965212,0.0023164511156734077
1771956752480599600,10.424599609375,-0.022041735938191413,-0.00414882677514106,0.01664874518769793
1771956752500562700,10.444562744140624,-0.013508300870656966,-0.000056260231882333755,0.018370883672032504
1771956752520525600,10.464525634765625,-0.015597966626286507,0.002010536104813218,0.0037665403261315077
1771956752540488400,10.484488525390624,-0.030409751310944557,0.006024995910562574,0.0012379808297380804
1771956752560451600,10.50445166015625,-0.031157354807853695,0.010962488845363258,0.004201744272466749
1771956752580415500,10.52441552734375,-0.011717325800657272,-0.00927059023566544,-0.0020266469893977044
1771956752600378600,10.544378662109375,-0.017404723787307737,-0.004117408723570406,-0.019316201698128133
1771956752620341200,10.56434130859375,-0.006185410636663437,-0.008735679641366005,-0.00891499086418189
1771956752640304400,10.584304443359375,0.000848141261935234,0.004707848897390067,0.005751028674235567
1771956752660267300,10.604267333984374,-0.015469956332445144,-0.005991714695468544,-0.008162364132283256
1771956752680230400,10.62423046875,-0.04448796102404594,0.0022150457009673117,-0.004465747237205505
1771956752700193300,10.644193359375,-0.024729952108860014,-0.004834142158180475,-0.010643029366340487
1771956752720156400,10.664156494140625,-0.026081951239705085,-0.0014736162165179848,0.0005503912912216037
1771956752740119600,10.68411962890625,-0.008123685222864151,-0.011212225822731852,-0.0031095377221237864
1771956752760083500,10.70408349609375,-0.13524901292324065,0.06370353362560272,-0.07042645780560561
1771956752780046300,10.72404638671875,0.2571908005058765,-0.07317308049947023,0.04843044243897311
1771956752800009500,10.744009521484376,-0.45574762573540206,-0.04736936167925596,-0.011107322409842163
1771956752819972400,10.763972412109375,0.12054361122250556,-0.030624855366349218,0.010361618609074502
