time,seconds_elapsed,z,y,x
1771956781541010700,0.0810107421875,0.002141429577022791,-0.0007114177569746971,-0.005755031947046518
1771956781560973800,0.100973876953125,-0.0014354242011904716,-0.002055846620351076,-0.0011252791155129671
1771956781580937000,0.12093701171875,0.002386754844337702,-0.0022325762547552586,-0.0009338470408692956
1771956781600899800,0.14089990234375,-0.0012264726683497429,0.003531042952090502,0.0033942447043955326
1771956781620863000,0.160863037109375,-0.0015470045618712902,0.00890476256608963,0.007937142625451088
1771956781640826000,0.180826171875,-0.0002890941686928272,0.01242348738014698,0.008910122327506542
1771956781660788700,0.200788818359375,-0.001093052327632904,0.003802951890975237,0.0026509566232562065
1771956781680751900,0.220751953125,0.0005969149060547352,-0.012821434065699577,-0.010465339757502079
1771956781700714800,0.24071484375,0.0008110844064503908,-0.011942476034164429,-0.008806660771369934
1771956781720678000,0.260677978515625,-0.00198604678735137,-0.00098081910982728,-0.007234012242406607
1771956781740640800,0.280640869140625,0.00018780166283249855,0.00021115876734256744,-0.004437336698174477
1771956781760605000,0.30060498046875,-0.00019454117864370346,0.0021779565140604973,0.0028852010145783424
1771956781780567800,0.32056787109375,-0.00018932996317744255,0.00044762901961803436,0.0036289470735937357
1771956781800531000,0.340531005859375,0.00012012803927063942,0.005953182466328144,0.000730894913431257
1771956781820493800,0.360493896484375,0.00018821517005562782,-0.0021510571241378784,-0.0002432014443911612
1771956781840457000,0.38045703125,0.0005556684918701649,0.0003720661625266075,0.003013032954186201
1771956781860420000,0.400420166015625,-0.001235875766724348,0.003067517653107643,0.0032195798121392727
1771956781880382700,0.4203828125,0.0012381765991449356,0.008420716971158981,0.0009013991220854223
1771956781900345900,0.440345947265625,0.0009509858209639788,0.004192526917904615,-0.000804215669631958
1771956781920308700,0.460308837890625,0.00032337987795472145,-0.0019150106236338615,-0.0013431129045784473
1771956781940271900,0.48027197265625,0.0010517153423279524,-0.00045473454520106316,-0.0024321931414306164
1771956781960235000,0.500235107421875,-0.0010185115970671177,-0.00361796747893095,-0.0030803317204117775
1771956781980198000,0.520197998046875,-0.0014531146734952927,-0.0034656133502721786,-0.0032428852282464504
1771956782000161000,0.5401611328125,-0.0014837146736681461,-0.00021440675482153893,-0.0030467112082988024
1771956782020124000,0.5601240234375,-0.0009531117975711823,0.0014592795632779598,-0.0005429466255009174
1771956782040087000,0.580087158203125,0.0015583112835884094,0.0033759111538529396,0.0007561561069451272
1771956782060049700,0.600049560546875,-0.0019900472834706306,0.0015204213559627533,-0.0011457597138360143
1771956782080012800,0.6200126953125,0.0001906394027173519,0.0018122782930731773,0.002657678909599781
1771956782099976000,0.639975830078125,-0.00026103993877768517,-0.00009190104901790619,0.0022945248056203127
1771956782119938800,0.659938720703125,-0.0013563325628638268,0.0024842889979481697,0.005792914889752865
1771956782139902000,0.67990185546875,0.0007965518161654472,-0.00043090200051665306,0.0009031885419972241
1771956782159864800,0.69986474609375,-0.0003089848905801773,0.0018157856538891792,-0.0034982305951416492
1771956782179828000,0.719827880859375,-0.0003555719740688801,0.0012908773496747017,-0.0043041035532951355
1771956782199790800,0.739790771484375,-0.00029635149985551834,-0.0009274003095924854,-0.0013293910305947065
1771956782219754000,0.75975390625,0.0009098455775529146,-0.0017993845976889133,-0.0014424616238102317
1771956782239716900,0.779716796875,-0.00014533475041389465,-0.0016083703376352787,0.0016757198609411716
1771956782259679700,0.7996796875,-0.001013842411339283,-0.0007582241669297218,0.00005560519639402628
1771956782279643000,0.819642822265625,0.0012894503306597471,-0.0008966433815658092,-0.0005365293473005295
1771956782299605800,0.839605712890625,0.000663133105263114,0.0003162091597914696,-0.0005134503007866442
1771956782319569000,0.85956884765625,-0.0006895903497934341,0.004612456075847149,0.0007527584675699472
1771956782339532800,0.87953271484375,-0.0004509720019996166,0.0014826892875134945,0.0026663404423743486
1771956782359496000,0.899495849609375,0.00035536126233637333,-0.000462354626506567,0.0037276488728821278
1771956782379458800,0.919458740234375,0.00010988814756274223,0.00007614865899085999,0.003756522433832288
1771956782399422000,0.939421875,-0.0008264626376330853,0.00022848136723041534,0.00040706497384235263
1771956782419384800,0.959384765625,0.00017242226749658585,-0.0005565322935581207,-0.006434810347855091
1771956782439348000,0.979347900390625,0.0004944568499922752,0.0005362075753509998,-0.0031261120457202196
1771956782459310800,0.999310791015625,-0.0009898198768496513,0.0002480284310877323,-0.0015466792974621058
1771956782479273700,1.019273681640625,-0.0017612222582101822,0.001104234717786312,0.0016387274954468012
1771956782499236900,1.03923681640625,-0.0006039994768798351,-0.0016300072893500328,0.0015852861106395721
1771956782519199700,1.05919970703125,-0.000987720675766468,-0.0011291373521089554,0.0013252866920083761
1771956782539163000,1.079162841796875,0.0005229711532592773,0.002404460683465004,0.00009416928514838219
1771956782559125500,1.09912548828125,-0.002568227704614401,0.0005106809549033642,-0.000027726113330572844
1771956782579088400,1.11908837890625,0.002448671031743288,0.0005814153701066971,0.0020929984748363495
1771956782599051500,1.139051513671875,0.001174883684143424,0.001858993899077177,0.003256496973335743
1771956782619014400,1.159014404296875,0.002372278831899166,-0.0000853496603667736,0.002110283123329282
1771956782638977300,1.178977294921875,0.0015609438996762037,-0.0023948275484144688,-0.00037074123974889517
1771956782658940400,1.1989404296875,-0.0014733257703483105,-0.0010924055241048336,-0.00009913742542266846
1771956782678903300,1.2189033203125,-0.000449394341558218,-0.0014701979234814644,-0.002683595521375537
1771956782698866400,1.238866455078125,0.0005590510554611683,-0.0008683647029101849,-0.001197350095026195
1771956782718829300,1.258829345703125,0.001985062612220645,0.0015030400827527046,-0.0006928309448994696
1771956782738792400,1.27879248046875,-0.00001701386645436287,0.0001058606430888176,0.0011609438806772232
1771956782758755300,1.29875537109375,0.0007302328012883663,-0.0029571959748864174,-0.00020485196728259325
1771956782778718500,1.318718505859375,-0.0020696124993264675,0.0005661663599312305,0.002694797934964299
1771956782798681600,1.338681640625,-0.0015594270080327988,-0.00025768624618649483,0.002602158347144723
1771956782818644200,1.358644287109375,-0.0017919577658176422,0.002543034963309765,-0.00039428018499165773
1771956782838607400,1.378607421875,0.00017601624131202698,0.003431042656302452,-0.0014695250429213047
1771956782858570200,1.3985703125,0.0008211852982640266,0.00045382604002952576,0.000008986913599073887
1771956782878533400,1.418533447265625,0.000826279865577817,0.000039196107536554337,0.0017925938591361046
1771956782898496500,1.43849658203125,-0.0013247141614556313,-0.0009505040943622589,-0.0011247077491134405
1771956782918459400,1.45845947265625,-0.0009654741734266281,-0.0024268156848847866,0.0016208328306674957
1771956782938422500,1.478422607421875,0.000648431247100234,-0.00015010172501206398,-0.002523692324757576
1771956782958385400,1.498385498046875,0.0008535624947398901,-0.0004983977414667606,-0.001964174909517169
1771956782978349600,1.518349609375,0.0003391783684492111,0.0023840605281293392,0.00044457922922447324
1771956782998312400,1.5383125,0.0017346744425594807,0.004499965813010931,-0.0006611522985622287
1771956783018275600,1.558275634765625,-0.00012878980487585068,0.00013150833547115326,-0.00039779162034392357
1771956783038238200,1.57823828125,-0.0012818477116525173,0.00024016434326767921,-0.00037950632395222783
1771956783058201300,1.598201416015625,-0.0005378373898565769,0.0009111459366977215,-0.0007879963959567249
1771956783078164200,1.618164306640625,-0.0007282155565917492,0.0006162682548165321,0.0014012358151376247
1771956783098127400,1.63812744140625,0.000007846858352422714,0.0008214488625526428,-0.00016380904708057642
1771956783118090500,1.658090576171875,0.0005244053900241852,0.0021626166999340057,-0.0006401156424544752
1771956783138053400,1.678053466796875,-0.00032375985756516457,-0.0022805104963481426,0.0009004793828353286
1771956783158016500,1.6980166015625,0.0021043382585048676,-0.004055331461131573,0.002408751752227545
1771956783177979400,1.7179794921875,0.00020416546612977982,-0.0021902951411902905,0.0006305333226919174
1771956783197942500,1.737942626953125,0.00042421044781804085,-0.0009722351096570492,-0.00018850009655579925
1771956783217905400,1.757905517578125,-0.0008230111561715603,0.001966342329978943,-0.0006231409497559071
1771956783237868300,1.777868408203125,0.0006123583298176527,0.0007324372418224812,0.0015052936505526304
1771956783257831400,1.79783154296875,0.001170966075733304,0.0031202048994600773,0.0017460825620219111
1771956783277794300,1.817794189453125,-0.0006933482363820076,-0.0003238641656935215,-0.0006114639109000564
1771956783297757400,1.83775732421875,-0.0013560927473008633,-0.0017880089581012726,0.0017001366941258311
1771956783317720300,1.85772021484375,0.0002625216729938984,-0.0009693605825304985,-0.0015790832694619894
1771956783337683500,1.877683349609375,-0.0002997289411723614,-0.00042341509833931923,0.0004932170268148184
1771956783357646600,1.897646484375,0.0014361937064677477,0.0012670326977968216,-0.0014770032139495015
1771956783377609500,1.917609375,0.002129375236108899,0.0014346637763082981,0.0012448899215087295
1771956783397572400,1.937572265625,-0.0012171179987490177,-0.0005841958336532116,0.000022234395146369934
1771956783417535200,1.95753515625,0.0011797421611845493,-0.0010354872792959213,0.0006903336616232991
1771956783437498400,1.977498291015625,-0.0013803993351757526,-0.0016652792692184448,0.0009365997975692153
1771956783457461200,1.997461181640625,-0.00006383191794157028,-0.0035856403410434723,0.001502318773418665
1771956783477424400,2.01742431640625,-0.0008108858019113541,0.0009074602276086807,-0.0023226134944707155
1771956783497387500,2.037387451171875,0.000626617344096303,0.0029978007078170776,-0.002472957130521536
1771956783517350400,2.057350341796875,-0.0003420598804950714,0.00507411127910018,0.0027005949523299932
1771956783537314300,2.077314208984375,-0.0010457090102136135,-0.00003123283386230469,0.0013513945741578937
1771956783557278200,2.0972783203125,0.0013492587022483349,-0.003601401811465621,0.00013314350508153439
1771956783577240800,2.11724072265625,-0.00009247614070773125,-0.0015808222815394402,0.0013117404887452722
1771956783597204000,2.137203857421875,-0.0010526827536523342,-0.0012479466386139393,-0.001300696050748229
1771956783617167000,2.1571669921875,-0.0008298465982079506,0.002529734745621681,-0.0008742377976886928
1771956783637130000,2.1771298828125,-0.002077920828014612,0.0013395929709076881,0.0004003058420494199
1771956783657093000,2.197093017578125,-0.000452450942248106,0.002727086190134287,0.0004554302431643009
1771956783677056000,2.217055908203125,0.0021888595074415207,0.00022834306582808495,0.00042360660154372454
1771956783697019100,2.23701904296875,-0.00028202077373862267,-0.0019094259478151798,0.0006820512935519218
1771956783716982000,2.25698193359375,-0.001942422240972519,-0.004534037783741951,0.0023391395807266235
1771956783736945200,2.276945068359375,-0.0013196640647947788,0.0002738870680332184,-0.0007009746041148901
1771956783756908000,2.296907958984375,-0.0006411517970263958,0.0035094409249722958,-0.0007041384815238416
1771956783776871000,2.316870849609375,0.0005698741879314184,0.0015052324160933495,0.0010939246276393533
1771956783796834000,2.336833984375,0.0010024604853242636,0.0001281052827835083,0.0005275120493024588
1771956783816797000,2.356796875,-0.0005807825364172459,-0.0015449603088200092,0.0008829236030578613
1771956783836760000,2.376760009765625,-0.0020716432482004166,-0.0005538002587854862,0.002031962852925062
1771956783856723000,2.396722900390625,0.0007176212966442108,-0.0023710145615041256,-0.00018872879445552826
1771956783876686000,2.41668603515625,0.00016017723828554153,-0.00003552250564098358,-0.0008501224219799042
1771956783896649200,2.436649169921875,0.0007147763390094042,0.0007113129831850529,-0.0014836775371804833
1771956783916612000,2.456612060546875,-0.0006002266891300678,0.003409693483263254,-0.0002915663062594831
1771956783936575000,2.476574951171875,0.00009738421067595482,-0.0008685882203280926,-0.0002977923140861094
1771956783956537900,2.496537841796875,0.001782420789822936,-0.00014365604147315025,-0.0004164564306847751
1771956783976501000,2.5165009765625,0.0002479748800396919,-0.003269207663834095,0.000059942714869976044
1771956783996464000,2.536464111328125,-0.0010539763607084751,0.0005979249253869057,-0.0004139262600801885
1771956784016427000,2.556427001953125,-0.0017455648630857468,0.002573790494352579,-0.003539618104696274
1771956784036390100,2.57639013671875,0.00010786624625325203,0.003536844626069069,-0.003654640633612871
1771956784056353000,2.59635302734375,0.0013904308434575796,0.002258400432765484,0.0015362895792350173
1771956784076316200,2.616316162109375,-0.0006250194273889065,0.001238304190337658,0.00045653292909264565
1771956784096279000,2.636279052734375,0.000722609693184495,-0.0008704522624611855,0.0017136873211711645
1771956784116243200,2.6562431640625,-0.0010416149161756039,-0.0015896763652563095,-0.0004850742989219725
1771956784136206000,2.6762060546875,-0.0011548977345228195,0.0011649858206510544,-0.002647543326020241
1771956784156169000,2.6961689453125,-0.00034157466143369675,0.002976684831082821,0.0015935479896143079
1771956784176131800,2.7161318359375,-0.0006192531436681747,-0.001056034117937088,-0.0013815902639180422
1771956784196095000,2.736094970703125,-0.0016614212654531002,0.0010341750457882881,0.0009069014340639114
1771956784216058000,2.75605810546875,0.003171422053128481,0.00018113525584340096,0.0010368040530011058
1771956784236021000,2.77602099609375,-0.000850004144012928,-0.002580407075583935,-0.0018124888883903623
1771956784255984000,2.795984130859375,0.0010080758947879076,-0.0009625167585909367,0.0008356480393558741
1771956784275947000,2.815947021484375,-0.0022124415263533592,-0.0008635460399091244,-0.0009688157588243484
1771956784295910100,2.83591015625,-0.00024888571351766586,0.0016264277510344982,-0.0017127071041613817
1771956784315873000,2.855873046875,0.0004467037506401539,0.0013853143900632858,-0.0022607562132179737
1771956784335836000,2.8758359375,-0.0006855628453195095,-0.00024378066882491112,0.0004728250205516815
1771956784355799000,2.895799072265625,0.0018937105778604746,-0.0011293645948171616,-0.0003204846289008856
1771956784375762000,2.915761962890625,-0.000825006514787674,-0.0027827760204672813,0.0006267467979341745
1771956784395725000,2.93572509765625,-0.0016667651943862438,0.0012926338240504265,0.00039352569729089737
1771956784415688000,2.95568798828125,-0.0013860836625099182,0.0026453156024217606,-0.001371409511193633
1771956784435651000,2.975651123046875,-0.00011673662811517715,0.003433266654610634,-0.002686689840629697
1771956784455614200,2.9956142578125,0.0004058205522596836,0.0005072141066193581,-0.0008696217555552721
1771956784475577000,3.0155771484375,-0.001150625292211771,-0.0013506906107068062,-0.0007824007188901305
1771956784495540200,3.035540283203125,0.0005191774107515812,-0.0008007306605577469,0.001191651914268732
1771956784515503000,3.055503173828125,0.0004886770620942116,-0.000827261246740818,0.0023226910270750523
1771956784535466000,3.075466064453125,0.0003516972064971924,-0.0003933906555175781,-0.0012172056594863534
1771956784555428900,3.095428955078125,-0.0008659418672323227,0.0017899619415402412,0.0004921328509226441
1771956784575391500,3.1153916015625,-0.0017100367695093155,0.0013877442106604576,-0.0020254766568541527
1771956784595354600,3.135354736328125,0.0008855564519762993,0.0020428248681128025,0.000864687841385603
1771956784615317500,3.1553173828125,0.00027145398780703545,-0.00244689779356122,0.001050117309205234
1771956784635280600,3.17528076171875,0.0004133374895900488,-0.0001052170991897583,0.0010362720349803567
1771956784655243500,3.195243408203125,-0.0017701704055070877,-0.0009500752203166485,0.0008079307153820992
1771956784675206700,3.21520654296875,-0.0005393302999436855,0.0009944471530616283,0.0003499299054965377
1771956784695170600,3.235170654296875,-0.000457054004073143,0.002614250872284174,0.00026838667690753937
1771956784715133700,3.2551337890625,-0.00018010754138231277,0.0013020304031670094,-0.0010835992870852351
1771956784735096600,3.2750966796875,0.00043003843165934086,-0.002422469202429056,0.00019635644275695086
1771956784755059700,3.295059814453125,-0.0008125929161906242,0.0008129398338496685,-0.0025245663709938526
1771956784775022800,3.31502294921875,-0.00044179195538163185,-0.002902194857597351,0.0015159338945522904
1771956784794985500,3.3349853515625,-0.000205265823751688,0.0015239138156175613,0.002200692892074585
1771956784814948600,3.354948486328125,0.0005648930091410875,0.0033430461771786213,0.0003635105676949024
1771956784834911500,3.374911376953125,0.0011903431732207537,0.0011220942251384258,-0.0021058525890111923
1771956784854874600,3.39487451171875,-0.00170566001906991,0.0009178547188639641,0.0014348941622301936
1771956784874837800,3.414837646484375,0.0012293180916458368,-0.0016778390854597092,0.0007407795637845993
1771956784894800600,3.434800537109375,0.00007763272151350975,-0.0028061927296221256,0.00155900907702744
1771956784914763800,3.454763671875,-0.0002699233591556549,-0.00040771160274744034,0.0012781425612047315
1771956784934726700,3.4747265625,-0.0003863205201923847,0.000024339649826288223,-0.00014301686314865947
1771956784954689800,3.494689697265625,0.00023917155340313911,0.002757853362709284,-0.0014325568918138742
1771956784974652400,3.51465234375,0.002282233675941825,0.002503299620002508,-0.0005436773062683642
1771956784994615600,3.534615478515625,0.00019584340043365955,0.0022878055460751057,0.0015326195862144232
1771956785014578700,3.55457861328125,-0.0017090830951929092,-0.0015447493642568588,-0.0015494658146053553
1771956785034541600,3.57454150390625,-0.0003757667727768421,-0.0019963113591074944,0.002363449428230524
1771956785054504700,3.594504638671875,-0.0016503259539604187,0.001659962348639965,-0.003101716749370098
1771956785074467600,3.614467529296875,-0.0010549062862992287,0.0014008861035108566,0.0014124944573268294
1771956785094430700,3.6344306640625,0.00008568074554204941,0.0016667568124830723,0.0012155836448073387
1771956785114393600,3.6543935546875,0.0005111556965857744,0.0025429814122617245,0.000416562776081264
1771956785134356700,3.674356689453125,0.0009290410671383142,-0.0014233547262847424,0.00024358055088669062
1771956785154319600,3.694319580078125,-0.0005779657512903214,0.0003459625877439976,-0.00037962570786476135
1771956785174282500,3.714282470703125,0.0014894665218889713,-0.0008233245462179184,0.003816058859229088
1771956785194245600,3.73424560546875,-0.0012946520000696182,-0.002210073173046112,0.0015582024352625012
1771956785214208500,3.75420849609375,0.0013702595606446266,0.0011525647714734077,0.0013632029294967651
1771956785234171600,3.774171630859375,-0.0007764496840536594,0.002648363821208477,-0.0005744851659983397
1771956785254134500,3.794134521484375,-0.0003197011537849903,0.001302966382354498,0.0008115718374028802
1771956785274098700,3.8140986328125,-0.00046066194772720337,-0.0008369362913072109,0.0017043071566149592
1771956785294061600,3.8340615234375,0.0007574716582894325,-0.0032373392023146152,0.0037148583214730024
1771956785314024700,3.854024658203125,0.00023894896730780602,-0.0007994375191628933,0.0017070320900529623
1771956785333987800,3.87398779296875,-0.0023052729666233063,0.0021927356719970703,-0.0023731717374175787
1771956785353950700,3.89395068359375,0.0018742464017122984,-0.0005321628414094448,-0.00045724358642473817
1771956785373913600,3.91391357421875,0.0008671395480632782,0.0023024030961096287,0.0014272663975134492
1771956785393876500,3.93387646484375,0.0009826554451137781,0.0007689846679568291,0.0016376785933971405
1771956785413839600,3.953839599609375,0.0010400507599115372,-0.0021488042548298836,0.00023088371381163597
1771956785433802500,3.973802490234375,-0.0004421370103955269,-0.0007732785306870937,0.002693787682801485
1771956785453765600,3.993765625,-0.0006081815809011459,-0.0032837996259331703,0.001291312975808978
1771956785473728800,4.013728759765625,-0.001504022628068924,0.0017638872377574444,0.0016238680109381676
1771956785493691600,4.033691650390625,-0.0001311730593442917,0.001908943522721529,-0.002817742992192507
1771956785513654800,4.05365478515625,0.0006965685170143843,0.0024809129536151886,-0.0008249602396972477
1771956785533617700,4.07361767578125,0.0004832618869841099,-0.0005606836639344692,0.0009097820147871971
1771956785553581300,4.093581298828125,0.0001295553520321846,-0.00280586164444685,0.0008989160414785147
1771956785573544000,4.1135439453125,-0.001214318908751011,-0.003653531661257148,0.0033237598836421967
1771956785593507000,4.133507080078125,0.0011436704080551863,-0.002722043078392744,-0.001140470034442842
1771956785613470000,4.153469970703125,-0.0009011165238916874,0.0020149494521319866,-0.0008715267176739872
1771956785633433000,4.17343310546875,-0.0002642925828695297,-0.000004631467163562775,0.00023109803441911936
1771956785653396200,4.193396240234375,0.0009281677193939686,0.0012001707218587399,0.00048732606228441
1771956785673359000,4.213359130859375,-0.00021593645215034485,-0.0038313085678964853,0.0011675433488562703
1771956785693322200,4.233322265625,-0.0008570901118218899,-0.0011777915060520172,0.001640251255594194
1771956785713285000,4.25328515625,0.002203259849920869,-0.00024343514814972878,0.000009601353667676449
1771956785733248300,4.273248291015625,-0.0007261880673468113,0.0023232814855873585,0.00004097621422261
1771956785753211100,4.293211181640625,-0.0015677288174629211,0.0017137597315013409,0.00038414064329117537
1771956785773174000,4.313174072265625,0.0006052418611943722,0.0030911536887288094,-0.0004493792657740414
1771956785793137200,4.33313720703125,0.0015101772733032703,0.0009232237935066223,0.00021173700224608183
1771956785813100000,4.35310009765625,-0.0009533073753118515,0.0012932117097079754,-0.0011308192042633891
1771956785833063200,4.373063232421875,0.00010592816397547722,-0.00547636765986681,-0.0017938779201358557
1771956785853026000,4.393026123046875,0.0018394622020423412,-0.0014949389733374119,0.0014433914329856634
1771956785872990200,4.412990234375,-0.000308917835354805,0.00024895137175917625,-0.000035395845770835876
1771956785892953000,4.432953125,-0.0016210014000535011,0.0010031331330537796,-0.0006618853658437729
1771956785912916200,4.452916259765625,-0.00028759101405739784,0.0008526262827217579,0.001197732868604362
1771956785932879000,4.472879150390625,0.00036400649696588516,0.0014022979885339737,-0.0018557365983724594
1771956785952842200,4.49284228515625,-0.0026654000394046307,-0.0022245128639042377,0.0028831912204623222
1771956785972805000,4.51280517578125,-0.0008891597390174866,-0.0016018147580325603,0.0005270790425129235
1771956785992768000,4.53276806640625,-0.00008435174822807312,0.00017434265464544296,0.0002562087611295283
1771956786012731100,4.552731201171875,-0.0005963644944131374,0.0021014027297496796,0.00013817654689773917
1771956786032694000,4.572694091796875,-0.0020521776750683784,0.0027273520827293396,-0.0011626132763922215
1771956786052657200,4.5926572265625,0.000019799917936325073,0.002459270879626274,0.0022202543914318085
1771956786072620000,4.6126201171875,0.00012630829587578773,-0.0007114955224096775,0.00007369538070634007
1771956786092583200,4.632583251953125,-0.0015891436487436295,-0.0012837653048336506,-0.002492982894182205
1771956786112546300,4.65254638671875,-0.0014140955172479153,-0.0037421395536512136,-0.00009745720308274031
1771956786132509200,4.67250927734375,0.0014633224345743656,0.00018584635108709335,0.0005990968202240765
1771956786152472000,4.69247216796875,-0.0024726404808461666,0.0011705728247761726,-0.0016303325537592173
1771956786172435000,4.71243505859375,0.0006708512082695961,0.000864480622112751,0.000022556749172508717
1771956786192398000,4.732398193359375,-0.00012098206207156181,-0.00047841574996709824,0.00041980756213888526
1771956786212361200,4.752361328125,-0.0023363041691482067,-0.0024176640436053276,-0.0002435921924188733
1771956786232324000,4.772323974609375,-0.002326731104403734,-0.0015326505526900291,0.000029529444873332977
1771956786252287200,4.792287353515625,-0.0013177762739360332,-0.0038310035597532988,0.0003018610877916217
1771956786272250000,4.81225,0.00016676215454936028,0.001425769180059433,-0.00039026286685839295
1771956786292213200,4.832213134765625,0.0011230772361159325,0.0015527121722698212,0.0008927859598770738
1771956786312176000,4.852176025390625,-0.0003696116618812084,-0.00041206367313861847,0.0008047424489632249
1771956786332139300,4.87213916015625,0.00017309514805674553,-0.000769962090998888,-0.002286948263645172
1771956786352102100,4.89210205078125,-0.002686970867216587,-0.0002935226075351238,-0.0004099960788153112
1771956786372065000,4.91206494140625,0.0022842923644930124,-0.001601827796548605,0.00009869446512311697
1771956786392028200,4.932028076171875,-0.0014787805266678333,-0.0009893854148685932,0.0008899189415387809
1771956786411991000,4.951990966796875,0.0010018160101026297,-0.0005418187938630581,-0.0005873047048225999
1771956786431954200,4.9719541015625,-0.00080118328332901,0.00004899129271507263,-0.0022236709482967854
1771956786451917000,4.9919169921875,0.001206154003739357,-0.0008445172570645809,0.00028307002503424883
1771956786471880200,5.011880126953125,-0.0012348913587629795,-0.0009109093807637691,-0.0014648258220404387
1771956786491843300,5.03184326171875,0.0006348798051476479,-0.0007233577780425549,0.002636048709973693
1771956786511807200,5.05180712890625,-0.0010339575819671154,-0.003732462180778384,-0.00011302332859486341
1771956786531770000,5.07177001953125,0.0006427960470318794,0.0018873605877161026,-0.0012088811490684748
1771956786551733000,5.09173291015625,0.0009195785969495773,-0.0015955413691699505,-0.0002844162518158555
1771956786571696000,5.111696044921875,-0.0011720596812665462,0.002989401575177908,-0.001455654390156269
1771956786591658800,5.13165869140625,0.00190260773524642,0.002524084411561489,0.0009534858982078731
1771956786611622000,5.151621826171875,-0.00222158245742321,-0.00009773252531886101,0.0006349305040203035
1771956786631584800,5.171584716796875,-0.00009228801354765892,-0.002949886955320835,0.0024553488474339247
1771956786651548000,5.1915478515625,0.0010034118313342333,0.0008081896230578423,-0.0008858728688210249
1771956786671511000,5.211510986328125,-0.001902319025248289,0.0000420217402279377,-0.0010070368880406022
1771956786691474000,5.231473876953125,0.0006301985122263432,-0.0010699229314923286,-0.0002252425765618682
1771956786711437000,5.25143701171875,-0.00022557424381375313,0.002652740105986595,-0.0011149882338941097
1771956786731400000,5.27139990234375,-0.00029647955670952797,-0.0013537677004933357,-0.0005600377917289734
1771956786751363000,5.291363037109375,0.002343263477087021,-0.0037381756119430065,0.00005294627044349909
1771956786771326000,5.311325927734375,-0.0027306796982884407,-0.0003203488886356354,0.0011946792947128415
1771956786791288800,5.331288818359375,-0.000840652734041214,-0.000020659063011407852,-0.0007862113998271525
1771956786811252000,5.351251953125,-0.0001323474571108818,0.0032112891785800457,-0.0008108185138553381
1771956786831214800,5.37121484375,0.0012576619628816843,0.003330015577375889,0.00008536007953807712
1771956786851178000,5.391177978515625,0.001067321514710784,-0.0008327537216246128,-0.000052543822675943375
1771956786871140900,5.411140869140625,-0.0014704586938023567,-0.0018055420368909836,0.0018440138082951307
1771956786891104000,5.43110400390625,0.0006531227845698595,-0.001347613986581564,0.0031417165882885456
1771956786911067100,5.451067138671875,-0.0007961881347000599,-0.0014826706610620022,-0.0009428241173736751
1771956786931030000,5.471030029296875,-0.0010080239735543728,0.0002965223975479603,0.0010743363527581096
1771956786950993000,5.490992919921875,-0.002235103864222765,0.0009765480645000935,-0.000551536912098527
1771956786970955800,5.510955810546875,0.0004375965800136328,-0.0011755535379052162,-0.00114807381760329
1771956786990919000,5.5309189453125,-0.0015307022258639336,-0.0010948171839118004,0.0011521801352500916
1771956787010881800,5.5508818359375,-0.0015333411283791065,-0.0025633173063397408,0.0007845491054467857
1771956787030845000,5.570844970703125,-0.0004324326291680336,0.0003440519794821739,0.0014910220634192228
1771956787050808000,5.59080810546875,-0.0015197927132248878,-0.00007323920726776123,-0.0018077152781188488
1771956787070771000,5.61077099609375,-0.0009165271185338497,0.0019388459622859955,-0.0013623684644699097
1771956787090734000,5.630734130859375,0.0020694155246019363,0.0005739657208323479,0.0027914894744753838
1771956787110697000,5.650697021484375,-0.00005482463166117668,0.001258049625903368,0.001438773237168789
1771956787130659800,5.670659912109375,-0.00031085871160030365,0.00039953039959073067,0.0006934552220627666
1771956787150622700,5.690622802734375,-0.001308542676270008,-0.0014882194809615612,0.001795853953808546
1771956787170587000,5.7105869140625,0.002345101907849312,0.0008114241063594818,0.0006126738153398037
1771956787190549800,5.7305498046875,-0.0012597758322954178,0.001261959783732891,-0.0014354439917951822
1771956787210513000,5.750512939453125,-0.00042579788714647293,0.0030803713016211987,-0.0003211335279047489
1771956787230475800,5.770475830078125,-0.0003022383898496628,0.0004960047081112862,0.0005517473327927291
1771956787250439000,5.79043896484375,0.0024179965257644653,-0.0015346617437899113,0.001801907317712903
1771956787270402000,5.810402099609375,-0.001682438887655735,-0.0006722845137119293,-0.00009229261195287108
1771956787290365000,5.830364990234375,0.00020053330808877945,-0.0027185697108507156,0.00214863452129066
1771956787310328000,5.850328125,-0.0010613221675157547,-0.0009243972599506378,0.00041867862455546856
1771956787330291000,5.870291015625,0.0004378922749310732,0.0010180878452956676,0.001667497679591179
1771956787350253800,5.89025390625,0.0006754649803042412,0.001616351306438446,-0.000330640294123441
1771956787370217000,5.910217041015625,-0.0008542672730982304,0.003365917131304741,-0.00213637575507164
1771956787390179800,5.930179931640625,0.00040521426126360893,0.0006374018266797066,-0.0005908581078983843
1771956787410143000,5.95014306640625,-0.0004117828793823719,-0.00006913440302014351,-0.0013135692570358515
1771956787430105900,5.97010595703125,-0.0005119452252984047,-0.0007505845278501511,-0.00007907021790742874
1771956787450069000,5.990069091796875,-0.0001979428343474865,-0.001899451483041048,0.0003608838305808604
1771956787470032000,6.010031982421875,0.0013839220628142357,0.0012430660426616669,-0.0017079294193536043
1771956787489995000,6.0299951171875,0.0010780245065689087,0.003198675811290741,-0.0018347593722864985
1771956787509958100,6.049958251953125,0.000974027905613184,-0.0008106809109449387,-0.0010629263706505299
1771956787529920800,6.069920654296875,-0.0009801811538636684,-0.0026560374535620213,0.0012230046559125185
1771956787549884000,6.0898837890625,0.000490610022097826,0.001191576011478901,-0.0007363426266238093
1771956787569846800,6.1098466796875,0.001357915112748742,-0.00038654962554574013,0.0007962487288750708
1771956787589809700,6.1298095703125,0.001262920442968607,0.00021822890266776085,-0.00040364410961046815
1771956787609772800,6.149772705078125,0.001015637768432498,-0.00029523856937885284,0.0015586256049573421
1771956787629735700,6.169735595703125,-0.0005214293487370014,0.0032692663371562958,-0.0011062794364988804
1771956787649698800,6.18969873046875,-0.0017946669831871986,0.0007418915629386902,0.0006126067019067705
1771956787669661700,6.20966162109375,0.0014307124074548483,-0.0015547983348369598,0.0020791084971278906
1771956787689624800,6.229624755859375,-0.00025609321892261505,-0.002310892567038536,0.00099843495991081
1771956787709587700,6.249587646484375,-0.0003916989080607891,-0.0008566561155021191,-0.0004823447670787573
1771956787729550800,6.26955078125,-0.001539889257401228,0.0030993144027888775,-0.0011381414951756597
1771956787749514000,6.289513916015625,0.0004476278554648161,0.0013253823854029179,0.0012741497484967113
1771956787769476600,6.3094765625,0.001337098190560937,0.003009280189871788,-0.00024455011589452624
1771956787789439700,6.329439697265625,-0.0016290955245494843,0.0023203063756227493,-0.0004310438525862992
1771956787809402600,6.349402587890625,-0.0000687669962644577,-0.0027019637636840343,-0.002597575541585684
1771956787829365800,6.36936572265625,-0.0009948727674782276,0.00006507057696580887,0.0002565104514360428
1771956787849328600,6.38932861328125,0.00036812969483435154,-0.0015141405165195465,0.0008637800347059965
1771956787869291800,6.409291748046875,-0.0001882561482489109,0.0019095814786851406,-0.001298770890571177
1771956787889255000,6.4292548828125,0.000764097087085247,0.0006586047820746899,-0.0013083340600132942
1771956787909218800,6.44921875,-0.0019467645324766636,0.0013610711321234703,-0.00036701903445646167
1771956787929181700,6.469181640625,-0.001795582938939333,-0.0013178256340324879,0.0002065011067315936
1771956787949144800,6.489144775390625,-0.00044670840725302696,-0.0037897732108831406,0.00016382313333451748
1771956787969108000,6.50910791015625,0.00002005603164434433,-0.0013727406039834023,-0.001107479794882238
1771956787989070600,6.529070556640625,-0.0012847287580370903,0.0000471784733235836,-0.00139949144795537
1771956788009033700,6.54903369140625,0.0005929097533226013,0.0016383938491344452,-0.001490940572693944
1771956788028996600,6.56899658203125,-0.0017060758545994759,0.0017517758533358574,0.0002370333531871438
1771956788048959700,6.588959716796875,-0.0007413593120872974,0.0008687376976013184,0.0008306753588840365
1771956788068923000,6.6089228515625,0.0006109024398028851,-0.0021691787987947464,0.00013405364006757736
1771956788088885800,6.6288857421875,-0.0009813928045332432,-0.0019002370536327362,0.0016842558979988098
1771956788108849000,6.648848876953125,-0.0004055504687130451,-0.000515238381922245,-0.0003401145222596824
1771956788128811800,6.668811767578125,0.000507033197209239,0.003500887658447027,-0.002515094354748726
1771956788148775000,6.68877490234375,-0.0008324799127876759,0.0030662338249385357,-0.0005853538168594241
1771956788168737500,6.708737548828125,-0.001570521853864193,0.0013461974449455738,-0.0002534080413170159
1771956788188700700,6.72870068359375,0.0006865933537483215,0.0004669441841542721,0.0013426138320937753
1771956788208663800,6.748663818359375,-0.00028878403827548027,-0.0022584241814911366,-0.0008562295697629452
1771956788228626700,6.768626708984375,-0.0026036901399493217,-0.0008560130372643471,-0.0033033383078873158
1771956788248589800,6.78858984375,-0.0021438486874103546,0.0022699590772390366,-0.0011196568375453353
1771956788268552700,6.808552734375,0.0008375602774322033,0.000711407046765089,-0.00025152420857921243
1771956788288515800,6.828515869140625,0.00030063441954553127,0.0031685112044215202,0.0013598412042483687
1771956788308478700,6.848478759765625,-0.0006720284000039101,0.0008341590873897076,0.0004592972691170871
1771956788328441900,6.86844189453125,-0.0005525704473257065,-0.0005693826824426651,-0.0007652475032955408
1771956788348404700,6.88840478515625,0.0000650966539978981,-0.00048705749213695526,0.002635265700519085
1771956788368367600,6.90836767578125,-0.0006941459141671658,-0.00006022118031978607,-0.0002352966694161296
1771956788388330800,6.928330810546875,0.00008681695908308029,0.0004611266776919365,-0.001007268438115716
1771956788408293600,6.948293701171875,0.001552729168906808,0.0024352706968784332,0.00018184015061706305
1771956788428256800,6.9682568359375,0.0016536596231162548,0.0014450806193053722,-0.0025841265451163054
1771956788448220000,6.988219970703125,-0.0006270250305533409,0.0018085562624037266,-0.0012192267458885908
1771956788468182800,7.008182861328125,0.000758524052798748,0.0012113843113183975,0.0019241373520344496
1771956788488146000,7.02814599609375,-0.00009847292676568031,-0.003380106296390295,0.0025256837252527475
1771956788508108800,7.04810888671875,0.0012329956516623497,-0.0020015393383800983,0.0011442402610555291
1771956788528071700,7.06807177734375,-0.0011781980283558369,0.002542659640312195,-0.0014972547069191933
1771956788548034600,7.08803466796875,0.0007908821571618319,0.002792761195451021,-0.002025838242843747
1771956788567997200,7.1079970703125,-0.00031429436057806015,0.0044730608351528645,0.00013511546421796083
1771956788587960300,7.127960205078125,-0.00004853168502449989,-0.00019902270287275314,-0.0011259550228714943
1771956788607923200,7.147923095703125,0.00016657356172800064,-0.0034204432740807533,0.0010691650677472353
1771956788627886300,7.16788623046875,0.0003093432169407606,-0.0005439086817204952,0.0015294384211301804
1771956788647849200,7.18784912109375,0.00008449750021100044,0.001346247736364603,0.0010919803753495216
1771956788667812400,7.207812255859375,-0.0005436320789158344,0.004234533291310072,-0.00031449401285499334
1771956788687775500,7.227775390625,0.0003372505307197571,0.0014367401599884033,-0.0009589795954525471
1771956788707738400,7.24773828125,0.00025584781542420387,-0.0006443792954087257,0.001335748704150319
1771956788727701200,7.267701171875,0.0006721364334225655,-0.0018613985739648342,0.0009983748896047473
1771956788747664100,7.2876640625,-0.0006989026442170143,-0.0015559978783130646,-0.00035485700936987996
1771956788767628300,7.307628173828125,-0.00018654298037290573,0.00004253489896655083,0.000579557497985661
1771956788787591200,7.327591064453125,0.0016123501118272543,0.0007746601477265358,-0.0015584297943860292
1771956788807554300,7.34755419921875,-0.0005342033691704273,0.004202374257147312,-0.000144213845487684
1771956788827517200,7.36751708984375,0.0019016368314623833,0.0016201874241232872,-0.000697452574968338
1771956788847480300,7.387480224609375,-0.0015602870844304562,0.001347232609987259,0.002292294055223465
1771956788867443200,7.407443115234375,-0.00023132050409913063,0.0005455426871776581,0.003154967911541462
1771956788887406300,7.42740625,-0.0011417376808822155,0.0013516619801521301,-0.002473114524036646
1771956788907369500,7.447369384765625,-0.0004824679344892502,-0.000608010683208704,-0.00013256061356514692
1771956788927332400,7.467332275390625,-0.0009537241421639919,0.0009562470950186253,0.0007110424339771271
1771956788947295200,7.487295166015625,-0.002248831558972597,0.004506286699324846,-0.0015358945820480585
1771956788967258000,7.507258056640625,-0.0023993579670786858,0.0007177917286753654,0.0012782851699739695
1771956788987221200,7.52722119140625,0.0002666329964995384,-0.0003476557321846485,0.0013580619124695659
1771956789007184400,7.547184326171875,0.0013067619875073433,-0.0011816839687526226,0.0003334523644298315
1771956789027147300,7.567147216796875,-0.0023550945334136486,-0.0011012735776603222,0.0012529663508757949
1771956789047110400,7.5871103515625,-0.0012826956808567047,-0.0005224486812949181,-0.001331535167992115
1771956789067073300,7.6070732421875,0.0005062809213995934,0.0022273515351116657,0.001327113714069128
1771956789087036400,7.627036376953125,-0.0004825843498110771,0.0030485037714242935,0.0003594935405999422
1771956789106999300,7.646999267578125,-0.00056080287322402,0.0035800226032733917,0.0008790283463895321
1771956789126962200,7.666962158203125,-0.0006082602776587009,-0.0010593035258352757,0.0021079769358038902
1771956789146925300,7.68692529296875,-0.0010548741556704044,-0.0016943993978202343,0.001162337837740779
1771956789166888200,7.70688818359375,0.0008633225224912167,-0.0033023194409906864,-0.000893689226359129
1771956789186851300,7.726851318359375,-0.001133904792368412,0.002292035147547722,-0.00002185226185247302
1771956789206814200,7.746814208984375,-0.0004390026442706585,0.004503826145082712,-0.00010429276153445244
1771956789226777300,7.76677734375,-0.0002421014942228794,0.0008724103681743145,-0.0005761003121733665
1771956789246740200,7.786740234375,-0.0002504358999431133,-0.0001933048479259014,-0.0022818774450570345
1771956789266703400,7.806703369140625,0.00014519179239869118,-0.0026767048984766006,0.002262595109641552
1771956789286666500,7.82666650390625,-0.0008575236424803734,-0.0042259106412529945,-0.000856600352562964
1771956789306629400,7.84662939453125,-0.0006225667893886566,-0.0009292829781770706,-0.0009434032835997641
1771956789326592300,7.86659228515625,0.00003776419907808304,0.0023922682739794254,-0.0004923249944113195
1771956789346555100,7.88655517578125,-0.0008849953301250935,0.0020449552685022354,0.0005809124559164047
1771956789366518300,7.906518310546875,0.00048473384231328964,0.0017419769428670406,-0.00006723619299009442
1771956789386481400,7.9264814453125,0.000759482616558671,-0.00007914938032627106,0.0013501789653673768
1771956789406444300,7.9464443359375,0.0013069414999336004,-0.0018795989453792572,-0.0003273070906288922
1771956789426407400,7.966407470703125,-0.00013289926573634148,-0.00030138297006487846,-0.0014846751000732183
1771956789446370300,7.986370361328125,-0.00042214710265398026,0.0008306899107992649,0.0027672818396240473
1771956789466333400,8.00633349609375,0.0018149013631045818,0.0026098592206835747,0.0005003277910873294
1771956789486296300,8.02629638671875,0.00282449834048748,0.0005840840749442577,0.0026644058525562286
1771956789506259200,8.04625927734375,0.0026688813231885433,0.0003497125580906868,-0.000034623779356479645
1771956789526222300,8.066222412109376,-0.0008933250792324543,-0.00021161744371056557,-0.00040208472637459636
1771956789546185200,8.086185302734375,0.00048310915008187294,-0.0015476280823349953,0.0010007277596741915
1771956789566148900,8.10614892578125,0.0005244105122983456,0.004310335963964462,0.0007867483654990792
1771956789586111700,8.12611181640625,0.0001268363557755947,0.0014041885733604431,-0.00011309335241094232
1771956789606075000,8.146074951171874,0.0012776274234056473,0.0024476898834109306,0.0004845317453145981
1771956789626037800,8.166037841796875,-0.0007733162492513657,0.00229574553668499,0.0011862488463521004
1771956789646001000,8.1860009765625,0.0004251808859407902,-0.0009541329927742481,0.0008317951578646898
1771956789665963800,8.2059638671875,0.0026903485413640738,-0.0021017645485699177,-0.00016858766321092844
1771956789685927000,8.225927001953124,-0.000817623920738697,-0.003073600120842457,-0.0013926323736086488
1771956789705889800,8.245889892578125,-0.0014529111795127392,-0.001136106438934803,-0.0010413192212581635
1771956789725852700,8.265852783203124,0.0000020223669707775116,0.003302440047264099,0.0014481090474873781
1771956789745816800,8.28581689453125,0.00022458098828792572,0.003621816635131836,-0.003578019328415394
1771956789765779700,8.30577978515625,0.0011671495158225298,-0.0004417840391397476,-0.0004042974906042218
1771956789785742800,8.325742919921876,0.0006940457969903946,-0.001568294595927,0.003754167817533016
1771956789805705700,8.345705810546875,-0.0010326872579753399,-0.002163438592106104,-0.0007676666136831045
1771956789825668900,8.3656689453125,0.0002696537412703037,-0.00020375335589051247,-0.0007582291727885604
1771956789845631700,8.3856318359375,-0.0017949366010725498,0.0014009904116392136,0.0004897997714579105
1771956789865595000,8.405594970703126,0.00047706300392746925,0.003380328416824341,-0.001150898402556777
1771956789885558000,8.42555810546875,0.0004458061885088682,0.0013774666003882885,-0.0010070353746414185
1771956789905521000,8.44552099609375,0.00011711940169334412,-0.0009302841499447823,0.00017057848162949085
1771956789925483800,8.46548388671875,0.0014400591608136892,-0.0018955618143081665,-0.00067751674214378
1771956789945446700,8.48544677734375,-0.0006657824851572514,-0.001045233104377985,-0.0007598368101753294
1771956789965409800,8.505409912109375,-0.0006738412193953991,-0.0016609332524240017,-0.0011599657591432333
1771956789985372700,8.52537255859375,0.0011463325936347246,0.0012749219313263893,0.0015228496631607413
1771956790005335800,8.545335693359375,0.0003515551798045635,-0.0005009048618376255,0.00023090740432962775
1771956790025299000,8.565298828125,0.0007054852321743965,0.0033895112574100494,-0.0008504780125804245
1771956790045261800,8.58526171875,0.0005270787514746189,-0.002470985520631075,0.0048920344561338425
1771956790065225000,8.605224853515624,-0.002015558071434498,-0.00007516937330365181,0.0004501204239204526
1771956790085187800,8.625187744140625,-0.0004979423247277737,-0.0003792569041252136,0.003338283859193325
1771956790105150700,8.645150634765624,0.00032954057678580284,-0.0004231231287121773,0.0013350032968446612
1771956790125113600,8.665113525390625,-0.00026360340416431427,0.004327012225985527,0.00012708816211670637
1771956790145076700,8.68507666015625,-0.0011837203055620193,0.0018971520476043224,0.00006625941023230553
1771956790165039900,8.705039794921875,-0.00008435267955064774,0.0012645930983126163,0.002377811586484313
1771956790185002800,8.725002685546874,0.0010176452342420816,-0.0017804387025535107,-0.00048434679047204554
1771956790204966000,8.7449658203125,0.00030104443430900574,-0.002258224878460169,0.00035962805850431323
1771956790224928800,8.7649287109375,-0.0018480545841157436,0.0011999830603599548,0.0005470624309964478
1771956790244892000,8.784891845703125,-0.0008801603689789772,0.0025340388529002666,-0.0014514126814901829
1771956790264854800,8.804854736328124,-0.0011517954990267754,0.0014694523997604847,0.0005712999263778329
1771956790284817700,8.824817626953125,0.0013249872718006372,0.002084127627313137,0.0012287115678191185
1771956790304780800,8.84478076171875,0.0015960107557475567,0.0011416994966566563,0.0026022307574748993
1771956790324743700,8.86474365234375,-0.0024651410058140755,-0.0011208551004529,-0.000381286081392318
1771956790344706800,8.884706787109375,-0.002412638161331415,-0.0009746095165610313,-0.00018357700901106
1771956790364669700,8.904669677734375,0.0005422739777714014,0.0011435584165155888,-0.003896846901625395
1771956790384632800,8.9246328125,0.0010629754979163408,0.0008109882473945618,-0.00013562495587393641
1771956790404596000,8.944595947265626,-0.0012157387100160122,0.00211701774969697,-0.0008314317092299461
1771956790424558800,8.964558837890625,0.0012695339974015951,0.000619265716522932,0.0009582007769495249
1771956790444522000,8.98452197265625,-0.000704287551343441,-0.001341966912150383,0.0013912636786699295
1771956790464484600,9.004484619140625,0.0005700502078980207,0.000008617062121629715,-0.0007905912934802473
1771956790484447700,9.02444775390625,0.0002958085387945175,0.001520983874797821,0.0005278530879877508
1771956790504410600,9.04441064453125,0.0007134426850825548,0.0012740674428641796,-0.0000768877798691392
1771956790524373800,9.064373779296876,-0.00001888396218419075,0.0015255650505423546,0.0004289982025511563
1771956790544337000,9.0843369140625,0.00021369615569710732,0.0022443169727921486,-0.000345654203556478
1771956790564300000,9.104300048828126,-0.0005741976201534271,0.0004958058707416058,-0.0010217399103567004
1771956790584263200,9.12426318359375,0.00028104521334171295,-0.00010009109973907471,-0.00030611857073381543
1771956790604226000,9.14422607421875,-0.0003809751942753792,-0.0013658413663506508,0.0015651819994673133
1771956790624189000,9.16418896484375,0.0008393698371946812,-0.0005907691083848476,-0.0014716743025928736
1771956790644151800,9.18415185546875,0.0011334049049764872,0.0014651576057076454,-0.0034077828750014305
1771956790664115000,9.204114990234375,0.0012616007588803768,0.0021079028956592083,0.00013310444774106145
1771956790684078000,9.224078125,0.0016183650586754084,0.0004059630446135998,0.0013851611874997616
1771956790704041000,9.244041015625,0.0023140334524214268,-0.0014094584621489048,0.0002337943878956139
1771956790724004000,9.264004150390624,-0.000657656230032444,-0.0023261788301169872,0.0016648867167532444
1771956790743967000,9.283967041015625,0.0011404352262616158,-0.002040460705757141,-0.00021628121612593532
1771956790763930000,9.30393017578125,-0.002577595878392458,-0.0009928666986525059,-0.0014123526634648442
1771956790783893000,9.32389306640625,0.0001085982657968998,0.002146250568330288,-0.0009515561978332698
1771956790803856000,9.34385595703125,0.00046797096729278564,0.004454574082046747,0.0003299150266684592
1771956790823819000,9.363819091796875,0.0024276156909763813,0.00014817900955677032,0.00010235607624053955
1771956790843782000,9.383781982421874,0.00193413021042943,0.0003883666358888149,-0.0002911635092459619
1771956790863745000,9.4037451171875,-0.00048422859981656075,0.00005243392661213875,0.0023349174298346043
1771956790883708000,9.4237080078125,-0.000608331523835659,0.000564968679100275,-0.0018598113674670458
1771956790903671000,9.443671142578125,0.0007893985603004694,-0.0015235841274261475,0.0007694861269555986
1771956790923634200,9.46363427734375,-0.00046673836186528206,0.0018962472677230835,0.0005892313201911747
1771956790943597000,9.48359716796875,-0.000855584628880024,0.003240987192839384,0.0002843535621650517
1771956790963560200,9.503560302734375,0.0007568353321403265,-0.0004508029669523239,-0.00038888270501047373
1771956790983522800,9.523522705078125,0.0010990065056830645,-0.0015629548579454422,-0.00118452834431082
1771956791003486000,9.54348583984375,-0.001307670958340168,-0.00043933233246207237,-0.0007063145167194307
1771956791023448800,9.56344873046875,0.0017472964245826006,-0.0009147524833679199,0.0013483045622706413
1771956791043412000,9.583411865234375,0.00183134526014328,0.001600099727511406,-0.001933106454089284
1771956791063376000,9.6033759765625,-0.0020391945727169514,0.005407578311860561,-0.00012282072566449642
1771956791083339000,9.623339111328125,-0.001471055205911398,-0.0007416317239403725,0.0007447433308698237
1771956791103302000,9.643302001953124,0.00024487264454364777,0.0008977632969617844,0.0030864039435982704
1771956791123265000,9.66326513671875,-0.0012177648022770882,-0.0006303084082901478,-0.00306186662055552
1771956791143228200,9.683228271484374,-0.000033567193895578384,0.00272497721016407,0.0008218830334953964
1771956791163191000,9.70319091796875,0.00025170762091875076,-0.0005795401521027088,-0.0007454223814420402
1771956791183154200,9.723154296875,-0.00044198520481586456,0.0033043171279132366,-0.0008069123141467571
1771956791203116800,9.74311669921875,0.002392303664237261,0.0023858752101659775,-0.0005516259698197246
1771956791223080000,9.763079833984374,0.0006422346923500299,0.003533335402607918,0.0016640241956338286
1771956791243043000,9.78304296875,0.0012266922276467085,0.0019347602501511574,0.0005095282103866339
1771956791263006000,9.803005859375,-0.0007456541061401367,0.00022809673100709915,0.00042999774450436234
1771956791282969000,9.822968994140625,0.00017225230112671852,-0.001219599973410368,-0.0012541415635496378
1771956791302932000,9.842931884765624,0.0010374276898801327,-0.0005731647834181786,0.0008758988697081804
1771956791322895000,9.86289501953125,-0.00029398873448371887,0.002082610037177801,-0.0014719900209456682
1771956791342858000,9.88285791015625,-0.0006538550369441509,0.0004781372845172882,0.002567949937656522
1771956791362821000,9.902821044921875,0.00005212938413023949,0.0014743437059223652,0.0020468607544898987
1771956791382784300,9.9227841796875,-0.0018570693209767342,0.0003289543092250824,0.0002043719869107008
1771956791402747000,9.942746826171875,0.001413129735738039,0.0002639372833073139,0.0002600953448563814
1771956791422710000,9.9627099609375,-0.0012660697102546692,-0.0015151924453675747,-0.0009765035938471556
1771956791442673000,9.9826728515625,-0.00021768175065517426,0.0022194222547113895,-0.003574616741389036
1771956791462636000,10.002635986328125,-0.00224779499694705,0.0016979118809103966,-0.0025023361667990685
1771956791482599000,10.022598876953126,0.001375067513436079,0.0005481960251927376,0.0002325777313672006
1771956791502562000,10.04256201171875,-0.0018125837668776512,-0.0006335754878818989,0.001075324835255742
1771956791522525200,10.062525146484376,0.00015144702047109604,-0.0007643476128578186,-0.0004964704858139157
1771956791542488000,10.082488037109375,-0.00034104054793715477,-0.0017873132601380348,0.0011590676149353385
1771956791562450400,10.102450439453126,0.00005600880831480026,-0.0002968139015138149,-0.0013780376175418496
1771956791582413300,10.122413330078125,-0.0021735969930887222,0.0032694432884454727,-0.0014914579223841429
1771956791602376400,10.14237646484375,-0.0010053464211523533,-0.00047214189544320107,-0.00008784543024376035
1771956791622339600,10.162339599609375,0.0003627808764576912,-0.0010090176947414875,0.0005348083795979619
1771956791642302500,10.182302490234376,0.0016870731487870216,0.0010379161685705185,-0.000800950569100678
1771956791662265600,10.202265625,0.00037717027589678764,-0.0011946223676204681,-0.001220302889123559
1771956791682228500,10.222228515625,-0.0025489265099167824,-0.0025484180077910423,-0.0000802279100753367
1771956791702191600,10.242191650390625,-0.0012830882333219051,0.0021917722187936306,0.0009130602702498436
1771956791722154500,10.262154541015626,-0.0015359423123300076,0.003166442271322012,0.0010938029736280441
1771956791742117400,10.282117431640625,-0.0005829809233546257,0.0021630562841892242,-0.0018115511629730463
1771956791762080500,10.30208056640625,-0.0003590206615626812,0.0015695467591285706,0.0005370587459765375
1771956791782043400,10.32204345703125,0.000422873767092824,-0.0010243258439004421,0.0025014574639499187
1771956791802006500,10.342006591796874,-0.0008983379229903221,-0.0012047141790390015,0.0019149640575051308
1771956791821969400,10.361969482421875,-0.0003455504775047302,-0.0007402407936751842,0.0019324570894241333
1771956791841932500,10.3819326171875,0.000340411439538002,-0.0002161022275686264,-0.0010944679379463196
1771956791861895700,10.401895751953125,0.0013870117254555225,0.0014100694097578526,-0.0019977132324129343
1771956791881858600,10.421858642578124,-0.0007565058767795563,-0.0003540082834661007,0.0015263119712471962
1771956791901821700,10.44182177734375,0.0011627704370766878,-0.000006616581231355667,0.003736453829333186
1771956791921784300,10.461784423828124,0.0013819742016494274,-0.0009201960638165474,0.0009921540040522814
1771956791941747500,10.48174755859375,0.0006201050709933043,-0.0008019516244530678,-0.0014818883500993252
1771956791961710300,10.50171044921875,-0.0025536930188536644,0.0020428369753062725,0.0013740516733378172
1771956791981673500,10.521673583984375,0.001159084727987647,0.0013306792825460434,-0.0008229960803873837
1771956792001636600,10.54163671875,-0.0042640999890863895,0.05198223143815994,0.06733916699886322
1771956792021599500,10.561599609375,-0.003942813724279404,0.08785120397806168,0.083917535841465
1771956792041562600,10.581562744140625,-0.00023705186322331429,0.03590969741344452,0.012875949032604694
1771956792061525500,10.601525390625,0.0025924458168447018,-0.07066742330789566,-0.08176221698522568
1771956792081488600,10.621488525390625,0.0060637956485152245,-0.0517454519867897,-0.07420305907726288
1771956792101451500,10.641451416015625,-0.001224237959831953,-0.018712682649493217,-0.015209418721497059
1771956792121414400,10.661414306640625,0.0026217042468488216,-0.012078349478542805,-0.009028474800288677
