time,seconds_elapsed,z,y,x
1772003679059906800,0.03390673828125,-0.04138064265847206,0.0038523645792156455,-0.018139358204789457
1772003679079870700,0.05387060546875,0.012167407655715941,-0.004673617834225297,-0.0012639189885929225
1772003679099836000,0.0738359375,-0.021402853512763977,-0.005031783622130751,0.004818031273595988
1772003679119799800,0.0937998046875,0.0026408698976039886,0.0020209113683551548,-0.014521405169647186
1772003679139764700,0.1137646484375,-0.027075053930282592,0.0043148675244301556,-0.007887794107757508
1772003679159728600,0.133728759765625,0.025898411366343497,0.0012640285864472388,-0.010611465184297411
1772003679179693800,0.15369384765625,-0.034490883144736285,0.01404576874822378,-0.02806587333222851
1772003679199657700,0.17365771484375,0.009385667982697486,0.017095511707663536,0.014443956019263713
1772003679219623000,0.193622802734375,-0.02342296116352081,0.00037811259739100933,-0.022860961632896214
1772003679239586800,0.2135869140625,0.0011678747355937957,-0.004800166823342443,0.010592066364083438
1772003679259551700,0.2335517578125,-0.010573416462540626,-0.015055603377893566,-0.013628986374568193
1772003679279515600,0.253515625,-0.005164250895380974,-0.0027800591725856065,-0.010440529064182191
1772003679299480600,0.27348046875,-0.011808511215448379,-0.014013912305235863,0.0271473519815132
1772003679319445000,0.293445068359375,-0.024681436792016027,-0.024488617633655667,0.00879276185715571
1772003679339410000,0.313409912109375,-0.009914660292863845,0.002182750866562128,0.00352342488579452
1772003679359373800,0.333373779296875,-0.02493628833591938,-0.010399448135122656,0.015249975172523408
1772003679379338800,0.3533388671875,0.00023790040910243987,-0.0034869653329253195,0.010765523234847932
1772003679399302700,0.373302734375,-0.020956278789043426,-0.007791895985230803,-0.009688103261683135
1772003679419267800,0.393267822265625,-0.01208908172249794,0.011171090094745158,0.008751242536678909
1772003679439232000,0.41323193359375,-0.01649403868317604,0.0003737286832183599,-0.00237732359059155
1772003679459197000,0.433197021484375,-0.019592589220404622,-0.008496098731830716,-0.015141655959840863
1772003679479160800,0.453160888671875,0.001925415104627609,0.0007772679828107357,0.009864537540823221
1772003679499125800,0.473125732421875,-0.019251812958717345,0.00933357246927917,0.0017158457408659158
1772003679519089700,0.493089599609375,0.01636252125799656,-0.004930953596159815,-0.007423391466401517
1772003679539054800,0.513054931640625,-0.020047347250580785,0.007306596686318516,-0.012930080857593566
1772003679559018800,0.533018798828125,-0.01797112549841404,0.004342851509898901,0.011304178422503173
1772003679578983700,0.552983642578125,-0.023048867154121397,-0.001027370286360383,-0.003177881117444485
1772003679598947800,0.57294775390625,-0.004015080860257148,0.011500029788166284,0.010815317193325609
1772003679618912800,0.592912841796875,-0.019544073903560638,0.008806041463837027,-0.028302641230169682
1772003679638876700,0.612876708984375,-0.012498247045278549,0.0024064035546034574,0.020237243799492717
1772003679658841900,0.632841796875,-0.010081249031424521,-0.010690466970950364,-0.01058808430870995
1772003679678805800,0.6528056640625,0.02597790634334087,-0.010523439840972423,0.018391013144608587
1772003679698770700,0.672770751953125,-0.02369184123277664,0.006189648420363664,-0.012942629811912774
1772003679718734800,0.69273486328125,-0.021740122643113136,-0.008656038533896208,0.01664071714486927
1772003679738699800,0.71269970703125,-0.02249357135891914,-0.004703866842016577,-0.024637962976470588
1772003679758664000,0.732663818359375,0.012228197932243346,0.010955036191269755,0.024663517542835325
1772003679778628900,0.75262890625,-0.018719313517212868,0.009595949732512234,-0.004962682174984365
1772003679798592800,0.7725927734375,0.00836859989464283,0.005261866050958633,-0.00005067074131220579
1772003679818557700,0.7925576171875,-0.03773556415438652,0.012808482038229704,-0.015937610376812517
1772003679838521600,0.812521484375,0.03514963931441307,-0.0028691987607628107,0.008633260446507484
1772003679858486800,0.83248681640625,-0.02097615253329277,-0.005938304007798433,0.014874017999600617
1772003679878451000,0.852450927734375,-0.020809563794732092,0.0038822482608258722,-0.0022098398028872904
1772003679898415900,0.872415771484375,-0.019911153650283814,-0.0002709989611059427,-0.0036337351261638102
1772003679918379800,0.8923798828125,0.004476268631219864,0.0041602614846080535,0.018928901147283614
1772003679938344700,0.9123447265625,-0.032625673794746395,0.0037090105857700106,0.018719404848758132
1772003679958308600,0.93230859375,0.025596213549375534,-0.017814692827686666,0.0040127610390074545
1772003679978273800,0.952273681640625,-0.036948213168978686,0.012738850868120788,-0.018109437990561125
1772003679998237700,0.97223779296875,-0.022862404671311377,-0.0012091565940529107,0.005866407815366983
1772003680018202600,0.99220263671875,-0.007438041046261787,-0.006098316875100135,0.004198237141128629
1772003680038166500,1.01216650390625,-0.018539865297079086,-0.007251359367743134,-0.002538085376564413
1772003680058131500,1.03213134765625,-0.0032552024036645887,0.001628624115139246,-0.008392601824738085
1772003680078095400,1.052095458984375,-0.021362521502375602,-0.018862229119241236,0.011073182678222656
1772003680098060500,1.072060546875,-0.007310030752420425,-0.02112717837654054,-0.012262392462790012
1772003680118024700,1.092024658203125,-0.0076245035290718076,0.00015175649560987949,0.0022903028942644595
1772003680137989600,1.11198974609375,-0.008552724289894103,0.0013416969325393438,0.001575597019959241
1772003680157953500,1.13195361328125,-0.013982932645082474,0.0018112872056663036,0.0010588248705491422
1772003680177918500,1.15191845703125,-0.03360942413508892,0.002217822179943323,-0.02346285478249192
1772003680197882400,1.17188232421875,0.005595043528079986,0.002117065219208598,0.015460658781137317
1772003680217846300,1.19184619140625,-0.011473580172657967,-0.0001248684886842966,-0.000663085284922272
1772003680237811500,1.2118115234375,0.00452829107940197,-0.01781600800193846,0.006533091563172638
1772003680257775600,1.231775634765625,-0.04320727356374263,0.0013321984518319368,-0.00047591041605919595
1772003680277740500,1.251740478515625,-0.0027659575819969176,-0.005649842455238104,0.004403239927627146
1772003680297704400,1.271704345703125,-0.030770401316881177,-0.008171104561164974,-0.02246642762366682
1772003680317669400,1.29166943359375,0.018157003459334374,0.011755027462542056,0.0041347982497885825
1772003680337633500,1.311633544921875,-0.048420039775967594,0.008421133799478411,0.01346754873516038
1772003680357598500,1.331598388671875,0.012783493727445602,-0.006968231577426195,-0.00785633952356875
1772003680377562600,1.351562744140625,-0.01206160919368267,0.0010316811352968215,-0.007268968089669942
1772003680397527600,1.371527587890625,-0.019227847561240196,0.010134732784330844,-0.017540917387604712
1772003680417491500,1.391491455078125,-0.00023439327776432036,-0.0021242986775934693,0.004048563004750758
1772003680437456600,1.41145654296875,-0.0023187983363866806,-0.0006147708974778652,0.0092909206376411
1772003680457420500,1.431420654296875,0.00887654941678047,0.00028254326842725276,-0.0018873481165617703
1772003680477385500,1.451385498046875,-0.007883446726202965,0.0065559244494885205,-0.004976308841537684
1772003680497349400,1.471349365234375,-0.02433189270198345,0.011325476938858627,0.007061974275484681
1772003680517314600,1.491314453125,-0.03765957630872726,0.004529606253653764,0.0024162125625647604
1772003680537278500,1.511278564453125,-0.015240239229798317,-0.00284516029804945,-0.01001724388450384
1772003680557243600,1.53124365234375,-0.03068272303342819,0.001604658717662096,0.01613441159054637
1772003680577207600,1.55120751953125,-0.030497429594397545,0.00807217423133552,-0.01422702533295378
1772003680597172500,1.57117236328125,-0.006229834300279617,-0.008170958430692554,0.007779073036275804
1772003680617136400,1.591136474609375,-0.007564297774434089,-0.009122413936629891,-0.008815119819436222
1772003680637101300,1.611101318359375,-0.019374562555551526,0.011897285477444529,-0.0015437223106622695
1772003680657065500,1.6310654296875,-0.02760755337178707,0.00245988730750978,0.0007179207446984946
1772003680677029600,1.651029541015625,-0.0032137013494968414,-0.004952800101786852,-0.0018401662402786313
1772003680696994600,1.67099462890625,-0.008307809618115424,0.019904943105205894,0.01971778650265187
1772003680716958500,1.69095849609375,0.020415011519193647,-0.012934154244512318,-0.005296608570776879
1772003680736923400,1.71092333984375,-0.013422376152873039,0.009260141906887292,-0.00393421591008082
1772003680756887600,1.730887451171875,-0.006102993050217628,-0.009095452864468096,-0.0003895838394761085
1772003680776852500,1.7508525390625,-0.003996960681676864,-0.002083236014842987,0.010572283951379359
1772003680796816600,1.770816650390625,-0.019582652348279952,-0.001712868332490325,-0.021118830673303453
1772003680816781600,1.790781494140625,-0.01764262419641018,-0.010255801880732178,0.013502711380086838
1772003680836745500,1.810745361328125,-0.019313772279024123,-0.004997589091584086,0.004986921567097306
1772003680856710400,1.83071044921875,-0.021408698731660843,-0.002589139710366726,-0.014665124489273875
1772003680876674300,1.85067431640625,-0.017077976050972936,-0.0014626198984682558,-0.0024189342426136134
1772003680896639500,1.870639404296875,-0.02335164949297905,0.0023407179072499275,0.009503029018361121
1772003680916603600,1.890603759765625,-0.004483282893896103,0.009724909874424337,0.003381952322181314
1772003680936568600,1.910568603515625,-0.02573357619345188,0.0072000675719231366,0.003689520434010774
1772003680956532500,1.930532470703125,-0.019894787037372588,0.014319324992597103,-0.0013022234386764467
1772003680976497400,1.950497314453125,-0.008350479716062545,-0.004111746167764068,0.005863667869009077
1772003680996461300,1.97046142578125,-0.03394669326543808,-0.003149403941631317,-0.012980934261996297
1772003681016425500,1.990425537109375,-0.006391746863722801,-0.00246346750408411,0.010259217680525035
1772003681036390400,2.010390380859375,-0.024777882903814313,-0.004142798893153667,0.009530136220995336
1772003681056354300,2.030354248046875,-0.007712181812524795,0.01777611438296735,-0.012194569657277315
1772003681076319500,2.050319580078125,-0.004579144483804702,0.01058444931320846,-0.002874769985023886
1772003681096283400,2.070283447265625,-0.0038192660272121427,0.0027003449998795983,-0.017990341655537485
1772003681116248300,2.090248291015625,0.0024678514182567596,-0.003387669676914811,-0.001180204494204372
1772003681136212200,2.110212158203125,-0.0193365686327219,-0.003036591216921806,0.014516199271567165
1772003681156177400,2.130177490234375,-0.01633329516351223,-0.004318374655768275,0.0002123641090467572
1772003681176141300,2.150141357421875,-0.003181552645564079,0.004076236462965607,-0.002777118296828121
1772003681196106500,2.1701064453125,-0.02907061166167259,0.008901026270911097,-0.004322484575305134
1772003681216070400,2.1900703125,-0.020398644906282425,-0.008274126544222235,-0.0023366993192583323
1772003681236035300,2.210035400390625,-0.022644962528347967,-0.0006793605662882327,0.010442830619122833
1772003681255999200,2.229999267578125,-0.008259294301271439,-0.00033799978271126745,-0.0016840258304961025
1772003681275963400,2.24996337890625,-0.0007587094128131866,-0.01177848140336573,-0.016889248545840382
1772003681295928600,2.269928466796875,-0.023806992045044897,-0.016161664923653004,-0.005713938933704048
1772003681315892500,2.289892578125,-0.019172902503609656,0.00564326658397913,-0.01476372602554038
1772003681335857400,2.309857421875,0.011512743139266967,-0.00003938216231763363,0.007128518439363688
1772003681355821300,2.3298212890625,-0.030690906339883802,0.005656126065552235,0.002807001978438347
1772003681375786200,2.3497861328125,-0.002124152547121048,0.015593509646877645,0.004408336227852851
1772003681395750400,2.36975048828125,-0.02771335183382034,-0.006064999127388,0.008969141337368636
1772003681415715600,2.389715576171875,-0.019024433943629265,-0.021286533656716344,0.004263411331828683
1772003681435679500,2.409679443359375,0.010587444987893104,-0.007559986925497651,-0.0009070501086302101
1772003681455644400,2.42964453125,-0.007054010164737701,0.005500570177659392,0.008927366288565098
1772003681475608300,2.4496083984375,-0.020226795470714567,0.01528765856809914,-0.015327113795652984
1772003681495573200,2.4695732421875,-0.0036392332851886747,-0.004009820163249969,0.009307086321152746
1772003681515537200,2.489537109375,-0.009925766208767891,-0.006765767807886004,-0.015022230831254273
1772003681535501600,2.50950146484375,-0.00021978023052215574,0.01894968820698559,0.006919716260582208
1772003681555466500,2.529466552734375,-0.016087795969843863,0.00030665479637682436,0.022719525601901113
1772003681575430400,2.549430419921875,-0.03030453737080097,-0.016240648443996905,-0.010965685449447482
1772003681595395300,2.569395263671875,-0.013246435064077376,-0.0024092530988156793,0.002749152577668428
1772003681615359200,2.589359130859375,-0.006955225965380668,-0.011470949824154376,0.021606413260847328
1772003681635324400,2.609324462890625,-0.018331190982460974,0.002686462604999542,0.017543566002417355
1772003681655288600,2.62928857421875,-0.03616436931490898,-0.0007749298952519893,0.005611154412664473
1772003681675253500,2.64925341796875,-0.023430559948086738,-0.015452932132408021,0.004934844319988042
1772003681695217400,2.669217529296875,-0.008607084825634955,0.009927812035381794,0.018060392950754612
1772003681715181300,2.689181396484375,-0.02176174995303154,0.007393544317409396,0.014357337181735782
1772003681735146200,2.709146240234375,0.010557634371519088,-0.003985416374355555,0.010276461076270789
1772003681755110100,2.729110107421875,-0.024772622206807135,0.008505816408246755,0.012919322001561522
1772003681775075300,2.749075439453125,0.011437339815497398,-0.0019047376427799461,0.0088949618563056
1772003681795039500,2.76903955078125,-0.013111995029449462,0.010995952723547815,0.016202654521167276
1772003681815004400,2.78900439453125,0.0018517653465270996,-0.0002208762090653181,0.00227815579874441
1772003681834968300,2.80896826171875,-0.005030395382642746,0.007188084873184561,-0.009350870663952082
1772003681854933200,2.828933349609375,-0.018505963027477264,0.006590995762869715,0.005442300651781261
1772003681874897400,2.8488974609375,-0.018199673557281495,0.000026961072161793707,-0.01348570544635877
1772003681894862300,2.8688623046875,-0.024199790754914283,-0.007533902636170387,-0.026322628127783534
1772003681914826500,2.888826416015625,-0.016113514932990073,0.007952054983004928,-0.02243712846394628
1772003681934790400,2.908790283203125,0.0005091185659170151,0.008066402077674865,0.007429437614697962
1772003681954755300,2.92875537109375,0.0022889877200126646,0.0045090018570423124,-0.01719815009823069
1772003681974719200,2.94871923828125,-0.008044190245866775,0.010014686601236462,-0.0007127879118546843
1772003681994685000,2.968684814453125,-0.009842764100432395,-0.0018733195912092923,-0.005449077452439815
1772003682014648800,2.98864892578125,-0.014194529569149017,-0.0005373217470943928,0.016010840009804815
1772003682034614000,3.008614013671875,-0.01570025795698166,-0.013993965495750308,0.013399488467629998
1772003682054578200,3.028578125,-0.006097147831320762,-0.01317132400125265,-0.004109572476986795
1772003682074543000,3.048543212890625,-0.00461713840663433,0.007064969950169324,-0.03381073712715879
1772003682094507000,3.068507080078125,-0.005512041419744491,0.007216580315306783,0.009162398887146263
1772003682114471000,3.088470947265625,-0.024546412235498426,-0.0007876432463526725,-0.02058472379660234
1772003682134435800,3.108435791015625,-0.01586275504231453,0.004571618764474988,-0.011100070685148239
1772003682154400000,3.12839990234375,-0.0026958149552345273,-0.0001324672732502222,0.013181936726812272
1772003682174365000,3.148364990234375,-0.028738018706440924,0.0026285218726843592,0.0022554873092100023
1772003682194329000,3.1683291015625,-0.028927988320589064,0.0038924773938953873,0.016546061131358147
1772003682214294000,3.1882939453125,-0.008568506380915641,0.0008134352747350931,0.007921550246886908
1772003682234258000,3.2082578125,-0.010824176353216171,-0.004131619912013411,0.006417264897469431
1772003682254223000,3.22822314453125,-0.02324877364039421,0.0008578589383512735,-0.0016269618810154497
1772003682274187000,3.24818701171875,-0.022497663012146948,0.004330649615451693,0.013685100475978106
1772003682294151200,3.268151123046875,-0.0042442134410142895,-0.004826470308378339,-0.0034549444931559264
1772003682314116000,3.2881162109375,0.0012824410259723662,-0.007110270396620035,0.025634170939587055
1772003682334080000,3.308080078125,-0.023686580535769462,0.008980740443617106,0.016665139200072735
1772003682354045000,3.328044921875,-0.02593406720161438,0.0023481705613434315,0.014708963631000369
1772003682374008800,3.3480087890625,-0.031926585614681244,0.0008287789743393659,-0.016091978954616934
1772003682393974000,3.36797412109375,0.02642155845761299,0.007547419704869389,0.005453918024338781
1772003682413938000,3.38793798828125,-0.020258359652757643,0.006027955052629113,0.006718604197911918
1772003682433902000,3.407902099609375,0.0038490766435861586,-0.002139057855308056,0.016574410443007944
1772003682453867000,3.427866943359375,-0.010388123023509978,-0.0036092034731060266,0.015123663645423948
1772003682473831000,3.447830810546875,-0.020136779099702833,0.005951601880788803,-0.004170289688277989
1772003682493796000,3.467796142578125,-0.004587912312150002,0.016890490654855966,0.007217749359086156
1772003682513760000,3.487760009765625,-0.016568272963166236,-0.016677286295592782,0.008483988168928772
1772003682533725000,3.507724853515625,-0.014025018221139907,0.002038666220754385,0.015207615601830184
1772003682553689000,3.527689208984375,-0.01761515166759491,-0.00369739321321249,-0.0011467040834017097
1772003682573653000,3.547653076171875,-0.008469137659668922,0.0072000675719231366,0.0233486172856763
1772003682593618000,3.567617919921875,-0.01579085884988308,0.012079875502735376,-0.017305957854259757
1772003682613581800,3.587581787109375,-0.011923077505826949,-0.003239420312643051,-0.004729110881127417
1772003682633547000,3.607547119140625,-0.011169628790020942,-0.007815057665109634,0.005810238915029913
1772003682653511200,3.62751123046875,-0.015341946038603782,-0.002351969953626394,0.007625818703323602
1772003682673476000,3.64747607421875,0.001412204885482788,0.008759425843134522,0.005327789160329848
1772003682693440000,3.66743994140625,-0.017421674922108648,-0.001978241270408034,0.016182945173699406
1772003682713404000,3.68740380859375,-0.012038812839984894,-0.006914747824519872,0.0054387204552069305
1772003682733369000,3.707369140625,0.007567804905772209,0.005890007886663079,-0.010834862144012003
1772003682753333000,3.7273330078125,-0.030288755279779433,0.005423778614401817,-0.014514500504825263
1772003682773298000,3.7472978515625,-0.01606792222559452,-0.011215440693125129,0.009886895503103732
1772003682793262000,3.767261962890625,-0.019798340925574302,-0.011765329660847782,-0.0050514929695986205
1772003682813227000,3.78722705078125,-0.0166612119436264,0.008009922650083899,0.01067052016146481
1772003682833191000,3.80719091796875,-0.011125789648294448,-0.00473608861118555,0.00586523877158761
1772003682853154800,3.82715478515625,-0.002758358797430992,0.0006822831757366657,0.00011809168802574276
1772003682873120000,3.8471201171875,-0.030453005930781363,0.007629691160842776,-0.0010057612427510321
1772003682893084200,3.867084228515625,0.0014198036700487136,0.0053896571490913625,-0.0076170326086692506
1772003682913049000,3.887049072265625,-0.015042670831084251,-0.009701017542183398,0.0052825617791153485
1772003682933013000,3.907012939453125,-0.010548282021284102,0.008141805401444435,-0.010575425756536423
1772003682952978000,3.92697802734375,-0.04063596177101135,-0.0149538965690881,0.005644800953939557
1772003682972942000,3.946942138671875,0.017414076137542724,0.003479658809304237,-0.0058580601121298965
1772003682992906000,3.966906005859375,-0.021944120782613753,-0.001958075265213847,0.0008488719142973422
1772003683012871000,3.986870849609375,-0.0077186115533113475,-0.014793226114660501,0.0063479807872325175
1772003683032835000,4.0068349609375,0.0036480011135339736,-0.00010894026719033718,0.015206336960196494
1772003683052800000,4.026800048828125,-0.023288521128892896,0.0031686200987547635,-0.009948270301520824
1772003683072764000,4.046763916015625,-0.018055881172418593,0.00580751723498106,-0.00715803679479286
1772003683092729000,4.06672900390625,-0.016869301736354828,-0.013700973898544907,-0.009720726889651268
1772003683112693000,4.08669287109375,-0.013712299010157584,-0.0017452362321317195,-0.005735365314222872
1772003683132657200,4.1066572265625,-0.012796353209018707,0.0034472909096628424,-0.0006375124522484839
1772003683152622000,4.1266220703125,-0.013539865052700042,0.0034085663344711062,-0.0020721666315570474
1772003683172586000,4.1465859375,-0.01114274078309536,0.020695289765298365,-0.005691453107260167
1772003683192551000,4.166551025390625,-0.027899229794740674,-0.003688333123922348,0.0016393281722441315
1772003683212514800,4.186514892578125,-0.0075683894276618955,0.005190335184708237,0.011854998971987515
1772003683232479000,4.20647900390625,-0.02178045465350151,-0.00922353622354567,0.010066288924310355
1772003683252444000,4.22644384765625,-0.0020218612164258957,-0.0009732289463281631,-0.008314257625211029
1772003683272408000,4.246407958984375,-0.01607493648827076,0.01389386612214148,0.0016182671179063618
1772003683292373000,4.266373046875,-0.011294131952524185,0.00889788446575403,0.005078855900559574
1772003683312337000,4.2863369140625,-0.0060620765179395675,-0.003444587495923042,-0.00960219681020826
1772003683332302000,4.306302001953125,-0.023728666111826894,-0.0012645400431007146,-0.0027650990654714404
1772003683352266000,4.326265869140625,-0.0014198036700487136,-0.004079232137650251,-0.007402366944681852
1772003683372230100,4.346230224609375,0.009803601133823394,-0.00093655019775033,-0.01281567896399647
1772003683392195000,4.366195068359375,-0.03119944038391113,-0.006927680371329188,-0.0017606895295903086
1772003683412159000,4.386158935546875,-0.015337854385375976,0.0005451397273689508,-0.0056372021693736315
1772003683432124000,4.4061240234375,-0.007695230677723884,0.0024149521872401237,0.01180913226995617
1772003683452087800,4.426087890625,0.004433598533272743,0.0035670448318123817,-0.030390023697167635
1772003683472052200,4.44605224609375,-0.0027525135785341263,0.0016870032388716935,-0.01309504389464855
1772003683492017200,4.46601708984375,-0.01875146222114563,-0.0005377601385116576,0.014325827798619866
1772003683511981000,4.48598095703125,-0.005729483562707901,-0.011512085552141069,-0.004057860556058585
1772003683531946000,4.505946044921875,-0.03221300134062767,-0.008663491187989711,0.01751848636008799
1772003683551910000,4.525909912109375,-0.034597850650548934,0.020164616954699156,-0.003651142918691039
1772003683571873800,4.545873779296875,-0.018139467802643774,-0.013870266050845384,0.013480682211369275
1772003683591839000,4.5658388671875,-0.018285598275065422,0.0007084405303001403,0.0012041516253724694
1772003683611803100,4.58580322265625,-0.013061726146936415,0.006261471547558903,0.0028794644264504314
1772003683631768000,4.60576806640625,0.003253448837995529,-0.0025252806939184665,0.0003606317396275699
1772003683651732000,4.62573193359375,-0.0006207622468471527,-0.00946764717772603,-0.014617942612990736
1772003683671696000,4.64569580078125,-0.007794014877080917,-0.006960267466679215,-0.0007538323082961142
1772003683691660800,4.665660888671875,-0.02304477550089359,0.01259871174506843,-0.003911273425910622
1772003683711625200,4.685625244140625,0.01886778207719326,-0.006407821215689182,0.01564648194313049
1772003683731590100,4.705590087890625,-0.03710486503541469,0.01887523473128676,-0.005887980326358229
1772003683751554000,4.725553955078125,0.009137830701470374,-0.007832739452272653,-0.0007470007087104022
1772003683771518000,4.74551806640625,-0.01271685823202133,-0.0026215076100081203,0.011286861961521207
1772003683791483000,4.76548291015625,-0.007329904496669769,-0.0015218027397990227,0.007807221418526023
1772003683811446800,4.78544677734375,-0.008083937734365464,-0.00642718350328505,0.012137743169814348
1772003683831412000,4.805411865234375,-0.030223873350024223,0.005682064224407077,0.014290920882020145
1772003683851376000,4.825376220703125,0.009106851041316985,0.00799947432130575,-0.02221122901989147
1772003683871340000,4.845340087890625,-0.027839024040102956,-0.0005126987624913454,0.0048287170643918215
1772003683891305000,4.865304931640625,-0.00914192235469818,-0.007698591678589582,0.012128884009923785
1772003683911268900,4.885268798828125,-0.02812251715660095,-0.008702727219834923,0.001960943075735122
1772003683931233800,4.90523388671875,-0.0029939211189746857,-0.013444441854208707,0.003908478680625558
1772003683951198200,4.9251982421875,-0.00030512042641639707,-0.010439268688857554,-0.001305858434177935
1772003683971162000,4.945162109375,-0.002998597294092178,-0.0033220570947974917,0.0000380304554477334
1772003683991127000,4.965126953125,-0.01706570109128952,0.0017613836493343114,0.021944760103430598
1772003684011090700,4.985090576171875,-0.033062311646342275,-0.004479921893030404,0.0005807772963307798
1772003684031056000,5.005055908203125,-0.009724106156826019,0.007575988212227821,0.007986560040805488
1772003684051020000,5.02502001953125,0.001353168174624443,-0.009085808253288268,-0.0018865991978906094
1772003684070984000,5.04498388671875,-0.012851882788538932,-0.015070435620844364,0.021349333227239548
1772003684090948900,5.064948974609375,-0.004925765964388847,-0.011679843334481119,-0.021582776656933127
1772003684110912800,5.084912841796875,-0.020014614024758338,0.006421265219151973,0.001881959555391222
1772003684130878000,5.1048779296875,-0.01790039834976196,-0.0059329702455550425,0.0072192289301194245
1772003684150841900,5.124841796875,-0.006527355942130089,-0.007542743529751896,-0.005213423799350857
1772003684170806000,5.144805908203125,-0.02242401325404644,-0.0004245820876210928,0.023309710047394037
1772003684190771000,5.16477099609375,-0.04441197317838669,0.008158975731953977,0.028048155012447385
1772003684210734800,5.18473486328125,-0.010150807136297225,-0.0007249532736837863,-0.02374490486057475
1772003684230699800,5.20469970703125,-0.005378185907006263,0.001740925383195281,0.012272932123113423
1772003684250663700,5.22466357421875,-0.03396072179079056,-0.01295190909691155,0.023821276298724114
1772003684270628000,5.244628173828125,-0.022879940328001974,0.0026678309697657824,0.004928469378128648
1772003684290592000,5.264592041015625,0.0033148236364126202,-0.007378273683041334,-0.013985325531568378
1772003684310556000,5.284555908203125,-0.019447627791762352,0.014841376105323432,-0.005156834773905575
1772003684330520800,5.304520751953125,-0.01466974586546421,-0.000020239070430397985,0.0029078868033364414
1772003684350484700,5.324484619140625,-0.004929273095726967,0.00008950491435825825,-0.013394739227276294
1772003684370449000,5.344448974609375,-0.004787234276533127,-0.01272832947410643,0.0007076002800837158
1772003684390413800,5.364413818359375,-0.016460136413574217,0.010532792191207408,-0.006226674228813499
1772003684410378000,5.3843779296875,0.00267652573287487,-0.01407316821180284,0.008769417514186351
1772003684430343000,5.404343017578125,-0.03488485089838505,-0.005688859291374683,0.007340224961284548
1772003684450306800,5.424306884765625,-0.02589256614744663,0.005386003887280821,0.004853814973030239
1772003684470271000,5.44427099609375,-0.012274959683418274,-0.0125951315484941,0.002667904035001993
1772003684490236000,5.46423583984375,-0.007643208229541778,-0.0074836337536573405,0.0007965389388613402
1772003684510199800,5.48419970703125,-0.017227613654732705,0.010808832653611898,-0.004519669381529093
1772003684530165000,5.5041650390625,-0.013473814079165458,-0.0167914872597903,-0.008753014368657022
1772003684550129000,5.52412890625,0.005980243453383445,-0.008815759140253067,0.023113584687095134
1772003684570092800,5.5440927734375,-0.04099719629883766,-0.006048413318768144,0.0012958119641989468
1772003684590057700,5.5640576171875,-0.021397592815756795,-0.0028102351151406764,-0.0037859665458090603
1772003684610022000,5.58402197265625,-0.019894202515482903,0.00718260498046875,-0.012062705172225833
1772003684629985800,5.60398583984375,-0.017045827347040174,-0.0011918401330709458,0.004153356819786131
1772003684649951000,5.623950927734375,-0.0013578443497419357,-0.0015329086557030677,0.0007461239258758723
1772003684669915000,5.643914794921875,-0.021119944918155668,0.004177212619408965,0.0015338585037738084
1772003684689879800,5.6638798828125,-0.0218681329369545,0.003642740416526794,-0.005645221079047769
1772003684709844000,5.683843994140625,-0.000016366612911224363,-0.0018436551053076981,0.010501794264744967
1772003684729808000,5.703807861328125,-0.019027941074967383,-0.010899652742221952,-0.024273312648851422
1772003684749772800,5.723772705078125,-0.019616554617881775,-0.012626768795773386,0.012690481681749225
1772003684769736700,5.74373681640625,0.01076455512046814,0.0010432985078543424,-0.005902355911582708
1772003684789700900,5.763700927734375,-0.017655483677983284,-0.012295125688612461,0.01635112308114767
1772003684809665800,5.783665771484375,-0.019751579174399375,0.010060352373868226,-0.021529037175700066
1772003684829630000,5.8036298828125,0.00898468596637249,-0.00224419873021543,0.01454613775210455
1772003684849595000,5.823594970703125,-0.03381108418703079,-0.005971840951219201,0.021212737768143416
1772003684869558800,5.843558837890625,-0.020512626674771307,0.000944368178024888,0.002583166627306491
1772003684889522700,5.863522705078125,-0.018296704190969466,-0.0048408641599118705,0.003380838077329099
1772003684909487900,5.88348779296875,-0.006611527094244956,-0.004170855943858623,-0.008400346739776432
1772003684929452000,5.9034521484375,-0.0022901567637920377,0.007915960756316781,0.008154427420999854
1772003684949416000,5.923416015625,-0.026972178077697754,-0.005266469160839915,0.0038021322293207045
1772003684969380900,5.943380859375,0.004451718711853027,-0.014991817426681518,0.003206595755275339
1772003684989344800,5.9633447265625,-0.02561550277173519,-0.002562543964385986,0.012824702520668505
1772003685009310000,5.98331005859375,-0.010336685097217559,-0.0036640754655003546,-0.011254512328188866
1772003685029274000,6.003274169921875,-0.03488835802972316,0.0002463029112666845,-0.006410652493592351
1772003685049238000,6.023238037109375,-0.016491700595617293,-0.010192381255701183,0.017427538407314567
1772003685069203000,6.043202880859375,-0.02007774238884449,0.00048339960277080535,0.02440676630279049
1772003685089166800,6.063166748046875,-0.003767828100919723,-0.005389584083855152,0.009310045463219285
1772003685109131000,6.083131103515625,-0.005864508119225502,0.0029297698415815827,-0.0006424991546198725
1772003685129096000,6.103095947265625,-0.013950199419260024,-0.004360094905644655,0.01184997573699802
1772003685149060000,6.12306005859375,-0.011573533415794372,0.0018479659542441366,-0.004899462479352951
1772003685169025000,6.14302490234375,-0.003201426389813423,0.012394275214150548,0.014647753229364752
1772003685188989000,6.162989013671875,-0.0006534954726696014,-0.0031157939329743384,-0.001951937785372138
1772003685208952800,6.182952880859375,-0.01830430297553539,0.0021923954777419564,-0.017685860549937933
1772003685228918000,6.20291796875,-0.0039233109235763544,0.006085749654471874,-0.013991371679864823
1772003685248882200,6.222882080078125,-0.0072165072500705715,-0.009597557167708872,0.04042772584781051
1772003685268846000,6.24284619140625,-0.022910919988155365,-0.000407557887583971,-0.0026100911668501792
1772003685288811000,6.26281103515625,0.0017716858476400374,-0.0024480507392436266,-0.004421688899770379
1772003685308775000,6.28277490234375,0.005970306581258774,0.007956292766705154,0.006380111224856227
1772003685328738800,6.30273876953125,-0.02049859814941883,-0.003552066458389163,0.006986205625534057
1772003685348704000,6.3227041015625,-0.039488545301556585,-0.00954407341480255,0.0007881547030061483
1772003685368668200,6.342668212890625,-0.012267945420742034,0.006730623429268598,-0.011900153287965804
1772003685388632000,6.362632080078125,-0.019592004698514937,0.005998802023380994,0.028464425929449498
1772003685408597000,6.382596923828125,-0.007024784070253372,0.006802958013117313,-0.012343312211893498
1772003685428561000,6.402560791015625,0.018543956950306893,-0.01400477915070951,-0.0025356924900785086
1772003685448525800,6.42252587890625,-0.035328503012657164,-0.007311199796199798,-0.0063696263634599746
1772003685468490000,6.442489990234375,0.015095862323045729,-0.006349734352901578,0.004030972549133003
1772003685488454100,6.4624541015625,-0.010927636727690697,0.001370046244189143,0.007002097314409911
1772003685508419000,6.482419189453125,0.0037497079223394393,0.007806435967236756,0.002749718833249062
1772003685528383000,6.502383056640625,-0.029473931765556335,0.01317490419782698,-0.006479699141811579
1772003685548347000,6.522346923828125,-0.0028489596903324126,0.009475830484181642,0.023453319769166408
1772003685568311800,6.542311767578125,-0.005979074409604072,0.009036489218845962,0.004542977191880345
1772003685588276000,6.56227587890625,-0.022137013006210324,0.004279577015340328,0.002138856925908476
1772003685608239900,6.582239990234375,-0.02513444125652313,-0.00992123616412282,0.011560600868985057
1772003685628205000,6.602205078125,-0.01600070220828056,-0.002213292135298252,-0.006549494708701968
1772003685648169000,6.6221689453125,-0.013746201279759406,-0.0011329495526850224,-0.0011921506603248416
1772003685668133000,6.642133056640625,-0.010313888743519782,-0.002712108502909541,0.0075114898749627165
1772003685688098000,6.66209814453125,-0.027545009529590606,0.004393851044774055,0.0044595732247456905
1772003685708062000,6.68206201171875,-0.01841536213457584,-0.004731485501304269,-0.02315203526765108
1772003685728025900,6.70202587890625,-0.007647299882769585,0.0027289865724742413,-0.002923431432340294
1772003685747991000,6.721990966796875,-0.0342985754430294,-0.008580269883945583,0.010643723486084491
1772003685767955000,6.741954833984375,-0.014086393019556998,-0.003266527515277266,-0.00357135568074882
1772003685787920000,6.761919921875,-0.009601356559991836,-0.008927695082128047,0.0274801641324535
1772003685807884000,6.781884033203125,-0.03968903630971908,0.006472118623554706,-0.008004296626895665
1772003685827848000,6.801847900390625,-0.017246902877092362,-0.009054682462662458,0.02585941279651597
1772003685847812900,6.821812744140625,-0.02967442277371883,-0.014109408568963408,-0.01015029567964375
1772003685867777000,6.841777099609375,-0.02354629528224468,0.009199059369415044,-0.0014002769856713711
1772003685887741200,6.8617412109375,-0.020405074647068977,0.007303016489744186,-0.012590985096339135
1772003685907706000,6.8817060546875,-0.003496609944105148,0.0024774229642003775,-0.0009114888217300176
1772003685927670000,6.901669921875,-0.03671381989121437,0.009147402247413993,-0.011728943173214792
1772003685947634000,6.921634033203125,-0.009327215793728827,0.007279562548920512,-0.0060525963035412125
1772003685967598800,6.941598876953125,-0.00812543878853321,-0.021360110349580644,0.022221549484506248
1772003685987563000,6.96156298828125,-0.027274375894665717,-0.003719970371201634,-0.006361991046275943
1772003686007526100,6.981526123046875,-0.009923428121209143,-0.0003718289870768785,-0.014171495753433554
1772003686027491000,7.001490966796875,-0.0061871642023324964,-0.004027940341830253,0.02254782229680568
1772003686047455000,7.021455078125,-0.007833177843689918,-0.015734014096111058,-0.011152367127966136
1772003686067419100,7.041419189453125,-0.011133388432860374,-0.00610847294293344,-0.00018582316199317574
1772003686087384300,7.06138427734375,-0.010090601381659507,-0.009071998923644423,0.009871259542554616
1772003686107348200,7.08134814453125,-0.010708441019058226,0.009515358776971697,-0.01055156995691359
1772003686127312100,7.10131201171875,-0.030933482924103736,-0.009231865660473704,0.015063494423404334
1772003686147277000,7.121277099609375,-0.012068038934469222,0.020943638503178954,0.008913392562139778
1772003686167241200,7.1412412109375,-0.005781506010890006,0.003537818737328052,-0.007307071610353886
1772003686187205000,7.161205078125,-0.02897124294042587,-0.019254224111512303,0.004808934651687741
1772003686207170300,7.18117041015625,-0.0009819967746734618,0.0023543080411851406,0.002243084485363215
1772003686227134200,7.20113427734375,-0.011606266641616821,-0.007044584749266505,0.00784061223147437
1772003686247098000,7.22109814453125,-0.00964694926738739,-0.00864127935618162,0.004343545629642904
1772003686267063000,7.24106298828125,-0.056902621439099306,-0.0329855200830847,0.0010474266937002539
1772003686287027200,7.261027099609375,-0.0124655138194561,0.0007319675363600253,0.0027548699324019253
1772003686306991000,7.2809912109375,-0.02908230209946632,0.008474544487148523,0.001648242131061852
1772003686326956300,7.300956298828125,-0.016076105532050133,-0.0006799450881779193,0.02121655542673543
1772003686346920200,7.320920166015625,-0.014725859966874122,0.007993629102408886,-0.008550039142463356
1772003686366884400,7.34088427734375,-0.006637246057391166,-0.003050619742274284,0.01455004674224183
1772003686386849300,7.360849365234375,-0.027861820393800734,-0.008166647581756115,-0.007376501851063221
1772003686406813200,7.380813232421875,-0.010195230799913406,-0.010938158121705054,-0.0019768712972290815
1772003686426778000,7.400778076171875,-0.028756723406910895,0.0014248451713472605,0.005763696359563619
1772003686446742000,7.420741943359375,-0.011102408772706985,-0.014657251710072159,-0.0104686043811962
1772003686466706200,7.4407060546875,-0.01065817213654518,-0.013677885283902286,-0.003522401972487569
1772003686486670300,7.46067041015625,-0.03625555472970009,0.0005496697720140219,-0.009202347305044531
1772003686506635300,7.48063525390625,-0.005580430480837822,0.002077829187363386,0.01047306136060506
1772003686526599200,7.50059912109375,-0.02176116543114185,0.0047938101477921005,0.0002823971379548311
1772003686546563000,7.52056298828125,-0.013389058405160904,-0.015190627934411166,-0.004864208502881229
1772003686566528000,7.540528076171875,-0.006517419070005416,-0.004217471564561128,-0.001229614860191941
1772003686586492200,7.5604921875,-0.04526888226866722,-0.009278919672593474,-0.007939031104650348
1772003686606456300,7.580456298828125,0.007408814951777458,0.004105608687922358,-0.009704926532320678
1772003686626421200,7.600421142578125,-0.009795417827367783,0.007364537418633699,0.00878770208954811
1772003686646385200,7.62038525390625,-0.010696166059374809,-0.011789441188797354,-0.003941047509666532
1772003686666349000,7.64034912109375,-0.03987666783630848,0.001465907834097743,-0.0010395173818804322
1772003686686314000,7.66031396484375,-0.00575695609152317,0.0025669278785586357,-0.008516977123077958
1772003686706278100,7.680278076171875,-0.018783026403188706,-0.0009122194740921258,0.009230276491586118
1772003686726242000,7.700241943359375,-0.02177519395649433,-0.0031546646386384964,-0.007109576276876032
1772003686746207200,7.720207275390625,-0.020433131697773933,-0.004740253329649567,-0.0011325111612677573
1772003686766171100,7.740171142578125,-0.012817395997047424,0.0023117110084742306,0.006476557336654513
1772003686786135300,7.76013525390625,-0.021665303841233254,-0.012231558933109045,0.013554624230414628
1772003686806100200,7.780100341796875,-0.022565467551350592,-0.007788023527711629,0.008887764930538833
1772003686826064100,7.800064208984375,0.006621463966369629,-0.009408756597340107,0.005836651997920125
1772003686846028000,7.820028076171875,-0.029750995141267774,0.00447948350161314,-0.01760490426821634
1772003686865993200,7.8399931640625,0.01618248851597309,-0.0038475422736257313,-0.0013951076202094554
1772003686885957000,7.85995703125,-0.013883563923835754,-0.010285612497106194,0.011599544639885426
1772003686905921300,7.87992138671875,-0.028548049092292783,-0.00031513036377727984,-0.014318886601179838
1772003686925886200,7.89988623046875,-0.0035801965743303297,-0.0035010669235140085,-0.0009176263015717267
1772003686945850000,7.91985009765625,-0.026786884638667106,-0.006883695099130272,0.016569789066817612
1772003686965814000,7.93981396484375,-0.05145955360233784,0.002637362766265869,0.002086195156909525
1772003686985779000,7.959779052734375,0.007357377025485039,0.004106850796937942,0.009460906909685582
1772003687005744600,7.97974462890625,-0.010877952367067336,-0.003082476185262203,-0.0027205110050737857
1772003687025708800,7.999708740234375,-0.004318447721004486,0.005840469656512141,-0.011758114468771964
1772003687045673700,8.019673828125,-0.020796704313158988,-0.0019041531208902596,0.025953959212172775
1772003687065637600,8.0396376953125,-0.03696984047889709,0.004014277142658829,-0.008264481933042406
1772003687085601500,8.0596015625,-0.004791325929760932,0.0051994683392345906,0.012346417484432458
1772003687105565400,8.0795654296875,-0.019461071795225143,-0.0072039400294423095,0.0028881957221776246
1772003687125530600,8.099530517578126,-0.03532148874998092,0.0065421881850808855,-0.010702358338143677
1772003687145494800,8.119494873046875,0.00673076955974102,-0.0011621756471693514,0.010616232690960169
1772003687165458700,8.139458740234375,-0.007763035216927528,-0.0026888006925582884,0.0028262181355617937
1772003687185423600,8.159423583984376,-0.007465513575077056,0.00002966448590159416,-0.009022004035767167
1772003687205387500,8.179387451171875,-0.009117372435331344,-0.0027730449099093676,-0.002006316587422043
1772003687225351700,8.1993515625,-0.02512450438439846,0.020304609947279093,0.014736801485996693
1772003687245316600,8.219316650390626,-0.01017243444621563,0.006967866251245141,0.028590463461913167
1772003687265280800,8.23928076171875,-0.009421323817968367,-0.005078837634250521,-0.005245627302210777
1772003687285244700,8.25924462890625,-0.011372457885742187,0.0031309915021061896,0.0024975341704674063
1772003687305209600,8.279209716796874,-0.01602466760575771,-0.01044949782192707,-0.009822013573348522
1772003687325173500,8.299173583984375,-0.003147650375962257,-0.0027453531853854655,0.015074728203471749
1772003687345137700,8.3191376953125,-0.034410219123959536,-0.0022836539577692746,-0.01042445471221581
1772003687365102600,8.3391025390625,-0.01091477724611759,-0.005016074596345424,0.014893508151359855
1772003687385066500,8.35906640625,-0.0215326173722744,0.002456014849990606,0.008359813799988477
1772003687405030700,8.37903076171875,0.0045066637694835664,-0.016987375158071517,-0.011154029362089932
1772003687424994800,8.398994873046876,-0.029178748211264607,0.013356398244574665,0.02891534803472459
1772003687444959700,8.418959716796875,-0.030986089894175527,0.0017534195385873316,-0.0046930166544392705
1772003687464923600,8.438923583984375,0.008802315136790275,0.017236016156896947,0.004646382767427713
1772003687484887600,8.458887451171876,-0.014409049102663994,-0.0029332769729197026,-0.021819654152728615
1772003687504852500,8.4788525390625,-0.017113047364354133,-0.003316138810664415,0.005021791951078922
1772003687524816600,8.498816650390625,-0.05497369920313358,0.00982902783602476,0.005297412288375198
1772003687544780800,8.51878076171875,0.027769465935230254,0.005910685348510742,0.000829893219191581
1772003687564745700,8.538745849609375,-0.02895487632751465,-0.014586743757128715,-0.0009857596343383192
1772003687584709600,8.558709716796875,-0.012338088047504425,0.010924275726824998,0.0014990977176465093
1772003687604673500,8.578673583984376,-0.018483166673779486,0.004382672063633799,0.011149608915299177
1772003687624638500,8.598638427734375,-0.016371289086341858,0.0039916269194334745,-0.005517649176623672
1772003687644602600,8.6186025390625,-0.023275077125430105,0.001069894253835082,-0.006428772672172635
1772003687664566500,8.63856640625,-0.018335867157578466,0.00847257172577083,0.01767097350805998
1772003687684530700,8.65853076171875,-0.023268062862753867,0.009315671486407518,-0.007836666708718985
1772003687704495600,8.67849560546875,-0.022228198421001433,0.006409355585649609,0.008208787956740706
1772003687724459800,8.698459716796876,-0.029422493839263913,-0.011838029570877552,-0.010975823250971734
1772003687744423700,8.718423583984375,-0.007260930913686752,-0.0028689064998179675,-0.002856795936916023
1772003687764388600,8.738388671875,-0.006045125383138656,0.001998918732255697,-0.008470416301302611
1772003687784352500,8.7583525390625,-0.02608779645860195,0.004750117136538028,0.015852014452591538
1772003687804316400,8.77831640625,-0.01964285810291767,0.0061255702082067725,-0.007379771520383656
1772003687824280800,8.79828076171875,-0.033877135160565376,-0.005800283776596188,0.013859854254685342
1772003687844245800,8.818245849609376,-0.009041384589672088,0.012214680863544344,-0.02327193532027304
1772003687864209700,8.838209716796875,-0.02596095520853996,0.0038474692083895205,-0.011825864209048449
1772003687884173600,8.858173583984374,-0.012641454908251762,-0.012732055801153183,-0.004381612617708743
1772003687904138500,8.878138427734376,-0.003066401833295822,-0.010457900324091315,0.002473769702389836
1772003687924102700,8.8981025390625,-0.02596621590554714,0.004687938620522618,-0.012366400826536119
1772003687944066600,8.918066650390625,-0.01578501363098621,-0.004299596890062094,-0.007059928448870777
1772003687964031700,8.93803173828125,-0.019675006806850432,-0.004462020910158753,-0.00450770494909957
1772003687983995600,8.95799560546875,-0.012499416089057922,0.0012938392028212546,-0.009225216723978519
1772003688003958500,8.97795849609375,-0.032250995263457295,0.0018980156410485505,-0.0074640157377347345
1772003688023922400,8.99792236328125,-0.029702479824423787,-0.01336582366004586,0.002352426611352712
1772003688043887400,9.017887451171875,-0.01729132654070854,-0.004742079960554838,0.008553363610710948
1772003688063851300,9.037851318359374,-0.029271687191724776,0.003370645476877689,-0.01929066539807245
1772003688083815400,9.0578154296875,-0.026874562922120093,-0.013749635345861315,0.0207542534109205
1772003688103780600,9.077780517578125,-0.020608488264679908,0.004171513530984521,-0.0029723668742924927
1772003688123744500,9.09774462890625,0.023835049095749853,0.00623005349598825,0.008321600681450218
1772003688143708400,9.11770849609375,-0.02151157458424568,-0.0039015374831855294,-0.002078121448308229
1772003688163672300,9.13767236328125,-0.012546762362122535,0.00031863749511539934,-0.024503048017807304
1772003688183637500,9.157637451171874,0.01019815340936184,0.0034414456907659765,0.01701594366542995
1772003688203601400,9.177601318359375,-0.018376783689856527,0.006480009669065475,-0.008545783092454075
1772003688223565300,9.1975654296875,-0.004765606966614723,-0.0052653001170605415,0.011225797690358013
1772003688243529200,9.217529296875,-0.015533669218420981,-0.0009803893394768237,-0.023578462252486495
1772003688263494400,9.237494384765625,-0.01972176855802536,-0.002811915615573525,-0.015586312721110879
1772003688283458600,9.25745849609375,-0.016277181062102318,0.009306538331881165,-0.010479418036155402
1772003688303422500,9.27742236328125,-0.012229951497912407,0.009913198988139629,-0.012087364689446985
1772003688323387400,9.297387451171875,-0.006858779853582382,0.006015972353890538,-0.00037767420597374434
1772003688343351300,9.317351318359375,-0.023177461969852445,0.011830357721075414,0.0029990722181275483
1772003688363315500,9.3373154296875,-0.0026934768676757813,0.008075169906020164,0.005326985442731529
1772003688383279400,9.357279296875,-0.021687515673041342,0.003097016167268157,-0.006043134355451911
1772003688403244500,9.37724462890625,-0.02065466549396515,0.003489522616192698,-0.017836009610351176
1772003688423208400,9.39720849609375,-0.005410334610939025,0.008205006830766796,0.009143292327877134
1772003688443172400,9.41717236328125,-0.006001286241412163,-0.01584858038648963,0.005436382367648184
1772003688463137300,9.43713720703125,-0.0296235693693161,-0.0044823330458253615,0.004400609579123556
1772003688483101400,9.457101318359374,-0.002669511470198631,0.00885704099871218,-0.0015982107105664907
1772003688503065300,9.4770654296875,-0.0035579847425222396,0.005952697859331965,0.03111726025948301
1772003688523029200,9.497029296875,-0.015531915652751922,-0.0027964988507330414,-0.005918959986511618
1772003688542994400,9.516994384765624,-0.012100772160291672,-0.011387217063456773,0.011883275218401103
1772003688562958600,9.53695849609375,-0.0200467627286911,0.006706292705610394,0.005938541469816118
1772003688582922500,9.556922607421875,-0.04216857816576958,-0.00009176993668079376,0.006648443304840475
1772003688602886400,9.576886474609376,-0.02346095508635044,-0.007242226213216781,-0.00923413068279624
1772003688622851300,9.596851318359375,-0.017607552883028982,0.009643880527466534,-0.002376392008829862
1772003688642817500,9.616817626953125,-0.010422609815001488,0.003504062598198652,-0.002159844915010035
1772003688662782500,9.636782470703125,0.005291092145442962,0.004629778692498803,-0.0000478577297180891
1772003688682746400,9.656746337890626,-0.014755670583248138,0.008948153348267079,-0.010050963491015136
1772003688702710300,9.676710205078125,-0.02867021416723728,0.008157441361993551,0.002289462644048035
1772003688722674400,9.69667431640625,-0.007120061138272285,-0.0035429333038628098,-0.011942238864023237
1772003688742639400,9.716639404296876,-0.018042437168955802,0.003952902344241738,-0.01189438113430515
1772003688762603500,9.736603515625,-0.023727497068047523,0.006750058782100677,0.016197576487250624
1772003688782567400,9.7565673828125,-0.024149521872401235,-0.006168605632334947,-0.020146789037063715
1772003688802531600,9.776531494140626,-0.031179566639661788,0.0114056295029819,-0.003823522077221423
1772003688822496500,9.79649658203125,-0.020554712250828742,-0.00924136414118111,-0.007452416631486267
1772003688842460400,9.81646044921875,-0.012166823133826256,0.014447408351674676,0.005437277416791767
1772003688862424300,9.83642431640625,-0.01875438483059406,0.002282265718281269,-0.013646065373532473
1772003688882389200,9.85638916015625,-0.007404138776659965,-0.007463540813699364,-0.014518884418997912
1772003688902353400,9.876353515625,-0.044787236231565476,0.012166092481464146,-0.02356194950910285
1772003688922317600,9.896317626953126,0.00504325486421585,0.0030974545586854216,0.022622458435595034
1772003688942281500,9.916281494140625,-0.03625146307647228,-0.0008620236568152904,0.005423285424057394
1772003688962246400,9.936246337890625,0.011778700599074363,-0.004867679101601243,-0.0046443186745047564
1772003688982210300,9.956210205078126,-0.03820435070991516,0.008197627241909504,0.004798687252309173
1772003689002174500,9.976174560546875,-0.013075170150399208,-0.008032353677600622,-0.001776928278338164
1772003689022138400,9.996138427734374,-0.018338205245137212,-0.0002954027500003576,0.0038697541054338214
1772003689042103300,10.016103271484376,-0.013849077132344245,-0.011496522656828165,-0.010432528420817107
1772003689062067200,10.036067138671875,-0.02479074238538742,0.008968173222988844,0.01728098780978471
1772003689082031600,10.056031494140624,-0.026282442247867584,-0.0022870880238711833,0.010913023680448532
1772003689101995500,10.07599560546875,-0.013107903376221657,-0.004568184698373079,-0.01631583257205784
1772003689121960400,10.09596044921875,-0.014309095859527587,-0.0026387510057538748,-0.002465148004516959
1772003689141924400,10.11592431640625,-0.033171617239713666,0.008002469995990394,0.010040551694855094
1772003689161888300,10.13588818359375,-0.011173135921359061,-0.000162277889624238,0.010697225505299866
1772003689181852400,10.155852294921875,-0.011787468427419661,-0.008396510814875364,-0.010066635984182358
1772003689201817300,10.1758173828125,-0.02793079397678375,0.009857888604328036,-0.013680680029187351
1772003689221781200,10.19578125,-0.015668693774938583,0.005167173504829406,0.003252279794216156
1772003689241745400,10.215745361328125,-0.014750409886240958,-0.0021394962467253206,0.00013864128571003674
1772003689261709600,10.23570947265625,-0.004582651615142822,0.021351342521235345,0.00616065978789702
1772003689281674500,10.255674560546876,-0.03150748341977596,0.0015160305861383675,0.0015295659211464225
1772003689301638400,10.275638427734375,-0.009670330142974854,-0.005219707409664988,0.020175649805366992
1772003689321602300,10.295602294921874,-0.02478197455704212,0.00105550040230155,-0.013109602142963557
1772003689341566200,10.315566162109375,-0.009820552268624305,-0.004930807465687394,-0.007297061672993004
1772003689361531100,10.33553125,-0.025969138514995573,-0.004797536474838853,-0.004737184589728713
1772003689381495600,10.35549560546875,-0.024165303963422775,-0.0030987697329372165,0.016046495845075694
1772003689401459500,10.37545947265625,-0.025074235501885412,0.017352043751999734,-0.006710311293601989
1772003689421423400,10.39542333984375,0.009044891721010207,-0.0032454116620123383,-0.0013624657259322702
1772003689441388300,10.41538818359375,-0.04004150300920009,-0.004557736369594932,-0.004450750597473234
1772003689461352400,10.4353525390625,-0.0011328034222126005,0.002073226077482104,0.0008664623699150979
1772003689481316400,10.45531640625,-0.028652093988656997,-0.0054222442444413895,-0.006540891277138143
1772003689501280300,10.4752802734375,-0.0033610008656978605,0.002864814846590161,0.004293769937474281
1772003689521245400,10.495245361328125,-0.017003157249093053,-0.0018522037379443644,0.019856299924198538
1772003689541209300,10.515209228515625,-0.011313421174883842,0.0039057022016495465,0.006040266544930637
1772003689561173500,10.535173583984376,-0.036006548404693604,-0.0036496085487306117,0.002163991367164999
1772003689581137400,10.555137451171875,-0.006062661039829254,-0.010614990581944584,0.010922175101283937
1772003689601102300,10.575102294921875,-0.01922550947368145,-0.006576674976572394,0.009052819299139082
1772003689621066200,10.595066162109376,-0.019808277797698972,-0.0125357295114547,-0.02876728133354336
1772003689641030400,10.615030517578125,-0.007111293309926986,0.006618833617866039,-0.007496493235230445
1772003689660994300,10.634994384765625,-0.1816454379171133,0.010468713979050517,-0.0343589821270667
1772003689680959500,10.65495947265625,0.712685912784934,-0.14251023609787225,0.18600271981116384
1772003689700923400,10.67492333984375,-0.39720425135195253,0.014185688675567507,-0.38387675040829927
1772003689720887300,10.69488720703125,0.25762860740125176,0.03444879756867886,0.2295957047568634
1772003689740851500,10.7148515625,-0.11900456508696079,0.0216757521700114,-0.053831506898067885
