time,seconds_elapsed,z,y,x
1771956754546518000,0.07451806640625,-0.09283025938868522,0.04465283272955566,0.03287670768005773
1771956754566481000,0.09448095703125,0.13802607642114162,0.0013970803815871477,-0.009800514127593488
1771956754586443800,0.11444384765625,-0.12772796976864337,0.0023360051995143295,0.03377371131870895
1771956754606407000,0.134406982421875,0.011608604729175567,-0.008416311493888497,-0.0075397204556036735
1771956754626370000,0.1543701171875,-0.02938917609155178,-0.017911285069957376,-0.008936298513691873
1771956754646333000,0.1743330078125,-0.028499533775448796,0.025377419699542225,-0.0041961821813602
1771956754666296000,0.194296142578125,0.0756470693975687,0.007239815060421824,-0.013644521870417519
1771956754686259000,0.214259033203125,-0.01641337466239929,0.017420030954293907,0.0033845004722941664
1771956754706222000,0.23422216796875,-0.042323476466536517,0.00023786387648433446,-0.00030718451933935283
1771956754726186000,0.25418603515625,-0.05953413898646831,-0.043806335435435176,0.044835011762892826
1771956754746149000,0.274149169921875,-0.05037935715019703,-0.029208704958111047,-0.0012450498913414776
1771956754766112000,0.294112060546875,-0.023728666111826894,0.00669573477897793,0.005469015128770843
1771956754786075000,0.314074951171875,-0.0029120880544185636,0.0040323973212391135,-0.027933561322605237
1771956754806038000,0.3340380859375,0.022080898904800413,0.008110131621547043,0.0011294515545014292
1771956754826001000,0.3540009765625,-0.014140169033408164,0.015323606664314865,-0.0037248931414913386
1771956754845964000,0.373964111328125,0.00784311471581459,0.00985569664724171,-0.006602393939718604
1771956754865927000,0.393927001953125,-0.06009820261001587,0.00634414486233145,-0.0052304479993879795
1771956754885890000,0.41389013671875,-0.027925533279776572,-0.007333521225862205,0.018286657720990477
1771956754905853000,0.43385302734375,-0.013260463589429854,-0.006353241484239697,0.0008385057839099318
1771956754925817000,0.453817138671875,-0.010865677407383919,-0.00622033581957221,-0.007548698346503078
1771956754945780000,0.473780029296875,-0.0035369419544935225,0.013870266050845384,-0.019920213739573953
1771956754965743000,0.4937431640625,-0.020158990931510926,0.0033789383811876177,0.016087138382717966
1771956754985706000,0.5137060546875,-0.03153378690481186,-0.009012889147549868,-0.01157196251321584
1771956755005668900,0.5336689453125,-0.04813479309380054,-0.015967494058422745,0.006207065346045419
1771956755025632000,0.553632080078125,-0.032709260424971576,0.0017200652582570908,-0.0060977323532104485
1771956755045595000,0.573594970703125,-0.008009703454375267,-0.005910100826621055,-0.0065653315986506635
1771956755065558000,0.59355810546875,0.008151742273569107,0.007310396078601479,-0.0014518884418997912
1771956755085521000,0.61352099609375,0.0006651859104633331,0.007224690556526183,-0.0027275526672136037
1771956755105485000,0.633485107421875,0.002149286988377571,0.0211201641138643,-0.005529823671607301
1771956755125448000,0.653447998046875,-0.019704817423224448,0.016478694983571768,0.0036718843126203864
1771956755145411000,0.6734111328125,-0.006100070440769195,-0.002275982107967138,-0.013059095798432827
1771956755165374000,0.6933740234375,-0.027359716090559958,0.0060686889218166465,-0.02381099236672744
1771956755185337000,0.713337158203125,-0.027666005560755727,-0.005051182442344725,0.0009250972219742834
1771956755205300000,0.733300048828125,-0.008365677285194396,-0.0039024873312562703,-0.0022647300615906713
1771956755225262800,0.753262939453125,-0.016898527830839154,0.00814575092419982,0.005889012372819706
1771956755245226000,0.77322607421875,-0.023478490743041036,-0.004096512066014111,0.01694602936753072
1771956755265188900,0.79318896484375,-0.03364800257980823,-0.001712868332490325,-0.003570625028386712
1771956755285153000,0.813153076171875,-0.02301964105963707,-0.002923924622684717,-0.005710395269747823
1771956755305116000,0.833115966796875,-0.006994973453879356,-0.015472148289531468,-0.015880793022504076
1771956755325079000,0.8530791015625,-0.01671323439180851,-0.011527758045308291,0.010025902114994824
1771956755345042000,0.8730419921875,-0.008325929796695709,-0.00023855799622833726,-0.007986560040805488
1771956755365005000,0.893005126953125,0.009475099831819534,0.018402904511801897,0.003492463491950184
1771956755384968000,0.912968017578125,-0.01088087497651577,0.01854286097176373,0.0015778346428181975
1771956755404931000,0.93293115234375,-0.005051438170671462,0.007581212376616895,0.011541430377634242
1771956755424894000,0.95289404296875,-0.015389876833558082,0.00806095871757716,-0.014007601295458152
1771956755444856800,0.97285693359375,-0.01989595608115196,-0.013668532933667302,0.0059976603790652
1771956755464820000,0.992820068359375,-0.011813187390565872,-0.012567001432552932,-0.005714395591430365
1771956755484783900,1.012783935546875,-0.018088614398241044,-0.011529767339304088,0.01755825211489573
1771956755504747000,1.0327470703125,-0.017325228810310362,0.006782390149123966,0.00038688955889083445
1771956755524710000,1.0527099609375,-0.008192074283957481,0.008481777945533394,0.0013565200423356146
1771956755544673000,1.072673095703125,-0.005198737686872482,0.003429061133228242,0.004233883843244984
1771956755564636000,1.092635986328125,-0.01044248355925083,0.0018384674735367297,0.008056145545141771
1771956755584599000,1.11259912109375,-0.01238835693001747,-0.010027765278518199,0.011419247036380692
1771956755604562000,1.13256201171875,-0.014196283134818076,-0.011189721729978919,-0.0021578904199413954
1771956755624525000,1.152525146484375,-0.014644026902318,0.010370002844929695,-0.006312361484579742
1771956755644488200,1.17248828125,-0.0050660512179136275,0.024131620889529585,0.0090132818731945
1771956755664451000,1.192451171875,-0.005059621477127075,0.016362594323232768,-0.005543578202323988
1771956755684415000,1.2124150390625,0.0025666356176137924,-0.00045844782460480925,0.0028856749715283512
1771956755704378000,1.232378173828125,-0.016889760002493856,0.0014474953945726155,0.0010683233512565494
1771956755724341200,1.25234130859375,-0.0270703777551651,-0.014709164560399949,-0.002541811703611165
1771956755744303900,1.272303955078125,-0.030364743125438687,0.009959522347897291,0.012364482864085584
1771956755764267000,1.29226708984375,-0.007767711392045021,0.011777896881476044,-0.005662345743784681
1771956755784230000,1.31222998046875,-0.005965045884251594,0.014805829867906867,-0.0026929288784042
1771956755804193000,1.332193115234375,0.0001695113480091095,0.022228563747182486,-0.013670660958671942
1771956755824156200,1.35215625,-0.02272504202723503,-0.007254026248864829,-0.002870148608833551
1771956755844119000,1.372119140625,-0.019583821392059324,-0.00021159692406654356,0.010648892851546406
1771956755864083000,1.3920830078125,-0.008062310424447059,-0.004259228347055614,0.01057310593528673
1771956755884046000,1.412046142578125,-0.0044756841093301775,0.010269940003938972,-0.011951983939902856
1771956755904009200,1.43200927734375,-0.007765957826375961,0.007257825641147792,-0.000964324120664969
1771956755923972000,1.45197216796875,-0.025571663630008696,0.010559241806715726,0.002546771006518975
1771956755943935200,1.471935302734375,-0.03261456787884235,0.005159245926700532,-0.012891118820384144
1771956755963897900,1.49189794921875,-0.02723112127482891,-0.006087905078940093,0.005035902674822137
1771956755983861000,1.511861083984375,-0.002991583031415939,-0.008365056230686604,-0.010562429277645424
1771956756003823900,1.531823974609375,-0.01286415774822235,-0.005861914303340017,0.002263917210837826
1771956756023787000,1.551787109375,0.004941548055410385,0.007047909217514098,0.0022629034306854007
1771956756043751000,1.5717509765625,-0.01301145726442337,-0.0045835283979773515,0.0034887006322853265
1771956756063714000,1.591714111328125,-0.020493921974301336,-0.0076615841364488,-0.006228729188581928
1771956756083677000,1.611677001953125,-0.011667056918144226,-0.0008744447469711303,-0.00024435754935257136
1771956756103640000,1.63164013671875,-0.017355039426684378,-0.0009333718599751591,-0.008429097910225392
1771956756123603200,1.651603271484375,-0.033365678507089616,-0.0023300503827631473,-0.002050858982047066
1771956756143566000,1.671566162109375,-0.019748072043061254,0.004846161389537155,0.01063996975957416
1771956756163529200,1.691529296875,-0.011218728628754615,0.005955035946890712,0.005071658974792808
1771956756183491800,1.711491943359375,-0.009117372435331344,-0.007546214128471911,-0.0030142606541048735
1771956756203455000,1.731455078125,-0.018683657681941985,0.011133607628569006,-0.00038558351779356594
1771956756223418000,1.751418212890625,-0.0330523747742176,-0.006903386180289089,-0.008370298661384732
1771956756243382000,1.771382080078125,-0.00580839401781559,-0.008700462197512387,-0.0036893103714566674
1771956756263345000,1.791344970703125,0.0019698387682437896,-0.0018012407356873153,-0.007424651841726154
1771956756283308000,1.81130810546875,0.00017009586989879608,0.010321998984739183,-0.011113085430348292
1771956756303271200,1.831271240234375,-0.01583995868861675,0.0102390699416399,0.005780684026982635
1771956756323234000,1.851234130859375,-0.024224925196170807,0.02621383399106562,0.007204771146504208
1771956756343197200,1.871197265625,-0.017494740158319474,0.012703195032849907,0.005711765242926776
1771956756363160000,1.89116015625,-0.015848141995072364,-0.007704035038687288,-0.00032862003301270304
1771956756383123200,1.911123291015625,-0.017189619731903076,-0.010817271688394248,0.006042942559206858
1771956756403085800,1.9310859375,-0.007619242832064628,0.0020544483117759227,0.013588069842290133
1771956756423050200,1.95105029296875,-0.014055997881293296,-0.0003184548320248723,-0.003029787016799673
1771956756443012900,1.971012939453125,-0.024833997005224227,0.00424245987534523,0.0014489201666787266
1771956756462976000,1.99097607421875,-0.024979542955756186,0.0026460940619930625,0.024713603762257844
1771956756482939000,2.01093896484375,-0.025574586239457128,0.0037569413807243108,-0.016892737410869448
1771956756502902000,2.030902099609375,-0.011213467931747436,-0.004092566543258726,-0.0132136927051004
1771956756522865200,2.050865234375,-0.021396423771977424,0.006159399412572384,0.007707542170025408
1771956756542828300,2.070828369140625,-0.0025450083076953888,-0.005586750623770058,-0.005864772980706766
1771956756562791400,2.09079150390625,-0.007623919007182121,0.0021453414656221865,0.0010089761131443083
1771956756582754300,2.11075439453125,-0.024986557218432424,0.015932240081951023,-0.007463686944171786
1771956756602718500,2.130718505859375,-0.013618775507807731,0.008927804679982363,-0.00294227313012816
1771956756622681300,2.150681396484375,-0.02753390361368656,0.009543744621239601,-0.012076624099723994
1771956756642644500,2.17064453125,-0.02753741074502468,0.004253565791249275,-0.01639117196374573
1771956756662607000,2.190607177734375,-0.0015068974316120147,-0.0014716434551402926,0.0014985040626022963
1771956756682570200,2.2105703125,-0.03233049024045467,-0.0020796192856505514,-0.00012024711249396204
1771956756702533000,2.230533203125,-0.005693243205547332,0.004142725827917457,-0.005173493647761642
1771956756722496300,2.250496337890625,-0.021842998495697975,0.021368293656036257,0.00022178039136342703
1771956756742459400,2.27045947265625,-0.02602759070396423,0.004072911994718015,0.0036686968416906893
1771956756762422300,2.29042236328125,-0.014204466441273688,-0.0020524755503982303,-0.006993612613854929
1771956756782385400,2.310385498046875,-0.016157938596606254,-0.0021704393742606044,0.01037837794763036
1771956756802349300,2.330349365234375,-0.008682488149404526,-0.006542736174352467,-0.0015768025963567196
1771956756822312400,2.3503125,-0.002696399477124214,0.005277428946271538,0.0026065931686665863
1771956756842275300,2.370275390625,-0.026033435922861097,0.002984166909940541,-0.005438300330098718
1771956756862238500,2.390238525390625,-0.01466097803711891,0.008233283077180385,-0.005208601493760943
1771956756882201000,2.410201171875,-0.013314239603281021,0.0114522085910663,-0.019039960306324065
1771956756902164200,2.430164306640625,-0.009416647642850875,-0.007377250769734382,0.0049746192079503085
1771956756922127400,2.45012744140625,-0.028866029000282286,-0.002191628292761743,0.0010719583467580377
1771956756942090200,2.47009033203125,0.002261515191197395,-0.0018306129606440662,-0.00488143363231793
1771956756962053400,2.490053466796875,-0.025118659165501593,-0.005136851431801915,0.007601825906382873
1771956756982017300,2.510017333984375,-0.01988251207768917,0.01029423419497907,-0.010636654424481093
1771956757001980400,2.52998046875,-0.01390460671186447,-0.009992767030373216,0.00046331579596735535
1771956757021943300,2.549943359375,-0.030963293540477752,-0.006681267862208187,-0.011115578781533986
1771956757041906400,2.569906494140625,-0.007025368592143058,-0.0008659326469525695,0.007286558545287698
1771956757061869300,2.589869384765625,-0.0007452654093503951,0.004856244392134249,-0.0030730142371729013
1771956757081832400,2.60983251953125,-0.019905892953276633,0.007630677541531622,-0.006891449147323146
1771956757101795000,2.629795166015625,0.005386369213461876,-0.0015159940535202621,0.02026984002799727
1771956757121758200,2.64975830078125,-0.028125439766049382,0.007604922045767307,-0.0038246728546917435
1771956757141721300,2.669721435546875,-0.026482933256030083,0.0010182005992159246,0.0012900124110747128
1771956757161685200,2.689685302734375,-0.00867839649617672,0.0012209200970828532,-0.011055464358441531
1771956757181648100,2.709648193359375,-0.014511924955248832,-0.00598115676883608,-0.009388179600192233
1771956757201611300,2.729611328125,-0.02378478021323681,0.004192190992832184,0.021764060641126706
1771956757221574400,2.749574462890625,-0.026019991919398307,0.006183437875285744,0.0003006908464711159
1771956757241537300,2.769537353515625,-0.008360416588187217,0.013106295941025019,0.015840004354389384
1771956757261500400,2.78950048828125,-0.014489128601551056,0.017173874173499644,-0.01037034077164717
1771956757281463300,2.80946337890625,-0.012535071924328803,0.0025790932403877377,0.0026297091827727852
1771956757301426400,2.829426513671875,-0.026449615508317946,0.0017628084214404225,-0.01005879060444422
1771956757321389300,2.849389404296875,-0.025095862811803815,0.0007245879475027323,-0.005262751966947689
1771956757341353500,2.869353515625,-0.004891863694787025,0.0012117138773202894,-0.0036939865465741603
1771956757361316000,2.889316162109375,-0.0045937575310468675,-0.004725274956226349,0.00270001620631665
1771956757381279200,2.909279296875,-0.006841244196891784,0.00382748586628586,-0.01209634258034639
1771956757401242400,2.929242431640625,-0.015218611919879912,0.005376834200136363,-0.016049601117614654
1771956757421205200,2.949205322265625,-0.017913257831335065,-0.002824592434056103,0.005943500772723927
1771956757441168400,2.96916845703125,-0.012976385951042174,0.013638503121584654,-0.004878511022869497
1771956757461131300,2.98913134765625,-0.003701777127385139,0.004512216727435589,0.00908818287346512
1771956757481094400,3.009094482421875,-0.027044658792018887,-0.01189823532551527,-0.004284170992067083
1771956757501057300,3.029057373046875,-0.008335282146930694,0.002900288018770516,0.010433405203651637
1771956757521021400,3.049021484375,-0.02674655262827873,-0.014401961774751544,0.0001977510618045926
1771956757540984300,3.068984375,-0.00818856715261936,0.0045336979068815704,-0.005405283976485952
1771956757560947500,3.088947509765625,-0.021657705056667326,-0.005182115345634519,0.009360661405604332
1771956757580910000,3.10891015625,-0.017622750452160833,-0.008932078996300696,-0.0013700645104981958
1771956757600873200,3.128873291015625,-0.019116788402199745,-0.0002494081838056445,0.007286914738314226
1771956757620836400,3.14883642578125,-0.01911561935842037,-0.0022250921709462998,-0.003956720002833754
1771956757640799200,3.16879931640625,-0.016127543458342553,0.016902400288358328,-0.001541457288339734
1771956757660762400,3.188762451171875,-0.013438742765784262,0.011855784423276781,0.014164116164576262
1771956757680725200,3.208725341796875,-0.02646247498989105,-0.00552479130346328,0.012113969568582251
1771956757700689400,3.228689453125,-0.022576573467254637,-0.003615048692002892,0.009328594900062307
1771956757720652300,3.24865234375,-0.011508066964149475,0.002941350681520998,0.0021961492042522875
1771956757740615400,3.268615478515625,-0.0008908113598823546,-0.004677563356980681,-0.005337643834063783
1771956757760578300,3.288578369140625,-0.01840016456544399,0.002207958373054862,0.004834534883825108
1771956757780541400,3.30854150390625,-0.02198386827111244,0.01503185717612505,0.006580529167782515
1771956757800504300,3.32850439453125,-0.03080956428349018,0.0006417319696396589,0.0079025898180902
1771956757820467200,3.34846728515625,-0.011953472644090652,0.0034890111595392223,-0.00008826280534267425
1771956757840430300,3.368430419921875,-0.006872808378934859,-0.0025167320612818,0.006552883109031245
1771956757860393200,3.388393310546875,-0.020191724157333373,-0.003482691016606986,0.0010499748438131064
1771956757880357400,3.408357421875,-0.01345803198814392,-0.008323226382955908,-0.0032854696777649224
1771956757900320300,3.4283203125,-0.021984452793002127,-0.007925861095823347,0.011889823690196498
1771956757920283400,3.448283447265625,-0.014050152662396431,-0.0018451164100319146,-0.022352235792623833
1771956757940246300,3.468246337890625,-0.022125322568416594,0.007469203369505703,0.013888879419770092
1771956757960209400,3.48820947265625,-0.016889760002493856,0.016183401831425727,-0.02140482627414167
1771956757980172300,3.50817236328125,-0.015395722052454947,0.00502813036032021,-0.00525225797239691
1771956758000135400,3.528135498046875,-0.017049334478378295,-0.0014213745726272464,-0.007688645673310384
1771956758020098300,3.548098388671875,-0.030364743125438687,-0.010115224366262554,0.000851739724818617
1771956758040061200,3.568061279296875,-0.017052841609716415,0.012823533476889132,0.00015971147320233286
1771956758060024300,3.5880244140625,-0.01571019482910633,0.00022383535113185642,-0.004639423303678632
1771956758079988200,3.60798828125,-0.02557809337079525,0.0022673238774761554,-0.01058420271803625
1771956758099951400,3.627951416015625,-0.007783493483066559,-0.006406579106673598,0.010199897841876372
1771956758119914200,3.647914306640625,-0.021093056911230087,-0.015346037691831588,-0.012775529616698622
1771956758139877400,3.66787744140625,-0.019001053068041802,0.009493950662761926,-0.001470154750952497
1771956758159840300,3.68784033203125,-0.026332126608490942,0.015572795652411877,0.002021413691854104
1771956758179803400,3.707803466796875,-0.018844985723495484,0.011206417136453092,0.017979847660986707
1771956758199766300,3.727766357421875,-0.002983399724960327,0.014553462542034684,-0.005483984369039535
1771956758219729400,3.7477294921875,-0.016154431465268133,0.0037971272606402632,0.015916183996293694
1771956758239692300,3.7676923828125,-0.025131518647074698,0.005398936434090137,0.003970867259195075
1771956758259656200,3.78765625,-0.010617840126156807,-0.0008622793851420283,0.003292894932394847
1771956758279619300,3.807619384765625,-5.845218896865844e-7,0.0035160818295553323,0.0025374460557475685
1771956758299582200,3.827582275390625,-0.02140226899087429,0.015130385647155343,0.005543742599105462
1771956758319545300,3.84754541015625,0.000005845218896865844,-0.0011129662105813622,-0.0029922132190782573
1771956758339508200,3.86750830078125,-0.022282558956742287,0.009534246140532195,-0.004946233363682404
1771956758359471400,3.887471435546875,-0.013303133687376975,0.009332147697173058,-0.017171919678431003
1771956758379434200,3.907434326171875,0.004803016367554664,-0.00033953415267169474,0.005129508375562727
1771956758399397400,3.9273974609375,-0.005078326177597046,0.004498480463027954,0.002296906164987013
1771956758419360500,3.947360595703125,-0.014057166925072669,-0.005803060255572199,0.015114978015469386
1771956758439324400,3.967324462890625,-0.019139000234007834,0.000984152199141681,0.0010089761131443083
1771956758459287300,3.987287353515625,-0.02452186231613159,0.00507383266557008,0.004395577210979536
1771956758479250200,4.007250244140625,-0.014796587115526198,0.0007140665534883737,-0.007836337915156037
1771956758499213300,4.02721337890625,-0.013296119424700737,-0.006557312688976526,-0.003442541669309139
1771956758519176200,4.04717626953125,-0.019734628039598464,-0.0015429185930639505,-0.00932628421196714
1771956758539139800,4.067139892578125,-0.009409633380174637,0.00039791327640414237,0.006255781592288985
1771956758559102700,4.087102783203125,-0.0022246903121471403,0.01663527378477156,0.011049664805317296
1771956758579065900,4.10706591796875,-0.015236732098460196,0.007161050735786557,-0.008082147636078297
1771956758599028500,4.127028564453125,0.001225157880783081,0.0073632222443819045,-0.0020956388386897742
1771956758618991600,4.14699169921875,-0.013588380369544028,0.003492956682294607,-0.009557170358393341
1771956758638955500,4.16695556640625,-0.01433423030078411,-0.016994572083838283,0.015379483303707092
1771956758658918700,4.186918701171875,-0.0075993690878152845,0.005124613004736602,0.00352818325930275
1771956758678881500,4.206881591796875,-0.019880173990130423,-0.0010983166307210921,0.013041669739596544
1771956758698844700,4.2268447265625,-0.016579963400959966,0.012331146850064397,0.005769532445305958
1771956758718807800,4.246807861328125,-0.02585164961516857,0.0039951705833896995,0.016819151584850624
1771956758738770700,4.266770751953125,-0.02210895595550537,0.01585007822383195,0.01718479742631316
1771956758758733800,4.28673388671875,-0.011190087056159972,-0.012608758215047419,0.0013513232774101196
1771956758778696700,4.30669677734375,-0.013893500795960426,0.0026342940263450144,-0.004983935025567188
1771956758798659600,4.32665966796875,-0.006574117693305015,0.004737878709472716,0.0065924022686667735
1771956758818623700,4.346623779296875,-0.0165916538387537,-0.009050335081107913,0.014626463846163824
1771956758838586600,4.366586669921875,-0.012250994285941123,0.007360299634933471,-0.0035734380399808285
1771956758858549500,4.386549560546875,-0.026765841850638388,0.007141980709135532,-0.005791607279796153
1771956758878512600,4.4065126953125,-0.027801614639163016,0.004809774901904165,0.0005415595307946204
1771956758898475500,4.4264755859375,-0.01926642600595951,0.011869264959357678,-0.0031596970067825168
1771956758918438700,4.446438720703125,-0.01671615700125694,-0.011189758262597023,0.02369810657678172
1771956758938401800,4.46640185546875,-0.014917583146691322,0.01802771452385932,0.005065183568233624
1771956758958364700,4.48636474609375,-0.013270400461554527,-0.013817476417683064,0.005876034160237759
1771956758978327800,4.506327880859375,-0.024793080472946167,0.01717683331556618,0.01368942045806907
1771956758998290700,4.526290771484375,-0.024784312644600865,0.012860541019029914,-0.007631736987456679
1771956759018254800,4.5462548828125,-0.027765374282002448,0.004016396034508944,0.00398244809913449
1771956759038217700,4.5662177734375,-0.014744564667344093,0.006705525520630181,-0.008370271261921152
1771956759058180600,4.5861806640625,-0.019531214421987533,-0.0021010273998603225,0.003969798680115491
1771956759078143500,4.6061435546875,-0.00949964975118637,0.002170585504733026,-0.006829955617897212
1771956759098106600,4.626106689453125,-0.03493570430278778,-0.005243855470232665,-0.0024530739742331205
1771956759118069800,4.64606982421875,-0.024611878687143325,-0.006532872367464006,-0.005396388283977285
1771956759138032600,4.66603271484375,-0.01997662010192871,0.0026287410683929918,0.011110866073798388
1771956759157995800,4.685995849609375,-0.013241758888959884,-0.016393829711712896,-0.007041287680482492
1771956759177958700,4.705958740234375,-0.021471242573857307,-0.014272344045713543,0.009146224070480094
1771956759197922800,4.7259228515625,-0.004110942450165749,-0.0038040684580802914,0.013950528212822973
1771956759217885700,4.7458857421875,-0.01533551629781723,0.0007346344174817204,-0.000718888859078288
1771956759237848800,4.765848876953125,-0.015334347254037857,0.025035803187638518,0.012420651764422655
1771956759257811700,4.785811767578125,-0.015329671078920363,0.011178798477165401,-0.007436442744219675
1771956759277774600,4.805774658203125,-0.0018652093499898909,0.005411503654718399,-0.01681349816219881
1771956759297737500,4.825737548828125,-0.02505436175763607,0.0022957097217440603,0.022197264426620674
1771956759317700600,4.84570068359375,-0.02250935344994068,-0.01241104368586093,0.0027897677158471197
1771956759337663700,4.865663818359375,-0.031045126605033873,0.003584069031849503,0.00934421259430237
1771956759357626600,4.885626708984375,-0.013545125749707222,-0.005333287319354713,-0.0016920082075521348
1771956759377590800,4.9055908203125,-0.015787351718544958,0.01947287183087319,0.007946922150161117
1771956759397553700,4.9255537109375,-0.01892915687561035,0.004239281537570059,0.0004791618190705776
1771956759417516800,4.945516845703125,-0.025969138514995573,-0.015311660498194395,-0.0075911035829689345
1771956759437479700,4.965479736328125,-0.006822539496421813,-0.003308868819661438,0.011623619635216891
1771956759457442800,4.98544287109375,-0.0021808511704206465,0.007815970980562269,0.0016353187174070625
1771956759477405700,5.00540576171875,-0.01100070196390152,-0.01172386513929814,0.018508091052481905
1771956759497368600,5.02536865234375,-0.002768295669555664,0.0032431101070716974,-0.014892649634834379
1771956759517331700,5.045331787109375,-0.021324527579545973,0.0029848975623026487,-0.0008801347022410482
1771956759537294300,5.06529443359375,-0.028800562548637387,-0.01749740703944117,-0.0053037780970800665
1771956759557257500,5.085257568359375,-0.009942717343568802,0.0028975115397945044,0.007274849841184913
1771956759577221400,5.105221435546875,0.0018745617002248762,-0.0008988120032474398,0.0038840200928039847
1771956759597184500,5.1251845703125,-0.020715455770492552,-0.008826938121393322,0.0017744897260796278
1771956759617147100,5.145147216796875,0.0024731121152639386,-0.0038551775908097622,0.0014182419006247072
1771956759637110300,5.1651103515625,-0.01235094752907753,0.0012727598821744323,0.009904979149065912
1771956759657073200,5.1850732421875,-0.018339374288916587,0.010093304795399308,0.007635810374375432
1771956759677036300,5.205036376953125,-0.021930092257261277,0.0011052578281611203,-0.021239306114660576
1771956759696999400,5.22499951171875,-0.011163783571124077,0.0029158874467015263,-0.006259562718262896
1771956759716962300,5.24496240234375,-0.005182371073961258,0.003997179877385497,0.009100622229930013
1771956759736925400,5.264925537109375,-0.027178514304757116,-0.005918795589730143,-0.015818212647689504
1771956759756888300,5.284888427734375,-0.009371639457345008,0.0056026788452640175,0.012791129044629633
1771956759776852500,5.3048525390625,-0.00203998139500618,-0.0004986337045207619,0.006757073044776916
1771956759796815400,5.3248154296875,-0.027916180929541585,0.0015869403978809712,-0.010811316871643066
1771956759816778500,5.344778564453125,-0.024770868641138075,-0.009489274487644434,-0.0003863689690828323
1771956759836741000,5.3647412109375,-0.015496844339370727,0.0030875542191788554,0.0009589172931853681
1771956759856704300,5.384704345703125,-0.005924129351973533,-0.006374466935358941,-0.004302930491464212
1771956759876667100,5.404667236328125,-0.0014285714983940123,0.014305186869390307,-0.006852815903676673
1771956759896630300,5.42463037109375,-0.011601590466499327,0.011201046841591596,0.009109234794648364
1771956759916593400,5.444593505859375,-0.02027414174377918,0.017134455478563904,-0.005953729905793443
1771956759936556300,5.464556396484375,-0.026251462587714193,0.00003781125973910093,-0.01299107206352055
1771956759956519400,5.48451953125,-0.014428922846913337,-0.004588679497130215,-0.0006669760087504983
1771956759976483300,5.5044833984375,-0.018618191230297086,-0.012296769656427203,-0.01686088096788153
1771956759996446500,5.524446533203125,0.0075695584714412685,-0.009122377404011785,-0.000023481340287253258
1771956760016409300,5.544409423828125,0.0018897592693567274,-0.0006190086811780929,0.0010303842273540794
1771956760036372500,5.56437255859375,-0.017108955711126327,0.007503470965288579,-0.003924452567892149
1771956760056335000,5.584335205078125,-0.03985328696072101,0.00003792085759341717,0.025761532779457048
1771956760076298200,5.60429833984375,-0.021447277176380158,0.008090513605624437,0.014599237912520765
1771956760096261400,5.624261474609375,-0.0190489838629961,-0.006141388831846416,-0.01194263158966787
1771956760116224300,5.644224365234375,-0.012167407655715941,-0.003014562048204243,-0.022213110449723898
1771956760136187400,5.6641875,-0.00423895274400711,-0.000624342443421483,0.00013330752346664667
1771956760156151300,5.6841513671875,-0.030865093863010406,-0.004078611083142459,-0.0012853362359572201
1771956760176114400,5.704114501953125,-0.014999416211247443,0.0006252557588741183,-0.0016843272245954722
1771956760196077300,5.724077392578125,-0.02247837378978729,0.009962043098546564,-0.003015173969557509
1771956760216040400,5.74404052734375,-0.010354220753908157,-0.005408471447415649,0.00644095630031079
1771956760236003300,5.76400341796875,-0.02277472638785839,-0.014084164529852568,0.0020028368555475027
1771956760255966200,5.78396630859375,-0.031160861939191816,0.00220247848033905,-0.020440282957768067
1771956760275929000,5.80392919921875,-0.003022562691569328,0.0002484218031167984,0.005639348460687324
1771956760295892200,5.823892333984375,-0.021876316243410108,0.010845547934807836,0.000590695902146399
1771956760315855400,5.84385546875,-0.016790975803136824,0.018758768744766712,-0.013327802337752654
1771956760335818200,5.863818359375,-0.006464812099933624,0.0012975655298680065,0.0006817808522377163
1771956760355781400,5.883781494140625,-0.026526772397756575,-0.007559219740517437,0.006004217984015122
1771956760375745300,5.903745361328125,-0.02234334923326969,-0.00023969050738960503,-0.0038829606468789276
1771956760395708400,5.92370849609375,-0.01965162593126297,0.006882379924878478,0.0036690530347172168
1771956760415671300,5.94367138671875,-0.0046855274677276605,0.005330108981579542,0.0070552705400623375
1771956760435634400,5.963634521484375,-0.03266775937080383,0.005075220905058086,-0.003098724067164585
1771956760455597300,5.983597412109375,-0.03715630296170711,0.0026517931504175065,-0.011450372827006504
1771956760475560200,6.003560302734375,-0.018902268868684766,0.00498410855550319,-0.016755091639002784
1771956760495523300,6.0235234375,-0.025790859338641167,0.0007301774380728601,0.015739667518762872
1771956760515486200,6.043486328125,-0.014569792622327804,-0.01733856321591884,-0.0005227543656248599
1771956760535449600,6.06344970703125,-0.02115209362208843,-0.015131591223552822,0.0016792035249061882
1771956760555413500,6.08341357421875,-0.027134675163030624,0.0037339988965541123,0.0068971939015202224
1771956760575376400,6.10337646484375,-0.012623919251561163,0.010568886417895555,-0.0012825597569812088
1771956760595339500,6.123339599609375,-0.030730069306492802,0.009947466583922504,-0.008245421039545908
1771956760615302700,6.143302734375,-0.012020108139514922,-0.00011544307321310043,-0.006675130382366478
1771956760635265500,6.163265625,-0.03971066361963749,0.007961224670149385,0.015514197332970797
1771956760655228400,6.183228515625,-0.0039461072772741315,-0.010205350335128606,0.0010906082483008502
1771956760675191300,6.20319140625,-0.030577509093284605,0.014158946799114346,-0.00850820929473266
1771956760695154400,6.223154541015625,-0.01771218230128288,-0.003519223634712398,0.0023821824287995693
1771956760715117600,6.24311767578125,-0.012616904988884925,0.013531097224354744,-0.009476232342980801
1771956760735080400,6.26308056640625,-0.03446165705025196,-0.009205964034236966,0.007090433184988796
1771956760755044400,6.28304443359375,-0.02728431276679039,0.0014014277631416916,-0.0079646952688694
1771956760775007500,6.303007568359375,-0.009179916277527808,-0.010704714692011475,0.013967497613932936
1771956760794970600,6.322970703125,-0.014115619114041328,-0.011795980527438223,0.015862782441778106
1771956760814933500,6.34293359375,-0.011862871751189231,-0.0016619783954694865,-0.00016381225958466528
1771956760834896600,6.362896728515625,-0.016800912675261497,-0.0010068389549851417,0.010015061060572043
1771956760854859500,6.382859619140625,-0.02518061848580837,0.006540580749884247,0.0023466179250739515
1771956760874822400,6.402822509765625,-0.027276713982224463,0.0006987593865022063,-0.010410270923236384
1771956760894785300,6.422785400390625,-0.025482231780886648,0.005975713408738374,0.0015807846517302095
1771956760914748400,6.44274853515625,-0.004377484431862831,-0.003825330441817641,-0.01850504971202463
1771956760934711600,6.462711669921875,-0.019496143108606336,-0.0031981749868020414,-0.008692205825820564
1771956760954674400,6.48267431640625,-0.031765257573127745,-0.011568638044968247,0.006442919928533956
1771956760974638300,6.502638427734375,-0.023382629153132436,-0.00017338380552828312,0.0070815831582527605
1771956760994601500,6.5226015625,-0.015898995399475098,-0.004993570503592491,-0.001980771154211834
1771956761014564600,6.542564697265625,-0.0214367557823658,0.00016885376088321207,-0.0016459588424302637
1771956761034527500,6.562527587890625,-0.0013818097472190856,-0.023190613712370394,0.0012507763792295008
1771956761054490600,6.58249072265625,-0.026518589091300962,-0.004595036172680557,-0.005247855791915208
1771956761074453200,6.602453369140625,-0.0015250176101922989,-0.003755735804326832,0.014033283725986256
1771956761094416400,6.62241650390625,-0.01230477029979229,0.008362791208364069,0.001716284132283181
1771956761114379500,6.642379638671875,-0.021730185770988463,0.02007350460514426,-0.009092676385492085
1771956761134342400,6.66234228515625,-0.02038578542470932,0.0023784561017528177,-0.026848816559510304
1771956761154305500,6.682305419921875,-0.021733108380436895,-0.010411248170770705,-0.00409188155666925
1771956761174269400,6.70226953125,-0.012152794608473776,-0.00873754280488938,0.016121506443200633
1771956761194232600,6.722232666015625,-0.018437573966383933,-0.0021044614659622312,-0.0025369802648667244
1771956761214195500,6.742195556640625,-0.01364800160229206,0.01674706359617412,0.003662504562921822
1771956761234158600,6.76215869140625,-0.020972060880064963,0.004256853726878762,0.002674087180616334
1771956761254121500,6.78212158203125,-0.02066927854120731,0.013732538080587981,-0.016480905206967145
1771956761274084600,6.802084716796875,-0.01946633249223232,0.003990530940890312,-0.005416371626080945
1771956761294047200,6.822047119140625,-0.01482347512245178,0.005001571146957576,0.012000608854601158
1771956761314010400,6.84201025390625,-0.022899814072251317,-0.011044614170864223,-0.009049229969410225
1771956761333973500,6.861973388671875,-0.017518705555796623,-0.0031561259433627127,0.0003987443934660405
1771956761353936400,6.881936279296875,-0.01616144572794437,0.006456044271588325,0.007746622938243672
1771956761373900300,6.901900390625,-0.010921206986904144,-0.006002857143990695,-0.00446929090116173
1771956761393863400,6.921863525390625,-0.02483984222412109,0.003139211341179907,-0.011990005262196063
1771956761413826600,6.94182666015625,-0.025143209084868428,-0.01606616865992546,-0.0042681514390278605
1771956761433789400,6.96178955078125,-0.0003086275577545166,-0.0020445845048874616,0.0015456676725763827
1771956761453752600,6.981752685546875,-0.0060059624165296555,-0.009979469157382846,0.017615233865985645
1771956761473715500,7.001715576171875,-0.00900339066684246,-0.007343019706569612,-0.0013889975398313254
1771956761493678600,7.0216787109375,-0.01827566140294075,0.009750044315680861,-0.007511161081399769
1771956761513641500,7.041641357421875,-0.025765724897384643,0.006644369917921722,-0.017091346989199518
1771956761533604900,7.06160498046875,-0.027112463331222532,-0.005999386545270681,0.0015733502639457583
1771956761553568000,7.081568115234375,-0.00899988353550434,-0.010768939034640788,-0.005755038129072636
1771956761573531000,7.10153076171875,-0.01827390783727169,-0.00622439094018191,0.0026014786021318287
1771956761593494800,7.121494873046875,-0.01333820500075817,-0.008469612583704293,0.022979089853540063
1771956761613458000,7.1414580078125,-0.013486673560738563,0.012561704202927649,0.00959373037596233
1771956761633420800,7.1614208984375,-0.021266659912467,0.00615592881385237,0.003324906639009714
1771956761653383700,7.1813837890625,-0.016919570618867872,-0.004195551993697881,-0.006839362767059355
1771956761673346800,7.201346923828125,-0.017520459121465683,-0.012033113751560449,-0.005585481115290895
1771956761693309700,7.221309814453125,-0.005243161350488662,-0.011758936452679336,-0.0032646186859812587
1771956761713272800,7.24127294921875,-0.006738368344306946,-0.010722834870591759,0.009981999041186644
1771956761733235700,7.261235595703125,-0.022306524354219436,-0.009557846211828291,-0.00781732268743217
1771956761753198800,7.28119873046875,-0.013479659298062325,-0.0042250338165089486,-0.004808030469389632
1771956761773162000,7.301161865234375,-0.026206454402208326,0.0050809565261006355,0.007878752284776419
1771956761793124900,7.321124755859375,-0.018730419433116912,-0.0014114377005025743,-0.008593211563909426
1771956761813088800,7.3410888671875,-0.026057985842227935,-0.02597790634334087,-0.009690980205358937
1771956761833052000,7.361052001953125,-0.007661328408122062,-0.019324037944711745,-0.004812761443434283
1771956761853014800,7.381014892578125,-0.017394202393293378,-0.002303016245365143,0.010836834905389696
1771956761872977700,7.400977783203125,-0.010808394262194633,0.0065680532786995165,0.0273243799156975
1771956761892940800,7.42094091796875,-0.012755436676740646,-0.0022279051825404165,0.005513794985413551
1771956761912903700,7.440903564453125,-0.024577976417541503,0.006176058286428451,-0.0005901387797202915
1771956761932866800,7.46086669921875,-0.01844283466339111,0.014667700038850307,-0.001831772871268913
1771956761952830000,7.480829833984375,-0.012004326048493384,0.0056457873346284024,-0.009969797146739437
1771956761972792800,7.500792724609375,-0.004075286614894867,0.005523001205176114,-0.01573047956530936
1771956761992756000,7.520755859375,-0.018003858724236488,0.0014552037769928574,0.008752722107712179
1771956762012719900,7.540719970703125,-0.027722704184055327,0.0036618469757959244,0.004333407828118652
1771956762032683000,7.56068310546875,-0.02069382846057415,0.018258344941958785,-0.0017211429704912006
1771956762052646000,7.58064599609375,-0.025186463704705238,-0.005131335006467998,0.0003637826779391616
1771956762072608800,7.60060888671875,-0.021446108132600783,-0.00473561368715018,-0.010518553603300824
1771956762092571600,7.620571533203125,-0.026236849540472028,0.00814271871689707,-0.01918921431759372
1771956762112534800,7.64053466796875,-0.02683773804306984,0.0017664251506328583,0.006272878857562318
1771956762132497700,7.66049755859375,-0.006489946541190147,0.003717559218406677,0.0033609004009980707
1771956762152460800,7.680460693359375,-0.012771218767762183,0.008250782201252877,0.009041539853299037
1771956762172424000,7.700423828125,-0.021294716963171957,0.008055113498680292,-0.0030021957569755613
1771956762192386800,7.72038671875,-0.024723522368073462,-0.003327829248458147,-0.002430569881480187
1771956762212350000,7.740349853515625,-0.007358546069264412,-0.013169789631292223,-0.0098932613118086
1771956762232313900,7.76031396484375,-0.010794365736842155,-0.0033235549321398135,0.0034227044576779007
1771956762252277000,7.780277099609375,-0.010491583397984503,0.00034844811148941515,-0.013712983996747061
1771956762272239900,7.800239990234375,-0.014680851781368255,-0.0004661927396431565,0.004204383754124865
1771956762292202800,7.82020263671875,-0.02290682833492756,-0.011748049732483922,0.011851263511786237
1771956762312165600,7.84016552734375,-0.028441666108369824,-0.004433744663745165,0.00233742997162044
1771956762332128800,7.860128662109375,-0.015261282017827033,-0.0111774467702955,0.0025000823205802588
1771956762352092000,7.880091796875,-0.027386604097485542,-0.006156842129305005,0.0009742244601715355
1771956762372054800,7.9000546875,-0.010026888495683669,-0.012658296445198357,-0.005434327407879754
1771956762392018000,7.920017822265625,-0.009727028766274452,0.004415880213491618,-0.003256654575234279
1771956762411980800,7.939980712890625,-0.013166355565190314,0.005710340470820665,-0.007033898958470672
1771956762431944000,7.95994384765625,-0.03231529267132282,0.010736972993798553,0.008913858353020623
1771956762451906800,7.97990673828125,-0.011519172880053519,-0.0025138094518333673,-0.0007113905392121524
1771956762471871000,7.99987109375,-0.0221381820499897,-0.004306720750592649,-0.0006031535249203443
1771956762491833600,8.01983349609375,-0.004631751453876495,-0.00367876157797873,0.0012329758610576391
1771956762511796700,8.039796630859374,-0.01764905393719673,0.008697210794501005,-0.00009676577220670879
1771956762531760000,8.059760009765625,-0.007175006195902824,0.0010689078731462359,0.024765580544667317
1771956762551723300,8.07972314453125,-0.02018354085087776,-0.007706190463155508,-0.0009604516631457954
1771956762571686100,8.09968603515625,-0.018237082958221434,0.006920812239125371,-0.014851358643220737
1771956762591649300,8.119649169921875,-0.035143209573626516,-0.0040873423788696525,-0.0030433588844258337
1771956762611612400,8.1396123046875,-0.02077566152513027,-0.01806227438058704,0.008163633640762419
1771956762631575000,8.159574951171875,-0.023315993657708166,-0.0034643151096999643,0.010921480981539933
1771956762651538200,8.1795380859375,0.005868015250563621,-0.0038845863483846187,-0.009383887017564848
1771956762671501000,8.1995009765625,-0.015834113469719885,-0.0037758287442848084,0.008351155569497495
1771956762691465200,8.21946533203125,-0.022865911802649498,0.009519852288998662,0.019972729378100483
1771956762711428000,8.239427978515625,-0.026463644033670426,0.004674421551823616,-0.008761973993247374
1771956762731391200,8.25939111328125,-0.0026689269483089447,-0.004372881321981549,-0.0002693458601366728
1771956762751354000,8.27935400390625,-0.031847090637683866,-0.01160929884891957,0.0030673699476756154
1771956762771317200,8.299317138671874,-0.018377368211746216,0.005384323386847973,0.000666373220551759
1771956762791280400,8.3192802734375,-0.01688449930548668,0.007952712570130825,0.02769798073475249
1771956762811243300,8.3392431640625,-0.025863340052962303,0.005562310302257538,0.004380808900110424
1771956762831206400,8.359206298828125,-0.026001287218928335,0.0031207623690366745,-0.0027413711300119754
1771956762851169000,8.3791689453125,-0.029286884760856627,-0.012892032135836779,0.00013146262625232338
1771956762871132200,8.399132080078125,-0.02494505616426468,-0.004416610865853727,-0.0145520469030831
1771956762891095000,8.419094970703124,-0.03302665581107139,-0.012563019377179444,-0.0037583113539032638
1771956762911059200,8.43905908203125,-0.014022095611691474,-0.00501881454270333,0.01210798735236749
1771956762931022000,8.45902197265625,-0.030036826345324515,-0.008179726259037852,0.0006943389397114515
1771956762950985200,8.478985107421876,-0.016416297271847725,0.006264978678897023,-0.004492196852713823
1771956762970948000,8.498947998046875,-0.0007072714865207671,0.004835347734577953,-0.010137436198070645
1771956762990911200,8.5189111328125,-0.03871463831961155,-0.001659530710056424,0.0049695229077246035
1771956763010874400,8.538874267578125,-0.006089549046754837,-0.0053767611349001525,-0.00037185638654045757
1771956763030837200,8.558837158203126,-0.018214871126413346,-0.014724617857858538,-0.0002097885594703257
1771956763050800400,8.57880029296875,-0.01657645626962185,-0.0010515914121642708,0.014624774212576448
1771956763070763000,8.598762939453126,-0.015680968734622002,0.005252805961668491,0.0062220619857776905
1771956763090726100,8.61872607421875,-0.025563480323553083,0.004632847432419657,0.004308766577206552
1771956763110689300,8.638689208984376,-0.007908581167459487,-0.005294964602962136,0.01785049479342997
1771956763130652200,8.658652099609375,-0.015388123267889022,-0.004546922714635729,0.0014857815783470868
1771956763150616000,8.678615966796874,-0.007007832935452461,-0.0309015168832615,-0.017036630260432138
1771956763170579200,8.6985791015625,-0.013135960426926612,0.00822265208531171,-0.005603884421661496
1771956763190542300,8.718542236328124,-0.013131868773698806,0.0011179711792618035,0.006247443022206425
1771956763210505200,8.738505126953125,-0.012079144850373267,-0.012279855054244398,-0.006231670064339414
1771956763230468400,8.75846826171875,-0.014777882415056228,0.011502148680016398,0.0006841920050326734
1771956763250431200,8.77843115234375,-0.02869242599904537,0.0031745018502697345,0.004380096514057368
1771956763270394400,8.798394287109375,-0.008348726150393485,-0.0023446268973872065,-0.014777544488338753
1771956763290357000,8.81835693359375,-0.0005775076270103454,-0.019754867110028863,-0.0068728997104801235
1771956763310320000,8.838320068359375,-0.0118032505184412,-0.001606083489768207,0.009095598994940519
1771956763330283300,8.858283203125,-0.021824293795228003,0.00832424929626286,0.00673019417100586
1771956763350246100,8.87824609375,-0.013140636602044104,0.005102145444601774,0.006863346430845558
1771956763370210000,8.8982099609375,-0.024957331123948094,-0.00018883710298687217,0.00037864232035353775
1771956763390173200,8.918173095703125,-0.010284078127145766,-0.001063318382576108,0.0038655711206607517
1771956763410136300,8.93813623046875,-0.018960136535763738,-0.012836721752025186,0.0046494606405030935
1771956763430099200,8.95809912109375,-0.013575520887970923,-0.01937693717572838,-0.0006689487701281904
1771956763450062300,8.978062255859374,-0.008948445609211922,-0.005492496469058096,0.015979001833125946
1771956763470025200,8.998025146484375,-0.015981412985920904,0.011749401439353824,-0.005494469230435789
1771956763489988400,9.01798828125,-0.010740005201101303,0.009888612536154686,-0.008639872850384563
1771956763509951200,9.037951171875,-0.031686931639909745,-0.006139233407378196,-0.0033072431181557474
1771956763529912800,9.057912841796876,-0.0019131401449441908,-0.005027874631993472,-0.0019472433439455925
1771956763549876000,9.0778759765625,-0.024511340922117233,0.004200885755941272,-0.008428878714516759
1771956763569839000,9.097839111328126,-0.013744447714090346,-0.013312303374521434,0.015556757833063602
1771956763589802000,9.117802001953125,-0.02228372800052166,0.003377294413372874,0.006583963233884424
1771956763609765000,9.13776513671875,-0.01405190622806549,0.008261011334322393,-0.00135655657495372
1771956763629729000,9.15772900390625,-0.03469020510911942,0.009519925354234874,-0.00805900422250852
1771956763649692200,9.177692138671874,-0.020164251628518103,-0.006731134885922074,-0.00021613610186614095
1771956763669655000,9.197655029296875,-0.012831424522399902,-0.009143164463713764,0.005471819007210433
1771956763689618000,9.217617919921874,-0.013581950628757476,-0.008634666952304542,0.00008502053548581897
1771956763709580800,9.237580810546875,-0.0170230309933424,0.005945062542147934,-0.007351659670751541
1771956763729544000,9.2575439453125,-0.025849311527609824,0.01404617060702294,0.012600748438527806
1771956763749507000,9.277507080078125,0.0027308862686157226,0.014073679668456315,-0.010321925919502973
1771956763769470000,9.297469970703125,-0.020009937849640846,-0.014575528243370354,0.020842589281499384
1771956763789433000,9.31743310546875,-0.02779226228892803,-0.004585976083390415,-0.0027904161698184904
1771956763809396000,9.33739599609375,-0.007592354825139046,-0.012040931731835007,-0.011119195510726421
1771956763829359000,9.357359130859376,-0.011331541353464127,-0.015577179566584526,0.008600244092894718
1771956763849322000,9.377322021484375,-0.02135726080536842,-0.0191954796615988,0.012533373157586902
1771956763869286100,9.3972861328125,-0.0141734867811203,0.0010061083026230335,-0.0070093855717219405
1771956763889249000,9.4172490234375,-0.01567103186249733,-0.0078222545908764,0.007744156986521557
1771956763909212000,9.4372119140625,-0.03647767304778099,0.0017614932471886277,0.005046935525489971
1771956763929174800,9.4571748046875,0.0012304185777902603,-0.0037750980919227,-0.0033081655667629092
1771956763949138000,9.477137939453126,-0.03242810539603233,0.004497457549721002,-0.0174338220176287
1771956763969101000,9.49710107421875,-0.012524550530314444,-0.019684870613738893,-0.005235991824185476
1771956763989064000,9.51706396484375,-0.010573416462540626,-0.007341156543046235,0.008069516483368351
1771956764009027000,9.537027099609375,-0.013257540979981422,0.0007143222818151116,0.012460810244875027
1771956764028990000,9.556989990234374,-0.02746726811826229,0.00325176833756268,0.0025032332588918508
1771956764048953000,9.576953125,-0.031062077739834784,0.0063040320476517074,-0.023240818662801758
1771956764068916000,9.596916015625,-0.0032312370061874387,-0.01034965417664498,-0.007668105208780616
1771956764088878800,9.61687890625,-0.0032370822250843046,-0.014477109370194375,-0.011737108213361352
1771956764108843000,9.636843017578125,-0.00443418305516243,-0.002852612952142954,0.01038145582070574
1771956764128806000,9.656805908203125,-0.01326806237399578,-0.011108034795895219,0.004507631883863359
1771956764148769000,9.67676904296875,-0.013416530933976172,0.008194996893405913,0.013372152936132625
1771956764168732000,9.69673193359375,-0.018051789519190786,0.005554528854601085,-0.000555085732648149
1771956764188695000,9.716695068359375,-0.040649990296363826,0.005126768429204821,-0.003519433697266504
1771956764208658000,9.736657958984376,-0.014461071550846099,0.001764452389255166,0.005478568408405408
1771956764228621000,9.75662109375,-0.01745557719171047,-0.017231668775342403,0.002150894423574209
1771956764248584000,9.776583984375,-0.01925298200249672,-0.01785718026254326,0.012056065368885174
1771956764268547000,9.796547119140625,-0.012810381734371185,0.003335135772079229,-0.00866329025859013
1771956764288510200,9.81651025390625,-0.01071136362850666,0.006842194044962525,-0.0031091723959427325
1771956764308472800,9.836472900390625,-0.011004793617129326,-0.006223842950910329,0.014780649760877713
1771956764328436000,9.85643603515625,-0.02207330012023449,-0.009835347978956997,-0.015529330970020964
1771956764348398800,9.87639892578125,-0.015197569131851196,-0.016493198432959617,-0.00014366452069953083
1771956764368363000,9.896363037109374,-0.007727963903546333,-0.011921835396811365,-0.007883154465258122
1771956764388326000,9.916325927734375,-0.00876899738907814,0.0009270517170429229,0.008070594195602462
1771956764408289000,9.9362890625,-0.020891396859288213,-0.0037284824712201952,-0.005057128125941381
1771956764428252000,9.956251953125,-0.027922610670328137,-0.005507657505571842,0.003301818024367094
1771956764448215000,9.976215087890624,-0.012364391532540321,0.0029058775093406437,-0.012067107352707534
1771956764468178000,9.996177978515625,-0.016996142986416815,-0.006293766381964087,0.0005628945797681808
1771956764488141000,10.01614111328125,-0.016987959679961202,-0.008774733010120689,-0.00109624340464361
1771956764508104200,10.036104248046875,-0.00651332741677761,-0.0015287074046209453,0.016764096929365768
1771956764528066800,10.05606689453125,-0.01624210974872112,0.00446085186637938,0.000011937032965943217
1771956764548030700,10.07603076171875,-0.021476503270864485,0.004171550063602626,0.010645321788126601
1771956764567993600,10.09599365234375,-0.02506780576109886,0.006541895924136042,-0.005613382902368903
1771956764587956700,10.115956787109376,-0.0136941788315773,-0.0003771627493202686,-0.004337125022010877
1771956764607920600,10.135920654296875,-0.01819324381649494,-0.003315663886629045,-0.011753328695800154
1771956764627883800,10.1558837890625,-0.027020108872652052,-0.011679806801863014,0.013244215707527473
1771956764647846700,10.1758466796875,0.0012678279787302017,-0.02423372955713421,0.008723231151746585
1771956764667809800,10.195809814453124,-0.012491817304491996,0.007367606158554554,-0.007962329781847074
1771956764687772700,10.215772705078125,-0.015482231292128562,-0.008540522395446896,0.00817046524034813
1771956764707735800,10.23573583984375,-0.025810148561000824,-0.004918605571240187,-0.0059035432216711335
1771956764727698700,10.25569873046875,-0.021923077994585035,-0.0017031506560742855,0.0011739756828173995
1771956764747661600,10.27566162109375,-0.016383564046025274,-0.01049439640957862,-0.002617041497444734
1771956764767624700,10.295624755859375,-0.004710661908984184,-0.00778181298263371,-0.0010274433515965937
1771956764787587600,10.315587646484374,-0.011593991681933402,0.00036623949650675056,0.0060820233274251215
1771956764807550700,10.33555078125,-0.008450432959198952,0.003451236432418227,-0.003767490174202248
1771956764827513600,10.355513671875,-0.023557985720038414,0.0008980813508853315,0.006214536266447976
1771956764847476700,10.375476806640625,-0.01982230632305145,0.007761135520786047,-0.0008874412258621304
1771956764867440600,10.395440673828125,-0.012045242580771446,-0.012383059700392185,0.005254029804375023
1771956764887403800,10.41540380859375,-0.01563186889588833,0.002692234758660197,0.007693805905617773
1771956764907366700,10.43536669921875,-0.01473813492655754,-0.012966814405098557,0.00715513245165348
1771956764927329800,10.455329833984376,-0.01353343531191349,-0.0017527619514614342,0.0038333676178008316
1771956764947292700,10.475292724609375,-0.018773089531064033,0.005303951627016067,0.0012310944312252103
1771956764967255600,10.495255615234376,-0.037027123624086375,-0.009134323570132255,-0.005460484762443229
1771956764987218700,10.51521875,-0.004551671954989433,-0.009251922067813575,0.01057365392455831
1771956765007181600,10.535181640625,-0.018913374784588814,-0.010724150044843554,0.003122643798869103
1771956765027144700,10.555144775390625,-0.012030045011639595,-0.007285298169963062,0.005840734517993405
1771956765047107600,10.575107666015626,-0.007998597538471222,-0.009763305656053125,-0.000624369842885062
1771956765067070700,10.59507080078125,-0.0038128362864255903,-0.009390124962106346,0.020010613703075796
1771956765087033900,10.615033935546874,-0.03299392258524895,-0.002155935924872756,0.018950957715464754
1771956765106996700,10.634996826171875,-0.029396190354228018,-0.003750109781138599,-0.005987349047604948
1771956765126959600,10.654959716796874,-0.02176642612814903,-0.004306172761321067,0.022156229163333773
1771956765146923800,10.674923828125,-0.016226327657699584,0.0022256766928359863,-0.009846682223724201
1771956765166886700,10.69488671875,-0.008147066098451615,-0.01522811040058732,-0.005527467317739502
1771956765186849500,10.714849609375,-0.015476386073231697,0.0032295199731364843,0.003772586474427953
1771956765206812700,10.734812744140624,-0.02026069774031639,-0.0022567659508436915,0.011649155935272574
1771956765226775600,10.754775634765625,-0.009483867660164833,-0.008252499234303831,0.010386780449794604
1771956765246738700,10.77473876953125,-0.02176116543114185,-0.004262698945775628,0.003915913068410009
1771956765266701800,10.794701904296875,-0.01787351034283638,-0.02233450833968818,-0.013303252418385817
1771956765286664700,10.814664794921875,-0.005159574720263481,-0.008373641395941376,-0.009341253452235833
1771956765306627800,10.8346279296875,-0.018178630769252777,-0.0053872825289145105,0.0038717725325841455
1771956765326590700,10.8545908203125,-0.009048398852348326,0.0007948036395013331,0.003974191727442667
1771956765346553600,10.8745537109375,-0.024157705178856848,-0.0068736486291512845,-0.01149831275511533
1771956765366516500,10.8945166015625,-0.027737901753187178,0.00011131488736718892,0.0020820030389819295
1771956765386479600,10.914479736328126,-0.022044658547639845,0.0014206073876470327,0.0009547160421032458
1771956765406443500,10.934443603515625,-0.011412205374240874,-0.014313589371554553,-0.008216377608152105
1771956765426406700,10.95440673828125,-0.004533551776409149,-0.008226889869011938,0.0036958862427156416
1771956765446369500,10.97436962890625,-0.013661445605754852,-0.0015810951789841056,0.014313534572627394
1771956765466332700,10.994332763671874,-0.011874562188982963,0.0035952845456078647,0.014584844060987234
1771956765486295800,11.0142958984375,-0.11347674157619475,0.14711955652423203,-0.10794588585812598
1771956765506258700,11.0342587890625,0.38018881914317604,0.027777393513359127,-0.03043736083707772
1771956765526221800,11.054221923828125,-0.45155426569879054,-0.22042788077592848,0.11492082117097452
1771956765546184000,11.074183837890626,-0.10723813944756984,-0.2654508254595101,0.1697720813045278
1771956765566147000,11.09414697265625,-0.21730010414421558,0.2259575674502179,-0.11529431239217519
