time,seconds_elapsed,z,y,x
1771956712480033000,0.053032958984375,-0.042509354427456854,0.009510974862799048,-0.04026550275711342
1771956712499996000,0.072995849609375,0.016285948890447616,-0.03524666994810104,-0.002907804604945704
1771956712519959000,0.092958984375,-0.01949088241159916,-0.030186244753375648,-0.020610671088611705
1771956712539922000,0.112921875,-0.05405599983632564,-0.043453941801190374,0.02303340472350828
1771956712559886000,0.132885986328125,0.011042203018069267,-0.02365147268977016,0.0017703980728518216
1771956712579848700,0.1528486328125,-0.008846154278516769,-0.0299023863106966,-0.00927389643760398
1771956712599811800,0.172811767578125,-0.04622925173342227,0.002649162801913917,-0.005937217162409797
1771956712619774700,0.192774658203125,0.025724808365106582,-0.02029350403137505,0.009371201065927743
1771956712639737900,0.21273779296875,-0.04460954157710075,-0.026476393917389214,-0.01400572899878025
1771956712659701000,0.232700927734375,-0.010650573351979255,-0.022657091357558966,0.0036382743039634078
1771956712679665000,0.252664794921875,-0.04357376878857613,-0.04251406713519245,0.011771083548199385
1771956712699627800,0.272627685546875,0.021207623201608655,-0.03573211537748575,-0.024851486996142192
1771956712719591000,0.2925908203125,-0.06393208168447018,-0.007339987499266862,-0.01770632794923149
1771956712739554000,0.312553955078125,-0.0007885200291872024,-0.003464461240172386,0.00653661696081981
1771956712759517000,0.332516845703125,-0.0036339725881814953,-0.025886793993785975,0.0031649759700987487
1771956712779480000,0.35247998046875,-0.06646773764193058,-0.012241605403088033,-0.01390140097462572
1771956712799442700,0.372442626953125,-0.03142974200844764,-0.030247327290847895,-0.017739517832780254
1771956712819407000,0.392406982421875,0.0002922609448432922,-0.012591807080246507,-0.004584167718794196
1771956712839369700,0.41236962890625,-0.019892448949813842,-0.02345481760650873,-0.018947578448290005
1771956712859332900,0.432332763671875,-0.0011713818669319151,-0.03242120073121041,0.02838620959408581
1771956712879295700,0.452295654296875,-0.05772270565032959,-0.010618022789247334,-0.015152177353855222
1771956712899259000,0.4722587890625,0.005122749841213226,-0.029858729832060633,0.0042299383204896
1771956712919221800,0.4922216796875,-0.015234978532791137,-0.028791758187673985,-0.02553356010932475
1771956712939185000,0.512184814453125,-0.011192425143718718,-0.029068821563385427,-0.00444687813995406
1771956712959148800,0.532148681640625,-0.011795651733875274,-0.02409852233752608,0.011057756780227645
1771956712979112000,0.55211181640625,-0.01718669712245464,-0.0192251806801185,0.027268512409459798
1771956712999074800,0.57207470703125,-0.007927285867929458,-0.02899268758725375,0.000528553918749094
1771956713019038000,0.592037841796875,-0.031282442492246626,-0.014483940969780087,-0.009170463462593034
1771956713039001000,0.6120009765625,-0.022448563173413275,-0.025777671063505113,-0.0016628643114585428
1771956713058963700,0.631963623046875,-0.017218261304497717,-0.02185417747683823,-0.002443356297817081
1771956713078928000,0.651927978515625,-0.017980477848649024,-0.02676003316435963,-0.004871597224893048
1771956713098890800,0.671890869140625,-0.00901858823597431,-0.018545856646448373,0.0010225479807704687
1771956713118854000,0.69185400390625,-0.01321662444770336,-0.008484335228800773,-0.002126152707962319
1771956713138816800,0.711816650390625,-0.009176409146189689,-0.014079744083061814,-0.003046984746772796
1771956713158780000,0.73177978515625,-0.037462592431902884,-0.007770853197202086,0.01654915727074258
1771956713178742800,0.75174267578125,-0.02130290026962757,-0.0380196417927742,-0.003818188314978033
1771956713198706000,0.771705810546875,-0.03177110279202461,-0.026831089106574654,0.0018892478127032516
1771956713218669800,0.791669921875,-0.007383680510520935,-0.01138882449865341,-0.00183583712503314
1771956713238633000,0.811633056640625,0.004745733222365379,-0.03297412190623581,-0.010849548256490378
1771956713258595800,0.831595947265625,-0.003038344782590866,0.006412972314842045,-0.01564807111201808
1771956713278559000,0.85155908203125,-0.004993570503592491,-0.006940576385520398,-0.0079349942503497
1771956713298522000,0.871522216796875,-0.02280161439478397,-0.02052121184002608,-0.000902958455402404
1771956713318484700,0.891484619140625,-0.016978022807836533,-0.01745612518098205,0.0007819167584646493
1771956713338448000,0.91144775390625,-0.017578326788544655,-0.012164886905066669,0.010202692587161437
1771956713358411800,0.931411865234375,-0.012947159856557845,-0.018868914588354525,0.0016547358039300888
1771956713378375000,0.951375,-0.007283727267384529,-0.0013125804359093308,0.002248107720352709
1771956713398337800,0.971337890625,-0.011627893951535224,-0.01169551582764834,-0.019060975694889203
1771956713418301000,0.991301025390625,-0.03992401410937309,-0.00593004763610661,-0.009602562136389315
1771956713438263800,1.011263916015625,-0.023778350472450256,-0.008171287224255502,-0.0068685340626165265
1771956713458227000,1.03122705078125,-0.009268179082870483,-0.027035598702728748,0.010158122793072833
1771956713478189800,1.05118994140625,-0.016906711137294767,-0.026373664195276796,-0.011918410463863983
1771956713498153500,1.071153564453125,-0.022892215287685393,-0.01981109080929309,-0.02455997496997006
1771956713518116400,1.091116455078125,-0.03755143975913525,-0.0003689794428646564,0.009409816043265164
1771956713538079200,1.111079345703125,-0.015416764840483665,-0.00539740206412971,0.0016710019521415233
1771956713558042400,1.13104248046875,-0.02365092470049858,-0.020415924834646285,-0.000971000456623733
1771956713578005200,1.151005126953125,-0.010937573599815368,0.003244571411795914,0.0135787357583642
1771956713597968400,1.170968505859375,0.0004348842859268188,-0.008087079539522528,-0.0059742064382415265
1771956713617931300,1.19093115234375,-0.013635726642608642,-0.02137567324489355,0.024027968718810005
1771956713637895400,1.2108955078125,-0.020068390038609503,0.01061422339696437,-0.0019328951581846921
1771956713657858300,1.2308583984375,-0.03159223909378051,-0.0069874112019315355,0.017509654599661008
1771956713677821400,1.250821533203125,-0.0312923793643713,-0.007362235863693058,-0.006899458923842757
1771956713697784300,1.270784423828125,-0.03205225782096386,-0.01858242579717189,-0.018495158505672588
1771956713717747500,1.29074755859375,-0.00497661936879158,-0.017292276388779282,-0.014732947294786572
1771956713737710300,1.31071044921875,-0.0006529109507799148,-0.00021196225024759768,0.006632295887637883
1771956713757673200,1.330673095703125,0.00517009611427784,-0.01914524731170386,-0.006226272370014339
1771956713777637000,1.35063720703125,-0.024317864176630972,0.0015989596292376516,0.018944436643132938
1771956713797600300,1.370600341796875,-0.03076864775121212,-0.0100500501755625,-0.0010825893386267125
1771956713817563400,1.3905634765625,-0.013878303226828575,-0.01076685667540878,-0.008511396765662357
1771956713837526300,1.4105263671875,-0.028097967237234112,-0.01217124358061701,0.00562278091837652
1771956713857489400,1.430489501953125,-0.0014706570744514465,-0.02112549787610769,-0.010931518318364397
1771956713877452300,1.450452392578125,-0.03213935158252716,-0.015532755902968346,-0.014799454926047473
1771956713897416400,1.47041650390625,-0.025106384205818174,-0.014726736749708652,-0.012917285308102145
1771956713917379300,1.49037939453125,-0.006404606345295906,-0.020578093126416206,0.013477997063938528
1771956713937342500,1.510342529296875,-0.03811784147024155,-0.006513363949395716,0.008569848954631015
1771956713957305300,1.530305419921875,-0.03348082931935787,-0.006466967524401843,-0.0018319829338230191
1771956713977268500,1.5502685546875,-0.009081132078170776,-0.03282715118359774,-0.008831066307239234
1771956713997231400,1.5702314453125,-0.014153613036870955,-0.016340345958806575,0.005512132751289755
1771956714017194200,1.5901943359375,-0.0033569092124700545,-0.01830886955279857,0.01287317217173986
1771956714037157400,1.610157470703125,0.0011456629037857055,0.014334120702929795,-0.0296399268490728
1771956714057121300,1.630121337890625,0.010561726024746894,0.018611505761183797,-0.007568033234635368
1771956714077084400,1.65008447265625,0.005322071805596351,-0.015578312077745795,-0.023462261127447707
1771956714097047300,1.67004736328125,0.00787058724462986,-0.015641550039686262,0.022096598797431213
1771956714117010400,1.690010498046875,-0.07293021165430545,-0.019383659177459774,-0.009408765730494633
1771956714136973300,1.709973388671875,0.0017424597531557082,-0.031115305764414368,0.019621002464136107
1771956714156936400,1.7299365234375,-0.03221475490629673,-0.008144581880420446,-0.016371718344604595
1771956714176900400,1.749900390625,0.021216391029953954,-0.005575535110011696,-0.0034278738231398164
1771956714196863500,1.769863525390625,-0.043427638316154475,0.01306932493150234,-0.01967463234751485
1771956714216826400,1.789826416015625,0.0055050271570682525,-0.0034829102123156187,0.009759003940271214
1771956714236789200,1.809789306640625,-0.02278817039132118,-0.03574723988138139,-0.017488018156588077
1771956714256752000,1.829752197265625,-0.002291325807571411,-0.0033616949854418632,-0.0012953096406999975
1771956714276715300,1.84971533203125,0.003229483440518379,-0.0023086422685533762,0.003256481045298278
1771956714296678400,1.869678466796875,0.024760931769013405,-0.01783343406077474,-0.008964666091650723
1771956714316642300,1.889642333984375,-0.0035509704798460003,0.002487250238470733,-0.01349637297084555
1771956714336605200,1.909605224609375,-0.003279167801141739,0.001740925383195281,-0.012485332764778286
1771956714356568300,1.929568359375,-0.008392565292119979,-0.002477569094672799,-0.0038268648117780685
1771956714376531500,1.949531494140625,-0.05287117396593093,-0.015901223889179528,-0.01546926221270114
1771956714396494300,1.969494384765625,-0.06786240687072277,-0.038442214586399494,-0.00983353961436078
1771956714416457500,1.98945751953125,-0.03898001125752926,-0.051565534727461636,0.030591108360374344
1771956714436420400,2.00942041015625,-0.022960604348778724,-0.00315280147511512,-0.00756086370833218
1771956714456384500,2.029384521484375,-0.012026537880301474,0.004329699767380952,0.002481742946291342
1771956714476347400,2.049347412109375,0.0016074351966381072,-0.0070321271264925595,-0.034005492514278736
1771956714496310300,2.069310302734375,0.006252630653977393,0.006748816673085093,-0.00907505853041075
1771956714516273200,2.089273193359375,0.007734978166222572,0.004362871384620666,-0.009523998741153627
1771956714536236300,2.109236328125,0.018187398597598076,-0.007311565122380852,-0.0069874203350860625
1771956714556199400,2.129199462890625,-0.024498481440544128,0.006834266466833651,-0.01923081583646126
1771956714576162000,2.149162109375,-0.022877602240443228,-0.026979411536082624,0.001944302468188107
1771956714596126200,2.169126220703125,-0.07585749727785587,-0.06357906699571758,0.03396844843951985
1771956714616089000,2.189089111328125,-0.03410334513187408,0.004534063233062624,-0.007238700815569609
1771956714636052200,2.20905224609375,0.009716507372260094,0.011266805554181338,-0.02768786119953729
1771956714656015000,2.22901513671875,0.017313538372516632,-0.015755933666974305,-0.03547870687199756
1771956714675978200,2.248978271484375,-0.05168284096419811,-0.01330141665432602,0.009781005709525198
1771956714695941000,2.268941162109375,0.003683656948804855,-0.025290033677034078,0.02938115718187764
1771956714715904300,2.288904296875,-0.02158522434234619,-0.004312639034725726,-0.007678078613523393
1771956714735868200,2.3088681640625,0.005199322208762168,0.0071317515760660165,-0.011428160995198413
1771956714755831300,2.328831298828125,-0.0482195487678051,-0.018206103298068047,0.002117275281762704
1771956714775794200,2.348794189453125,-0.006464812099933624,-0.024026114688441156,0.006684930257173254
1771956714795757300,2.36875732421875,-0.01454465818107128,-0.02494958620890975,0.00027599479663185776
1771956714815720200,2.38872021484375,-0.010797872868180274,-0.005359810000099241,-0.01553292029974982
1771956714835683000,2.40868310546875,-0.004971358671784401,-0.005496588122285902,0.0019340916014276444
1771956714855646200,2.428646240234375,-0.021591069561243056,-0.014516235804185271,-0.009237500816816464
1771956714875610000,2.448610107421875,-0.026657120779156683,-0.013642083318158983,0.00332288821185939
1771956714895573200,2.4685732421875,-0.00869885476231575,-0.004079159072414041,-0.01741378387659788
1771956714915536100,2.4885361328125,-0.010200491496920585,0.019520364234410226,-0.0032161399017553776
1771956714935499300,2.508499267578125,0.02165536696910858,0.00022558891680091617,-0.004790750541025773
1771956714955462100,2.528462158203125,-0.025203999361395835,-0.02994330284297466,0.010606021824199705
1771956714975425300,2.54842529296875,-0.030587445965409278,-0.01144376955628395,0.0198852611572016
1771956714995388200,2.56838818359375,-0.004986556240916252,0.007200505963340402,-0.008628894798643887
1771956715015352300,2.588352294921875,-0.003940846580266952,-0.00297214767858386,-0.011210371792363002
1771956715035315200,2.608315185546875,-0.0352180283755064,-0.021602394672855733,0.001976268509030342
1771956715055278300,2.6282783203125,-0.018163433200120926,0.013206943303905427,0.0230927793610841
1771956715075241200,2.6482412109375,-0.0075385788112878795,-0.013272775081731377,-0.0051244760074187065
1771956715095204000,2.6682041015625,-0.011879822885990142,0.002069463217817247,-0.009923071928182616
1771956715115167200,2.688167236328125,0.008908113598823547,-0.015040077015198767,0.01246207975335419
1771956715135131100,2.708131103515625,-0.0433177482008934,-0.020258724978938696,0.0010402571673970669
1771956715155094300,2.72809423828125,-0.0035293431699275966,-0.015385164125822484,-0.013529964713193475
1771956715175057200,2.74805712890625,-0.015501520514488219,-0.011939992108009756,-0.006671842446736991
1771956715195020300,2.768020263671875,-0.004288052582740783,-0.017276311634667217,0.008521297105168923
1771956715214983200,2.787983154296875,-0.02268178740739822,-0.04580532723292708,0.0064837451292667535
1771956715234946300,2.8079462890625,0.0018839140504598615,-0.023799283662624657,0.008026983382739127
1771956715254909200,2.8279091796875,-0.02800795086622238,-0.009267740691453218,0.008034773963550105
1771956715274873300,2.847873291015625,0.006271919876337051,0.010560995372384786,-0.0023646011063363404
1771956715294836200,2.867836181640625,-0.01482873581945896,-0.01641728365253657,0.006183456141594797
1771956715314799400,2.88779931640625,-0.006900865429639816,-0.005497903296537697,-0.009319891003798693
1771956715334762200,2.90776220703125,-0.008404840251803398,0.007020984677970409,-0.01811711897351779
1771956715354725000,2.92772509765625,0.016428572231531144,-0.005570566673949361,0.0003406666638329625
1771956715374688300,2.947688232421875,-0.04868307462632656,0.002905000726506114,0.00799446935262531
1771956715394651100,2.967651123046875,-0.036389410242438316,-0.01112115000579506,0.014018506281962618
1771956715414615000,2.987614990234375,-0.014110358417034148,0.01887834000382572,-0.01040159442643635
1771956715434578200,3.007578125,-0.06171791276633739,-0.015239691240526735,-0.026676172539498656
1771956715454541300,3.027541259765625,0.02085983267724514,-0.03456877068653703,0.015223918282659723
1771956715474504200,3.047504150390625,-0.07714929065406322,-0.012881876068003475,-0.011346136134397238
1771956715494467300,3.06746728515625,0.009037877458333968,-0.017985994273982942,-0.007466636953083798
1771956715514430200,3.08743017578125,-0.04139525570571422,0.012716419840604067,0.0004950443747919052
1771956715534393300,3.107393310546875,-0.014455226331949234,0.00944726197682321,0.015529495366802438
1771956715554357200,3.127357177734375,-0.010428455033898353,-0.021035444972477852,-0.013699704390065744
1771956715574320400,3.1473203125,-0.02883446481823921,0.0013555427948012948,-0.011603709358349442
1771956715594283300,3.167283203125,-0.002496492990851402,-0.0011062442088499666,-0.008157359163602813
1771956715614246400,3.187246337890625,-0.009826982009410857,-0.013447729789838193,0.02304041898618452
1771956715634209300,3.207209228515625,-0.030029812082648277,0.004814670272730291,0.008994814634742214
1771956715654172400,3.22717236328125,-0.004600771793723106,0.02079191854018718,-0.0225192720557563
1771956715674135600,3.247135498046875,-0.00028057050704956055,0.00026453268770128486,0.007352792181912809
1771956715694099500,3.267099365234375,-0.04426058200895786,-0.026623656900972126,-0.013645480851642787
1771956715714062300,3.287062255859375,0.015144962161779402,-0.009827603063918649,0.01247382499007508
1771956715734025200,3.307025146484375,-0.029145430463552474,0.0036832185573875903,-0.007305482441466301
1771956715753988400,3.32698828125,-0.0038543373405933376,0.0023073636269196865,0.0022966504366602747
1771956715773951200,3.346951171875,-0.035134441745281214,-0.014405724634416401,0.0038583467954304068
1771956715793914400,3.366914306640625,-0.022266776865720747,0.011725472574494779,0.010875230687018483
1771956715813878300,3.386878173828125,-0.012092588853836059,0.0047384997639805075,-0.003496500346250832
1771956715833841400,3.40684130859375,-0.008967150309681891,-0.017073884397745133,-0.012093611767143011
1771956715853804300,3.42680419921875,-0.016155600509047508,-0.0129218792848289,0.01452848336440511
1771956715873767400,3.446767333984375,-0.0058329439371824264,-0.0053884881053119895,0.0019988548001740125
1771956715893730300,3.466730224609375,-0.002096095496416092,-0.0066990592472255224,-0.012930765844183041
1771956715913693400,3.486693359375,-0.015416180318593977,0.012253661167062817,0.00419004470151849
1771956715933656600,3.506656494140625,-0.022005495581030845,-0.015661971773207186,0.008998367431852967
1771956715953620500,3.526620361328125,-0.02350888588130474,0.0010810367023572325,-0.01511121515580453
1771956715973583400,3.546583251953125,-0.009608370822668076,0.0014888868508860468,0.015749540458805857
1771956715993546200,3.566546142578125,-0.0018295535147190092,-0.010659962234832347,0.006144996427884325
1771956716013509400,3.58650927734375,-0.016034019955992698,-0.01911021253094077,-0.0016905743022914974
1771956716033472300,3.60647216796875,-0.021707389417290685,-0.0004138049652799964,0.01806637516696937
1771956716053435400,3.626435302734375,0.0049205052673816675,0.024474516043066975,-0.023582572172023353
1771956716073398300,3.646398193359375,-0.039386253970861436,0.001945361914113164,-0.004211936872918158
1771956716093362400,3.666362548828125,-0.015595044016838073,-0.034025822916254396,-0.005120347821572795
1771956716113325300,3.6863251953125,-0.014541735571622848,0.0030668036920949815,0.006964852310251444
1771956716133288400,3.706288330078125,-0.0013707038313150405,0.005247727927751839,-0.01221341135506518
1771956716153251300,3.726251220703125,-0.02322130111157894,-0.028875417883135378,0.005318455076403916
1771956716173214500,3.74621435546875,-0.03219195855259895,-0.019943083158507943,0.01744901045360602
1771956716193177300,3.76617724609375,-0.013605331504344939,-0.007205072540603577,0.016819946169294418
1771956716213141500,3.7861416015625,-0.018969488885998725,0.0019512801982462405,0.002639700853824615
1771956716233104100,3.806104248046875,-0.0026537293791770934,0.007277589787542819,-0.027136949318507686
1771956716253067300,3.8260673828125,-0.010430208599567413,-0.012051087799668311,0.005968078091554343
1771956716273030400,3.846030517578125,-0.01191781680881977,-0.008738711848668753,0.00014101590588688848
1771956716292993300,3.8659931640625,-0.001287117201089859,-0.012433036321960389,-0.00298757357657887
1771956716312956400,3.885956298828125,-0.01564998907446861,0.00965633815024048,0.014447307886974885
1771956716332919300,3.905919189453125,-0.007429273217916488,-0.0035367592914029955,-0.017073573870491236
1771956716352883500,3.925883544921875,-0.015671616384387015,-0.01904332130718976,-0.00966848524576053
1771956716372846300,3.945846435546875,-0.02152034241259098,-0.01866875237375498,0.0011353972380980849
1771956716392809500,3.9658095703125,-0.013301380121707916,-0.0063684390533715485,0.013964237077767028
1771956716412772400,3.9857724609375,0.00883738645017147,-0.0062216875264421104,-0.004329142644954845
1771956716432735500,4.005735595703125,-0.01151391218304634,-0.007572919472306966,-0.001608156715845689
1771956716452698000,4.025697998046875,-0.023934417816996574,-0.017297135226987302,0.011784326622262597
1771956716472661200,4.0456611328125,-0.03139876234829426,-0.017191629025898873,0.0002232782287057489
1771956716492625000,4.065625,-0.037080315116047854,-0.002505260819196701,-0.019380763967474922
1771956716512588000,4.085588134765625,0.015432546931505203,-0.006051482058688998,-0.02058313462771475
1771956716532551200,4.10555126953125,-0.024227847805619238,-0.019260069330409166,0.002426158567843959
1771956716552514000,4.12551416015625,-0.010313888743519782,-0.030199652224220334,-0.006319905470218509
1771956716572477200,4.145477294921875,-0.017485387808084486,0.0010997414028272032,-0.014200009461864829
1771956716592440000,4.165440185546875,-0.026304069557785987,0.003927146848477423,-0.011278760853456332
1771956716612403000,4.18540283203125,-0.014931027150154113,-0.011614961404725909,-0.017155662663374094
1771956716632366800,4.205366943359375,-0.013897007927298545,-0.0028768340779468417,-0.0034890385590028014
1771956716652330000,4.225330078125,0.0019546411991119383,-0.011216280943341553,0.007010097957774996
1771956716672292900,4.24529296875,-0.04548457084596157,-0.031369901579990984,0.015196884145261718
1771956716692256000,4.265256103515625,0.007933131086826323,-0.003766293730959296,0.0027867903074715286
1771956716712219000,4.285218994140625,-0.027687048348784445,0.002219173886813223,0.01024983793082647
1771956716732182000,4.30518212890625,-0.013768997633457182,0.002691613704152405,-0.0042406697770580645
1771956716752146000,4.32514599609375,-0.034276948133110996,-0.0017512641141191124,0.002273707952490076
1771956716772109000,4.345109130859375,-0.020670447584986686,-0.004619513026811182,-0.007933889138652011
1771956716792072000,4.365072021484375,-0.01483750364780426,-0.006330773924104869,-0.006103732835734263
1771956716812035000,4.38503515625,-0.003621697628498077,0.0019676102785393594,-0.009443471717694774
1771956716831998200,4.404998291015625,-0.003623451194167137,-0.006511427720636129,0.016785961701301855
1771956716851960800,4.4249609375,-0.02516892804801464,-0.013235767539590597,-0.019789591363538056
1771956716871924000,4.444924072265625,-0.015885551396012304,-0.0003209755826741457,0.0013010543948970734
1771956716891887900,4.464887939453125,-0.014093407282233237,-0.00029302812982350587,0.0020912183918990195
1771956716911851000,4.48485107421875,-0.004223755174875259,-0.02562171331681311,-0.016629629495274273
1771956716931814000,4.50481396484375,-0.0025695582270622254,-0.00949964975118637,-0.00547470508404076
1771956716951777000,4.524777099609375,-0.010494506007432937,0.013607085070014,-0.015219415637478232
1771956716971740000,4.544739990234375,-0.014229016360640525,0.010274689244292676,-0.011083795403782277
1771956716991703000,4.564703125,-0.017219430348277092,0.0024732582457363604,-0.002095593172917142
1771956717011667000,4.5846669921875,0.0020773907959461212,-0.014977642770856617,0.015657770522125063
1771956717031630000,4.604630126953125,-0.034445290437340736,-0.012763948776759206,0.007192687983065843
1771956717051593000,4.624593017578125,-0.00137421096265316,-0.019156499358080326,-0.013999856380419805
1771956717071556000,4.64455615234375,-0.0012175590962171553,-0.0011638926802203058,-0.005604797737114131
1771956717091519200,4.664519287109375,-0.021418051081895827,0.005652399738505482,-0.013672012665541841
1771956717111481900,4.68448193359375,0.005796119058132172,0.0055085708210244775,-0.009471948893507942
1771956717131445000,4.704445068359375,-0.02369710192978382,0.001974478410743177,-0.021592750061675905
1771956717151409000,4.724408935546875,-0.010686229187250137,-0.019555545145645736,0.0007231266427785158
1771956717171372000,4.7443720703125,-0.021902619728446007,-0.00595759323015809,0.000988627444859594
1771956717191335000,4.7643349609375,-0.016062077006697654,0.0008029504133388399,-0.029246671481477096
1771956717211298000,4.784298095703125,-0.013069909453392028,-0.014704196124337612,0.00976692238524556
1771956717231261000,4.804260986328125,-0.016522680255770684,-0.0012954831706359982,-0.0011291227609384804
1771956717251224000,4.82422412109375,-0.013833879563212394,-0.00625098668616265,0.003849158841976896
1771956717271187000,4.84418701171875,-0.0319371070086956,-0.003088138741068542,-0.00531949625601992
1771956717291151000,4.864151123046875,0.004127893584966659,-0.005053958921320736,-0.005596194305550307
1771956717311114000,4.884114013671875,-0.024750410374999046,-0.0029332769729197026,-0.005053310467349365
1771956717331077000,4.9040771484375,-0.0005143792629241943,0.008193900914862752,-0.001118473502760753
1771956717351040000,4.9240400390625,-0.010397475373744964,-0.01231057898607105,0.004296692546922713
1771956717371003000,4.9440029296875,-0.01248772565126419,-0.02592537243850529,0.019887781907850875
1771956717390966000,4.963966064453125,-0.010986088916659354,0.016013196363672613,0.003023074148222804
1771956717410930000,4.983929931640625,-0.022802783438563345,0.0024216011237353087,-0.033773455590382216
1771956717430893000,5.00389306640625,-0.010389876589179038,-0.021482494620233772,-0.002318012885097414
1771956717450856000,5.02385595703125,-0.019362872117757796,-0.014511523096449673,-0.005388232376985252
1771956717470819000,5.043819091796875,0.00039396775364875793,0.009209325035102665,-0.022067445768183095
1771956717490782200,5.0637822265625,0.0035293431699275966,0.002985335953719914,-0.0030419889112468807
1771956717510745300,5.083745361328125,-0.016526771908998487,0.01363733407780528,-0.0034880065125413237
1771956717530709200,5.103709228515625,-0.013380290576815605,0.0002405307576060295,-0.01782462056665681
1771956717550672400,5.12367236328125,-0.0129360539406538,-0.014389942543394863,-0.008855196101497858
1771956717570635300,5.14363525390625,-0.03388765655457973,-0.0017983911914750933,0.004906221013702452
1771956717590598400,5.163598388671875,0.0008265139520168304,-0.006033581075817346,0.003975461235921829
1771956717610561300,5.183561279296875,-0.009946224474906921,-0.006153188867494464,-0.0155913450892549
1771956717630524200,5.203524169921875,-0.01906242786645889,-0.0004364551885053515,0.013040171902254222
1771956717650487300,5.2234873046875,-0.009182838886976241,-0.008041852158308029,-0.018671108727622777
1771956717670451200,5.243451171875,-0.023857260927557945,-0.0022876360131427642,-0.002135623789206147
1771956717690414000,5.2634140625,-0.03134615537822246,-0.0056376040281727905,-0.0059714299592655146
1771956717710377200,5.283377197265625,-0.012484803041815757,-0.013533179583586751,-0.007269589144177735
1771956717730340400,5.30334033203125,-0.012030045011639595,0.012879464915208519,0.004528574207192286
1771956717750303200,5.32330322265625,0.012810381734371185,0.0079491689061746,-0.013042893582303075
1771956717770266400,5.343266357421875,-0.012485387563705444,-0.003924881826154887,-0.0005955456071998923
1771956717790230300,5.363230224609375,-0.013387304839491843,-0.011117789004929364,0.004566750793112442
1771956717810193400,5.383193359375,-0.03417816393375397,-0.009893982831016182,-0.005734826458105817
1771956717830156300,5.40315625,-0.01158756194114685,0.013878705085627734,0.004256123074516654
1771956717850119400,5.423119384765625,-0.027900983360409734,-0.02099237301573157,-0.006198251851927489
1771956717870082300,5.443082275390625,-0.01652501834332943,-0.019646767093054948,-0.002319903448084369
1771956717890045200,5.463045166015625,-0.0032078561305999755,-0.010998108148016035,0.023516849992051718
1771956717910008300,5.48300830078125,0.007866495591402053,-0.0023869682017713784,-0.002488391882786527
1771956717929972200,5.50297216796875,-0.029537060129642485,0.005728424116782844,-0.003096093718660995
1771956717949935000,5.52293505859375,-0.02070551889836788,-0.0007941095197573304,0.002782634722162038
1771956717969898200,5.542898193359375,-0.026400515669584273,-0.004976728966645896,-0.0002286667898762971
1771956717989861400,5.562861328125,0.0021796821266412735,-0.0036953473865985868,-0.013606674078060313
1771956718009824300,5.58282421875,-0.031926001092791555,0.00962981546949595,-0.002203921518754214
1771956718029787400,5.602787353515625,-0.00842997469305992,0.007628010660409927,-0.014888000859180465
1771956718049751300,5.622751220703125,-0.0005056114345788955,0.010728095567598938,0.011487188572902231
1771956718069714400,5.64271435546875,-0.03478022148013115,0.0028946985282003877,0.009922770534083247
1771956718089677300,5.66267724609375,-0.005298690930008888,-0.013671236347407101,-0.0049719431936740876
1771956718109640400,5.682640380859375,-0.022215338939428328,-0.00174571115616709,0.009901563349273055
1771956718129603000,5.70260302734375,-0.006802081230282783,-0.00899502469729632,-0.009665800098329782
1771956718149566200,5.722566162109375,-0.017730887001752852,0.0066665452171117065,-0.00975495795281604
1771956718169529000,5.742529052734375,-0.011595745247602462,0.00375288626011461,0.007244089376740157
1771956718189493200,5.7624931640625,-0.03477496078312397,0.003364617594890296,-0.017093064022250474
1771956718209456000,5.7824560546875,-0.013824527212977408,0.0032774873007088896,0.007634102474479004
1771956718229419300,5.802419189453125,-0.019368717336654663,-0.015116174458712339,0.0016577223454602062
1771956718249382100,5.822382080078125,-0.01023731637597084,-0.007324059277772903,0.003105765729304403
1771956718269345300,5.84234521484375,-0.009487959313392639,0.021647695119306445,-0.0016080105853732674
1771956718289308400,5.862308349609375,-0.019814707538485524,-0.0129347022337839,-0.007675621794955805
1771956718309272300,5.882272216796875,-0.010830021572113036,-0.014834763701446353,0.009765872072475031
1771956718329235200,5.902235107421875,-0.01876315265893936,0.0072565469995141026,-0.014297789014223962
1771956718349198300,5.9221982421875,-0.009176993668079376,-0.0034070319645106793,-0.025042424724670127
1771956718369161500,5.942161376953125,-0.01995616183578968,-0.008632109669037163,-0.005777487422898411
1771956718389124000,5.9621240234375,-0.01787000321149826,-0.0059859425418078895,-0.004457280802959576
1771956718409087200,5.982087158203125,-0.007399462601542473,0.009703209499269724,-0.015252395458472892
1771956718429050000,6.002050048828125,-0.006654197192192077,-0.024000578388385475,0.0035137163425330072
1771956718449014300,6.02201416015625,0.004267594316601753,0.0100459950549528,0.007486684227269142
1771956718468977200,6.04197705078125,-0.030449498799443243,0.0021680647540837524,0.0046792529905680565
1771956718488940800,6.06194091796875,-0.018786533534526823,-0.01179656504932791,-0.018230178293399513
1771956718508903700,6.081903564453125,-0.019094576570391653,-0.0009433087320998311,0.003264472555508837
1771956718528866800,6.10186669921875,-0.02582593065202236,-0.014324987548403442,-0.018057671270705757
1771956718548829700,6.12182958984375,0.0005108721315860748,-0.0033528906244784593,0.0055026616700459266
1771956718568793900,6.1417939453125,-0.008470306703448295,-0.0038005978593602776,-0.017285581786511465
1771956718588756700,6.1617568359375,-0.010413841986656189,-0.018003091539256274,0.006700511418795213
1771956718608720000,6.181719970703125,-0.018639818540215493,-0.0012261077288538216,0.011857830249890684
1771956718628682800,6.201682861328125,-0.023273908081650734,0.003910268778912723,-0.012633682593749836
1771956718648646000,6.22164599609375,-0.01355214001238346,-0.015160780785419046,-0.022500850483076644
1771956718668608800,6.24160888671875,-0.010868015494942665,-0.006009981004521251,-0.009691619526175782
1771956718688572700,6.26157275390625,-0.006219897428154945,-0.0025992592455819246,0.011446034578606486
1771956718708535600,6.28153564453125,-0.011153846698999404,0.021055355249345303,0.015391602999763563
1771956718728498700,6.301498779296875,-0.006523264288902282,-0.0034327143950387833,-0.0041285055063199246
1771956718748461800,6.3214619140625,-0.012359715357422828,-0.006833389683999121,0.0018193152484949676
1771956718768424700,6.3414248046875,-0.012951836031675337,0.0011146101783961057,-0.005296078847814351
1771956718788387800,6.361387939453125,-0.0035188217759132383,-0.01176511046513915,-0.007607050070771947
1771956718808350700,6.381350830078125,-0.012795184165239334,0.016061930876225233,-0.026580146552808583
1771956718828315000,6.40131494140625,0.002466682374477386,0.00763674195613712,0.003429234663164243
1771956718848277800,6.42127783203125,-0.01608838049173355,-0.005726232159696519,0.007192788447765633
1771956718868241000,6.441240966796875,-0.01668400829732418,0.010774090133793652,0.00004472505771555006
1771956718888203800,6.461203857421875,-0.006495791760087013,-0.007011449664644897,-0.0005258139723911882
1771956718908166700,6.481166748046875,-0.0142693483710289,0.0029025165084749457,0.012665484237810595
1771956718928129800,6.5011298828125,-0.005141454541683197,-0.01546608387492597,0.0027992022644728423
1771956718948093700,6.52109375,-0.02293722347319126,0.003646795537136495,-0.005087961655622348
1771956718968056600,6.541056640625,-0.006916647520661354,0.011671404299698769,0.029707192532159386
1771956718988019700,6.561019775390625,-0.022611644780635834,0.005867978717945516,-0.008033851514942944
1771956719007982800,6.58098291015625,0.02079085909426212,-0.0029428850514814256,-0.009929985726159066
1771956719027945700,6.60094580078125,-0.0435574021756649,-0.012508366580493747,-0.011521465301839635
1771956719047908900,6.620908935546875,-0.029174072036147115,-0.021033070352301002,-0.0052661129678133875
1771956719067872800,6.640872802734375,0.04698445401489734,-0.020434446872025728,0.025875742876809087
1771956719087836000,6.6608359375,-0.06836334213018418,0.008324358894117177,-0.00588319455338642
1771956719107798800,6.680798828125,-0.004763853400945663,0.0009261018689721822,-0.012104251892166212
1771956719127762000,6.700761962890625,-0.011194763231277466,0.0028384017636999487,-0.009047649933677166
1771956719147724800,6.720724853515625,-0.006399345648288726,-0.0031869229404255747,0.006847911399696022
1771956719167687700,6.740687744140625,-0.005502689069509506,-0.0340812063653022,-0.010516398178832605
1771956719187651800,6.76065185546875,-0.02733691973686218,-0.019464140535145998,0.0009396372039802372
1771956719207614700,6.78061474609375,-0.005479308193922043,-0.00265256033539772,0.011576538223633541
1771956719227577600,6.80057763671875,-0.01579085884988308,-0.003209061706997454,0.0032265973636880513
1771956719247540700,6.820540771484375,-0.012339257091283798,-0.017395407969690857,0.0024077278620097784
1771956719267503600,6.840503662109375,-0.012639116820693016,0.0007268529698252678,-0.0033121658884454515
1771956719287466800,6.860466796875,-0.025657003825902937,0.00001961801592260599,-0.008769198318477719
1771956719307430000,6.880429931640625,0.0060655836492776866,-0.003847103882208466,-0.00656429041903466
1771956719327393800,6.900393798828125,-0.01203589023053646,-0.014393595805205404,0.024392710377974434
1771956719347356700,6.920356689453125,-0.012342179700732231,-0.002564297530055046,0.0011693451734725384
1771956719367319800,6.94031982421875,-0.006209960556030273,-0.001675860790349543,0.0023458690064027906
1771956719387283000,6.960282958984375,0.00007832593321800231,0.014036525995843112,0.006314635640056803
1771956719407245800,6.980245849609375,-0.017431027272343635,0.003165003369562328,-0.012154776503005995
1771956719427208700,7.000208740234375,-0.019686112722754476,-0.010439560949802399,0.004370570633886382
1771956719447172600,7.020172607421875,-0.03436053476333618,-0.02034691471904516,0.004544538961304351
1771956719467135700,7.0401357421875,-0.01790098287165165,-0.01728018409218639,0.006932849736791103
1771956719487098600,7.0600986328125,-0.027620412853360175,-0.004854490826465189,0.007123714400082826
1771956719507061200,7.080061279296875,-0.009799509480595587,0.01361607209406793,0.015281402357248588
1771956719527024000,7.100024169921875,-0.006799743142724037,0.00826221691071987,-0.01254119113786146
1771956719546987000,7.119987060546875,-0.011295300996303558,-0.01230579321309924,-0.011545403299853206
1771956719566951000,7.139950927734375,-0.013092121285200119,-0.009372370109707116,0.003808013980835676
1771956719586914000,7.1599140625,0.0015764555364847182,-0.009941256038844585,-0.00005984042845666408
1771956719606877200,7.179877197265625,-0.009346505016088484,0.005584449068829417,-0.014551179253403096
1771956719626840000,7.199840087890625,-0.004268763360381126,-0.0014110358417034148,0.00030021592243574557
1771956719646803200,7.21980322265625,-0.007566051340103149,0.015399777173064648,-0.0011218801693990827
1771956719666766000,7.23976611328125,-0.013853753307461738,0.008429353638552128,0.0008511826023925095
1771956719686729200,7.259729248046875,-0.01999357123672962,-0.004292326899059116,-0.01154847203977406
1771956719706693000,7.279693115234375,-0.02014437788426876,-0.001993146578595042,-0.010122430425183846
1771956719726656300,7.29965625,-0.016107669714093206,-0.0177737397627905,0.019845486269239335
1771956719746619100,7.319619140625,-0.016102993538975714,-0.011103833544813096,0.008515926810307427
1771956719766582300,7.339582275390625,-0.01655073730647564,0.002239924413897097,-0.002705267770169303
1771956719786545200,7.359545166015625,-0.026420973935723305,0.016625227314792573,0.005421705388324335
1771956719806508000,7.379508056640625,-0.015637129592895507,-0.013199965573847294,-0.0014942388794384896
1771956719826472000,7.399471923828125,-0.015339023429155349,0.0019118615033105015,0.010889670204324646
1771956719846435000,7.41943505859375,-0.008605915781855582,-0.005172872593253851,-0.017154064361331982
1771956719866398200,7.439398193359375,0.002167407166957855,-0.0060043915139511225,-0.00004772073240019381
1771956719886361000,7.459361083984375,-0.013992284995317458,-0.0008008315214887261,-0.0036827618996612727
1771956719906324200,7.47932421875,-0.0172843122780323,0.005688786226138472,0.007288567839283496
1771956719926287000,7.499287109375,-0.007705752071738243,0.004885945410653948,-0.01066218159138225
1771956719946251300,7.519251220703125,-0.019828736063838004,-0.00035549890678375956,-0.0013544285499490797
1771956719966214100,7.539214111328125,-0.016392331874370576,-0.0091818890389055,-0.012122171141346916
1771956719986177300,7.55917724609375,-0.01549625981748104,0.005269464835524559,-0.000989120635204017
1771956720006140200,7.57914013671875,-0.017588263660669325,-0.01053651851825416,-0.008892486771428957
1771956720026103000,7.59910302734375,-0.0068108490586280815,-0.0038156127654016014,-0.008222743416856974
1771956720046066000,7.61906591796875,-0.01997837366759777,0.01737867603059858,0.009968847298668697
1771956720066030000,7.639030029296875,-0.012644962039589881,0.011641191824525594,-0.0018224844531156122
1771956720085993000,7.658992919921875,-0.014298574465513228,-0.002978613951988518,-0.02507772436691448
1771956720105956000,7.6789560546875,-0.005765723919868469,-0.007396430394239723,-0.0049605358836706725
1771956720125919000,7.6989189453125,-0.025669863307476042,-0.010953465288691223,-0.00035092319636605677
1771956720145882000,7.718882080078125,-0.010554127240180969,-0.004896503337286412,-0.006050577876390889
1771956720165845200,7.73884521484375,-0.006063830083608627,-0.014666494462452828,0.0025056900774594396
1771956720185809200,7.75880908203125,-0.014140169033408164,0.0024739158328622576,0.001331120739597827
1771956720205772300,7.778772216796875,-0.01922843208312988,0.0006483443735167384,-0.0005045976544264703
1771956720225735200,7.798735107421875,-0.02162497183084488,-0.010250175857543944,-0.012488830762961879
1771956720245698300,7.8186982421875,-0.01325111123919487,-0.01014583870023489,-0.003921877018315718
1771956720265661200,7.8386611328125,-0.020577508604526517,0.00047773704696446655,-0.009097078565973788
1771956720285624000,7.8586240234375,-0.011748889982700347,-0.006683532884530723,0.012707807275885715
1771956720305588200,7.878588134765625,-0.019375147077441215,0.015781725695356727,0.007546104530617595
1771956720325551000,7.898551025390625,-0.007999182060360908,0.010318418788164854,-0.005102017580438405
1771956720345514000,7.918513916015625,-0.03149228585064411,0.012206132230907678,-0.017828273828467352
1771956720365477000,7.93847705078125,-0.018622282883524893,0.0005633329711854458,-0.00823244282696396
1771956720385440000,7.95843994140625,-0.0021639000356197357,-0.003997764399275183,0.015050278748804703
1771956720405403100,7.978403076171875,-0.016383564046025274,-0.011480777098424731,-0.0006597334172111004
1771956720425367000,7.998366943359375,-0.010690320840477942,-0.0010484130743891,0.002731854382995516
1771956720445330200,8.018330078125,-0.00829670370221138,-0.004953640352003276,0.006417904218286276
1771956720465293000,8.03829296875,-0.008441080608963966,-0.0041834596971049905,0.010227087242901325
1771956720485256200,8.058256103515625,-0.023701193583011627,-0.007617306603305041,-0.0019077698500826953
1771956720505219300,8.07821923828125,-0.0204126734316349,-0.013822262190654872,0.0038347101915162055
1771956720525182200,8.09818212890625,-0.015172434690594672,-0.007448124048858881,0.0012327840648125856
1771956720545145300,8.118145263671876,-0.010831775137782097,-0.012459632067941128,-0.008124845133488998
1771956720565109200,8.138109130859375,-0.005150222370028495,-0.007155242049507796,0.010024970533233136
1771956720585072400,8.158072265625,-0.018620529317855832,0.0038894817192107437,0.019983278171578422
1771956720605035300,8.17803515625,-0.008000935626029968,0.00123440063316375,0.007262702745664864
1771956720624998400,8.197998291015624,-0.04286941991150379,-0.0010381839413195848,-0.002380775923002511
1771956720644961000,8.2179609375,-0.015036241090297699,-0.011878617309592663,-0.004946251629991456
1771956720664924200,8.237924072265624,-0.0051508068919181825,-0.01865486997887492,-0.0066763359587639565
1771956720684888000,8.25788818359375,0.00008475567400455475,-0.004287833387032151,-0.002213630062015727
1771956720704851200,8.277851318359374,-0.018621698361635207,0.0024855697380378843,0.0063621737093664706
1771956720724814000,8.29781396484375,-0.007852467066049576,-0.002547894384525716,-0.0076613375412765885
1771956720744777200,8.317777099609375,-0.0232709854722023,-0.008426248366013168,0.003295269552571699
1771956720764740400,8.337740234375,-0.02926058127582073,-0.0023268720449879762,-0.004911216849228367
1771956720784703200,8.357703125,-0.009815291571617125,-0.0070956938819959755,0.0034828280139248815
1771956720804667100,8.377667236328126,-0.006079027652740478,-0.009028232847154139,-0.0025683526506647468
1771956720824630300,8.39763037109375,-0.012666589349508284,0.0017906097438186407,-0.012823725273134187
1771956720844593400,8.417593505859376,-0.006233341431617736,-0.0012447393640875816,0.019240350849786772
1771956720864556300,8.437556396484375,-0.012079729372262954,-0.011235679763555526,-0.00415223344177939
1771956720884519200,8.457519287109376,-0.017911504265666008,-0.007858494948036969,-0.00010620945398695766
1771956720904482000,8.47748193359375,-0.009832827228307724,-0.008709778015129267,-0.006552399051841348
1771956720924446200,8.4974462890625,-0.0029459903240203855,-0.023890688273124395,0.01524340843441896
1771956720944409000,8.5174091796875,-0.0008516483932733535,-0.004619330363720655,0.008631205486739053
1771956720964372200,8.537372314453124,-0.012675357177853584,-0.005633439309708774,-0.00414622382610105
1771956720984335000,8.557335205078125,-0.022249825730919836,-0.005417787265032529,-0.0029408392248675224
1771956721004298200,8.57729833984375,-0.008332359537482261,-0.007926810943894087,0.012306359468679874
1771956721024261000,8.59726123046875,-0.016713818913698195,-0.008301891333982347,-0.014688532764324918
1771956721044225300,8.617225341796875,-0.006089549046754837,-0.03031235535107553,0.014358716288069262
1771956721064188200,8.637188232421876,-0.014773206239938734,-0.006933014133572578,0.012854677533823996
1771956721084151300,8.6571513671875,-0.018219547301530838,-0.0011090572204440832,-0.002258537782821804
1771956721104114200,8.6771142578125,-0.017771803534030912,0.012313318932428955,-0.0015342694957274942
1771956721124077300,8.697077392578125,-0.020613748961687085,0.008353584988601505,-0.0050276006373576815
1771956721144040200,8.717040283203126,-0.023756723162531853,-0.003136106068640947,-0.002537226860038936
1771956721164004400,8.73700439453125,-0.0038648587346076964,-0.0015335297102108596,-0.00407615426457487
1771956721183967200,8.75696728515625,0.0006283610314130782,-0.01573949398882687,0.01363703268370591
1771956721203930000,8.77693017578125,-0.022564883029460907,-0.0035946634911000726,0.01682028409601189
1771956721223893200,8.796893310546874,-0.018224807998538015,-0.011828056166134774,-0.0005701919702347368
1771956721243856100,8.816856201171875,-0.016271920365095137,0.011044979497045278,0.007358034612610935
1771956721263819300,8.8368193359375,-0.008190905240178108,0.007475560045056045,0.00949762219088152
1771956721283783200,8.856783203125,-0.029581483793258666,-0.009939173679612577,-0.007140144945075735
1771956721303746300,8.876746337890625,-0.021507482931017875,-0.01657627360653132,0.0020591701526660473
1771956721323709200,8.896709228515626,-0.004899462479352951,-0.0007821633536368608,0.008123758288100361
1771956721343672300,8.91667236328125,-0.02748947995007038,-0.005623283241875469,-0.0024898988532833753
1771956721363635200,8.93663525390625,-0.011634323692321777,0.0033799612944945693,0.0016323139095678924
1771956721383598300,8.956598388671875,-0.011785714861750602,0.012141615627333522,-0.01925345692653209
1771956721403562200,8.976562255859376,-0.01416822608411312,0.013795081922784447,0.0032041115372441705
1771956721423525400,8.996525390625,-0.02673252410292625,-0.022615371107682584,-0.001362904117349535
1771956721443488000,9.016488037109376,-0.025085341417789456,0.0013016571830958127,-0.00211468146587722
1771956721463451100,9.036451171875,-0.013265139764547348,-0.01094966589640826,-0.0008848474099766463
1771956721483414300,9.056414306640624,-0.017011340555548666,0.0017774580013006924,0.013325993973156437
1771956721503378000,9.0763779296875,-0.02180091291964054,-0.007211465748772025,0.0065418045925907786
1771956721523341800,9.096341796875,-0.00009995324313640594,0.009590506372414528,0.014355273088812827
1771956721543305000,9.116304931640625,-0.02359597964286804,0.0032793139316141602,-0.00071339983320795
1771956721563267800,9.136267822265625,-0.012072715109586714,0.0012045900167897343,-0.004425570490444079
1771956721583231000,9.15623095703125,-0.0015980828464031219,0.007080605910718441,-0.0066103945830836884
1771956721603194000,9.176194091796875,-0.019551088166236876,-0.006790135064162314,0.01672360052219592
1771956721623157000,9.196156982421876,-0.0036801498174667355,0.006879384250193834,-0.002071773905912414
1771956721643121000,9.216120849609375,-0.02343874325454235,-0.004475757174566388,0.0050256735417526215
1771956721663084000,9.236083984375,-0.013266893330216406,0.0023700901322066784,0.0042681788384914396
1771956721683047200,9.256047119140625,-0.011920739418268203,0.001649484240077436,-0.0037072935527190562
1771956721703010000,9.276010009765624,-0.0038514147311449047,-0.013222104340419172,0.005632124135456979
1771956721722973000,9.295972900390625,0.010210428369045257,-0.004627440604940056,0.0003436075395904481
1771956721742935800,9.315935791015624,-0.011482348001003265,0.0023367358518764374,0.0026763522029388696
1771956721762900000,9.33589990234375,-0.013277414724230765,-0.00536284220740199,0.0014600808815099298
1771956721782862800,9.35586279296875,-0.019402619606256485,0.007151661852933466,-0.009977596860704943
1771956721802826000,9.375825927734375,-0.0051876317709684365,0.0008899711096659302,0.004968837921135128
1771956721822788900,9.395788818359375,-0.021793314135074616,-0.0047302433922886845,0.0014517788440454751
1771956721842752000,9.415751953125,-0.012665420305728911,-0.008008936269395053,0.006648032312886789
1771956721862716000,9.4357158203125,-0.0015963292807340621,0.0005195303620770573,0.024363630413962528
1771956721882679000,9.455678955078126,-0.011614449948072432,0.007794818594679236,-0.000823399546323344
1771956721902642000,9.475641845703125,-0.003985270243883132,-0.0027514906652271747,0.006798848093580454
1771956721922605000,9.49560498046875,-0.01041676459610462,0.010446282951533794,-0.009074967198865488
1771956721942568000,9.51556787109375,-0.026274843463301657,-0.0014671864757314324,-0.0005648034090641886
1771956721962530800,9.53553076171875,-0.02163841583430767,-0.010408800485357642,-0.008282136320741847
1771956721982494000,9.555493896484375,-0.009663900402188301,-0.010233991907723247,-0.0013884860831778496
1771956722002457900,9.575457763671874,-0.01055880341529846,-0.022835772392712533,-0.008352342879585922
1771956722022421000,9.5954208984375,-0.009514262798428534,-0.005604468943551182,-0.0026500304515939205
1771956722042384000,9.6153837890625,-0.014004559955000877,0.0004523103447631001,0.003378691786015406
1771956722062347000,9.635346923828125,-0.02732639834284782,0.01373900435399264,-0.0010681772207841278
1771956722082310000,9.655309814453124,-0.0035357729107141495,0.004652903839759528,-0.013774806319735943
1771956722102274000,9.675274169921876,-0.013262801676988602,-0.020204693236760794,-0.011592256382573395
1771956722122237000,9.69523681640625,-0.0009989479094743728,-0.0037226737849414345,-0.012003029140550642
1771956722142200000,9.715199951171876,-0.004134323325753211,0.0012565393997356295,-0.004922267966205254
1771956722162163000,9.735162841796875,-0.024183424142003057,-0.0046290845727548,0.01581127145024948
1771956722182126000,9.7551259765625,-0.008319500055909156,-0.01163947479147464,-0.0060816671343985945
1771956722202089000,9.7750888671875,-0.03256137638688087,-0.003038198652118444,0.020311149285919962
1771956722222053000,9.79505322265625,-0.022392449072003363,-0.0039324075454846025,-0.013979699508380143
1771956722242016000,9.81501611328125,-0.005628361275792122,-0.005398132716491818,0.00016822357322089374
1771956722261979000,9.834978759765624,-0.01924246060848236,0.007915193571336568,-0.0073875529680401085
1771956722281942000,9.85494189453125,-0.005759878700971603,-0.005582768568396568,-0.003202668498829007
1771956722301905000,9.87490478515625,-0.018473814323544502,0.006826083160378038,-0.009783818721119313
1771956722321868000,9.894867919921875,-0.0180208098590374,-0.006291318696551025,0.0023046693463344126
1771956722341832000,9.91483203125,-0.0204126734316349,0.011852240759320556,-0.009262690057000145
1771956722361795000,9.934795166015626,-0.014272270980477331,-0.013186667700856924,-0.0021311576766427603
1771956722381758000,9.954758056640625,-0.022504677274823186,-0.012850275353342294,0.018310559186385942
1771956722401721000,9.97472119140625,-0.021609774261713028,-0.007111366375163197,0.0016348985922988502
1771956722421684000,9.99468408203125,-0.02639116331934929,-0.0053245560236275195,-0.0011945892125833778
1771956722441647000,10.014647216796876,-0.022951836520433425,0.0023672771206125617,0.007679658649256452
1771956722461611000,10.034611083984375,-0.03028349458277225,-0.001691496750898659,-0.011657996828854083
1771956722481574100,10.05457421875,-0.02115560075342655,0.0008725450508296489,-0.013806087373988703
1771956722501536300,10.074536376953125,-0.02026245130598545,-0.011763466497324406,-0.0018244572144933044
1771956722521499100,10.0944990234375,-0.014425415715575218,-0.005117854470387101,-0.006497161733265966
1771956722541462300,10.114462158203125,0.005481646281480789,-0.01975216369628906,0.01169820097507909
1771956722561425200,10.134425048828126,-0.02339081245958805,0.0031136019758880138,-0.0007234645694959908
1771956722581389300,10.154389404296875,-0.027129414466023443,0.0030617621907964346,0.0047581360462121665
1771956722601352200,10.174352294921874,-0.004680266770720482,0.00015734598618000745,-0.004912047966290265
1771956722621315300,10.1943154296875,-0.02218260571360588,0.001513582900725305,-0.008998741891188546
1771956722641278200,10.2142783203125,-0.014409049102663994,-0.008820143054425716,0.0015544446340762079
1771956722661241300,10.234241455078125,0.0041477673292160035,-0.0041340310648083686,-0.004104786704014986
1771956722681205200,10.254205322265625,-0.008727496334910392,-0.0021225085793063043,0.007968558593234048
1771956722701168400,10.27416845703125,-0.020699673679471016,-0.012369213838130236,-0.008470489366538821
1771956722721131300,10.29413134765625,-0.018308394628763196,-0.007696399721503257,0.015630014865519477
1771956722741094100,10.31409423828125,-0.02564472886621952,0.00016812310852110384,-0.004461418121960014
1771956722761057000,10.33405712890625,-0.025498598393797874,-0.00516300878636539,0.007549410732556134
1771956722781020200,10.354020263671876,-0.006042202773690223,0.003348250981979072,-0.005692795680975541
1771956722800984000,10.373984130859375,-0.007534487158060073,-0.020357655308768152,-0.0016710476179141551
1771956722820947200,10.393947265625,-0.01906301238834858,0.001255954877845943,-0.0015914978419896213
1771956722840910000,10.41391015625,-0.01277180328965187,-0.004976327107846737,0.011524013451952487
1771956722860873200,10.433873291015624,-0.016956980019807815,-0.013131393849663435,0.00894046323215589
1771956722880836400,10.45383642578125,-0.015909516793489457,-0.009136625125072895,-0.010089523669425398
1771956722900799200,10.47379931640625,-0.015610241585969924,-0.012038520579040049,0.0006781915225088596
1771956722920763100,10.49376318359375,-0.008725158247351646,-0.007861819416284561,0.0008959167932625859
1771956722940726300,10.513726318359375,-0.009627660045027733,-0.003380326620675623,-0.0035969924455042926
1771956722960689400,10.533689453125,-0.0189139593064785,0.0027332243561744686,-0.010221415553940459
1771956722980652300,10.55365234375,-0.015468202766776084,0.00016984014157205818,0.01006425223085098
1771956723000615200,10.573615234375,-0.02519289344549179,0.005536079882457852,0.0049306796015240245
1771956723020578000,10.593578125,-0.029237784922122954,-0.0013749416150152683,-0.005684457110892981
1771956723040542200,10.613542236328126,-0.006347323200106621,-0.0132121674682945,0.008055917216278612
1771956723060505000,10.633505126953125,-0.007547346639633178,-0.01000602837074548,-0.0010015599916689097
1771956723080468200,10.65346826171875,-0.006945289093255996,-0.0020864508852362633,-0.0037689423457719384
1771956723100431000,10.67343115234375,-0.006644260320067406,0.0116648649610579,0.0018097345693968234
1771956723120394200,10.693394287109374,-0.028639234507083892,-0.0010473536284640432,0.02412286219433881
1771956723140357400,10.713357421875,-0.007091419565677643,0.0020001608412712813,0.01468719932376407
1771956723160321300,10.7333212890625,-0.015923545318841933,-0.007919066028855741,-0.017508184161782264
1771956723180284200,10.7532841796875,-0.021610358783602714,0.0011000701963901518,0.009083004374848679
1771956723200247300,10.773247314453124,-0.015476970595121382,0.0065661170499399305,-0.007883501525130123
1771956723220210400,10.79321044921875,-0.015478724160790443,0.009546301904506982,-0.018424111696612087
1771956723240173000,10.813173095703124,-0.012793430599570273,-0.0010374532889574765,-0.0024342870753724126
1771956723260137200,10.83313720703125,-0.013991700473427772,0.023929741641879082,0.004636564626311883
1771956723280100000,10.85310009765625,-0.03404313937723637,-0.0045898120082914825,0.002987801905442029
1771956723300063200,10.873063232421876,-0.034492052188515664,-0.009319361280836165,0.0034224395961966365
1771956723320026000,10.893026123046875,-0.0065127428948879235,-0.0032910409020259976,-0.005803562579071149
1771956723339989200,10.9129892578125,0.001277180328965187,-0.0020043986249715087,-0.015965603495435788
1771956723359952100,10.9329521484375,-0.22237258510291574,0.030668329181894657,-0.047605572454771025
1771956723379916300,10.952916259765624,0.9476181197315454,0.14481438485439865,-0.015021655442519112
1771956723399879200,10.972879150390625,-0.9663970544815063,-0.04371883981507271,0.024045897101145235
1771956723419842300,10.99284228515625,0.7320482003808021,-0.2749616907244548,0.19779764089267698
1771956723439805200,11.01280517578125,-0.5192220267802476,0.18129132724981753,-0.12009936545318924
1771956723459768300,11.032768310546874,0.30485972965359687,0.012118125153891742,0.008401205256301909
1771956723479731200,11.052731201171875,0.031468320453166956,0.035940022507123644,-0.1734356087807566
