time,seconds_elapsed,z,y,x
1771956767781768000,0.087767822265625,-0.0015623485669493675,-0.0021965731866657734,-0.004339044913649559
1771956767801730800,0.107730712890625,0.0004731914959847927,0.0017499430105090141,-0.0011494648642838001
1771956767821694000,0.12769384765625,0.00008520204573869705,0.005004259292036295,0.007913919165730476
1771956767841656800,0.14765673828125,-0.0012950091622769833,0.0031169424764811993,0.00499064102768898
1771956767861619700,0.16761962890625,-0.00005892617627978325,0.006789019796997309,0.011283719912171364
1771956767881582800,0.187582763671875,-0.0009563760831952095,0.0046997698955237865,0.005342850927263498
1771956767901545700,0.207545654296875,-0.000847978051751852,-0.011270827613770962,-0.011367734521627426
1771956767921508900,0.2275087890625,0.0011595126707106829,-0.0026501757092773914,-0.0027830349281430244
1771956767941471700,0.2474716796875,0.001480932580307126,-0.0002288520336151123,-0.005592568777501583
1771956767961435000,0.267434814453125,-0.00008066603913903236,-0.0018473891541361809,-0.003727862611413002
1771956767981397800,0.287397705078125,-0.0018333434127271175,0.0024411887861788273,0.0012395174708217382
1771956768001361000,0.30736083984375,0.0016007083468139172,0.00018074223771691322,0.0006413583178073168
1771956768021324000,0.327323974609375,-0.00008545676246285439,0.001305416226387024,0.0024401452392339706
1771956768041288000,0.347287841796875,-0.0013621174730360508,-0.0004312521778047085,-0.0003847575862891972
1771956768061250800,0.367250732421875,-0.0015114671550691128,0.0012603653594851494,0.002753690117970109
1771956768081213700,0.387213623046875,0.0034908948000520468,0.000044654589146375656,0.0007324384059756994
1771956768101176800,0.4071767578125,-0.001973396632820368,0.004077123012393713,0.0039441585540771484
1771956768121139700,0.4271396484375,-0.00035061780363321304,0.0039474498480558395,0.002392578637227416
1771956768141102800,0.447102783203125,0.0005067321471869946,-0.001077624037861824,0.0009421297581866384
1771956768161065700,0.467065673828125,-0.0006481758318841457,-0.005528387613594532,-0.005428391508758068
1771956768181028900,0.48702880859375,0.00006020255386829376,-0.001537929754704237,-0.004593922756612301
1771956768200991700,0.50699169921875,0.001515870215371251,0.0014568842016160488,-0.003882274031639099
1771956768220955000,0.526954833984375,0.0011068463791161776,0.0014099017716944218,-0.0033636298030614853
1771956768240918000,0.54691796875,0.0006664483807981014,0.00041481200605630875,0.0008207678329199553
1771956768260880600,0.566880615234375,0.0009283637627959251,-0.000455531757324934,0.003466719062998891
1771956768280843800,0.58684375,-0.00005808984860777855,-0.0035721631720662117,0.0012457174016162753
1771956768300806700,0.606806640625,-0.00027013616636395454,0.002534999046474695,0.002012253040447831
1771956768320769800,0.626769775390625,-0.002376715186983347,0.002230688463896513,0.0008644047193229198
1771956768340733700,0.646733642578125,-0.00020658643916249275,0.004371180664747953,0.004861604887992144
1771956768360696800,0.66669677734375,0.0009223558008670807,0.0025979820638895035,0.002748844213783741
1771956768380659700,0.68665966796875,-0.0002731774002313614,0.0020277551375329494,0.00014162284787744284
1771956768400622800,0.706622802734375,0.0004553890321403742,-0.0010042320936918259,-0.0007272012298926711
1771956768420586000,0.7265859375,0.0002633039839565754,-0.004090635105967522,-0.0023622685112059116
1771956768440548900,0.746548828125,-0.002805190160870552,0.0007171696051955223,-0.0031646788120269775
1771956768460512000,0.766511962890625,0.0007353348191827536,0.0034721200354397297,-0.002120505552738905
1771956768480474600,0.786474609375,-0.0007615517824888229,0.0006663035601377487,-0.0006085768109187484
1771956768500437800,0.806437744140625,-0.0025603999383747578,0.0004380694590508938,0.002667832188308239
1771956768520400600,0.826400634765625,-0.0009466293267905712,-0.00028959475457668304,-0.0005584832979366183
1771956768540364000,0.846364013671875,0.0007274395320564508,-0.001256920862942934,0.001819833181798458
1771956768560327200,0.8663271484375,0.0001840502955019474,-0.00024530617520213127,0.0018103818874806166
1771956768580290000,0.8862900390625,-0.0010338639840483665,0.0014204108156263828,-0.0006502001197077334
1771956768600253200,0.906253173828125,0.000136437825858593,0.00044434936717152596,0.0016409921227023005
1771956768620217000,0.926217041015625,0.0015522902831435204,0.004180873278528452,-0.0000782146817073226
1771956768640180000,0.946179931640625,0.0010328206699341536,-0.0005215886048972607,-0.0015320994425565004
1771956768660142800,0.966142822265625,0.00036981143057346344,-0.0023774555884301662,-0.0004097913042642176
1771956768680106000,0.98610595703125,0.000012508593499660492,-0.000712868757545948,-0.0024634813889861107
1771956768700068900,1.00606884765625,0.0009243243839591742,-0.0014783949591219425,0.0003604954108595848
1771956768720032000,1.026031982421875,0.0010236711241304874,-0.002731034532189369,-0.0015613680006936193
1771956768739995000,1.045994873046875,0.00035854289308190346,0.0024180272594094276,-0.0008201455348171294
1771956768759958000,1.0659580078125,-0.0005684169009327888,0.0020591607317328453,-0.0008241402683779597
1771956768779921200,1.085921142578125,-0.0011794487945735455,-0.001332656480371952,0.0006233365274965763
1771956768799884000,1.105884033203125,0.0025199048686772585,-0.0019896794110536575,-0.00023598759435117245
1771956768819847200,1.12584716796875,0.0014463670086115599,-0.0014917016960680485,0.0014207832282409072
1771956768839809800,1.145809814453125,0.00038604019209742546,0.0006574024446308613,0.0006334001664072275
1771956768859773000,1.16577294921875,0.0005651554092764854,0.00221004756167531,0.0026538395322859287
1771956768879736000,1.185736083984375,0.001534928334876895,0.000666856300085783,0.001399630680680275
1771956768899699000,1.205698974609375,0.0005320841446518898,0.0013163117691874504,-0.0034335260279476643
1771956768919662800,1.225662841796875,-0.0029844501987099648,-0.000374683178961277,-0.0025946791283786297
1771956768939626000,1.2456259765625,0.00018484005704522133,-0.0018332963809370995,-0.000740600167773664
1771956768959589000,1.265589111328125,-0.0015364550054073334,-0.0003137853927910328,-0.0012985822977498174
1771956768979552000,1.285552001953125,0.0010358791332691908,0.0013519329950213432,-0.0008190519292838871
1771956768999515100,1.30551513671875,-0.0006574112921953201,0.002456079237163067,-0.0001111124875023961
1771956769019478000,1.32547802734375,-0.00005150632932782173,0.0030210688710212708,0.0011592765804380178
1771956769039441200,1.345441162109375,0.0005574224051088095,0.0020032753236591816,0.002509675221517682
1771956769059403800,1.36540380859375,-0.0009602410718798637,-0.0020911130122840405,0.0018320436356589198
1771956769079367000,1.385366943359375,0.00009004725143313408,0.0003474983386695385,0.0003317706286907196
1771956769099330000,1.405330078125,0.001558283343911171,-0.0006097070872783661,0.0013120719231665134
1771956769119293000,1.42529296875,0.0020464167464524508,0.0013302271254360676,0.0004565682029351592
1771956769139256000,1.445256103515625,-0.0010800501331686974,0.0018795267678797245,-0.0010857150191441178
1771956769159219000,1.465218994140625,-0.00037300214171409607,0.0004513845779001713,0.0015422911383211613
1771956769179182000,1.48518212890625,0.00020639458671212196,-0.0014953883364796638,-0.0028803227469325066
1771956769199145000,1.50514501953125,0.00008194567635655403,-0.0022471295669674873,0.0012077396968379617
1771956769219109000,1.525109130859375,0.0016365258488804102,-0.0019370480440557003,0.0025291352067142725
1771956769239072000,1.545072021484375,0.00020212167873978615,-0.00016649160534143448,0.00007322558667510748
1771956769259035000,1.565034912109375,-0.0011859973892569542,0.0007990384474396706,0.00036674493458122015
1771956769278998000,1.584998046875,0.0001031532883644104,0.0001452532596886158,-0.00007791520329192281
1771956769298961000,1.6049609375,0.0025724200531840324,0.0027150274254381657,0.0015847482718527317
1771956769318924000,1.624924072265625,0.0008296193554997444,-0.0012257634662091732,0.002953621558845043
1771956769338887000,1.644886962890625,0.0010933654848486185,-0.0022075814194977283,0.0005042661214247346
1771956769358850000,1.66485009765625,0.00019188830628991127,-0.0018125036731362343,0.0020150127820670605
1771956769378813000,1.68481298828125,0.0005506093148142099,0.0030106157064437866,-0.0024519888684153557
1771956769398776000,1.704776123046875,0.00038155331276357174,-0.00027699023485183716,0.001543996506370604
1771956769418739200,1.7247392578125,-0.001561925746500492,0.0015835380181670189,-0.0033109160140156746
1771956769438702000,1.7447021484375,-0.0014940910041332245,0.0012288442812860012,0.0015564948553219438
1771956769458665000,1.7646650390625,0.00019439030438661575,-0.00020789401605725288,0.000426157028414309
1771956769478627800,1.7846279296875,0.0008121877908706665,-0.0033799726516008377,0.0020682290196418762
1771956769498591000,1.804591064453125,-0.00011628726497292519,-0.0009347880259156227,-0.0012735971249639988
1771956769518555000,1.824554931640625,-0.0033065853640437126,0.002498408779501915,-0.00200060335919261
1771956769538517500,1.844517578125,0.0016951728612184525,-0.001285269856452942,0.0015358920209109783
1771956769558480400,1.86448046875,-0.0001022564247250557,0.00249174190685153,-0.0016889916732907295
1771956769578443500,1.884443603515625,-0.0003015422262251377,0.0006902385503053665,0.0023801682982593775
1771956769598406700,1.90440673828125,-0.0013821250759065151,0.00043199164792895317,-0.00043435924453660846
1771956769618369300,1.924369384765625,-0.0011991718783974648,-0.003256114199757576,-0.002885582856833935
1771956769638332400,1.94433251953125,-0.003710141871124506,0.0023017581552267075,-0.00021927134366706014
1771956769658295300,1.96429541015625,0.0009073207620531321,0.0004340684972703457,-0.0003150730044580996
1771956769678258400,1.984258544921875,-0.0008498085662722588,0.0051102060824632645,-0.00063533172942698
1771956769698221600,2.0042216796875,-0.00010030949488282204,-0.0014865896664559841,0.001260829158127308
1771956769718184400,2.024184326171875,-0.0015816525556147099,-0.0013049179688096046,-0.00007272500079125166
1771956769738147600,2.044147705078125,-0.00031367503106594086,-0.003574951086193323,0.0015555965946987271
1771956769758110500,2.0641103515625,-0.001092405989766121,-0.0014862562529742718,0.0006512877298519015
1771956769778073600,2.084073486328125,-0.0025935876183211803,-0.000020842067897319794,0.00010308297351002693
1771956769798037500,2.10403759765625,0.0015357094816863537,0.0006562243215739727,0.0012638319749385118
1771956769818000600,2.124000732421875,0.0021510834340006113,-0.0006503602489829063,0.0008761099306866527
1771956769837963300,2.14396337890625,0.00005765864625573158,-0.0011046943254768848,0.0003818963887169957
1771956769857926400,2.163926513671875,-0.00052280118688941,-0.002461840398609638,0.0001753130927681923
1771956769877889300,2.18388916015625,-0.00024477439001202583,-0.0013325060717761517,0.0015647327527403831
1771956769897852400,2.203852294921875,-0.00047861598432064056,-0.0010975254699587822,-0.0009774687932804227
1771956769917815600,2.223815673828125,-0.0008181123994290829,0.0020309933461248875,0.0008099223487079144
1771956769937778400,2.2437783203125,0.0009615111630409956,0.0025262711569666862,-0.002016962505877018
1771956769957741600,2.263741455078125,-0.0003810422495007515,0.0020308149978518486,0.00030850397888571024
1771956769977704400,2.283704345703125,-0.0013135848566889763,-0.0013886024244129658,0.0005013059126213193
1771956769997667600,2.30366748046875,0.00238232035189867,-0.0015740757808089256,-0.0005411185557022691
1771956770017630500,2.32363037109375,-0.0019867192022502422,-0.0036952330265194178,-0.0007147798896767199
1771956770037593300,2.34359326171875,0.0012564389035105705,0.0005818852223455906,-0.00015463808085769415
1771956770057556500,2.363556396484375,-0.0016213925555348396,-0.0009741061367094517,0.000365507323294878
1771956770077520400,2.383520263671875,-0.0022766473703086376,0.004343023523688316,-0.0007327638450078666
1771956770097483500,2.4034833984375,0.0007018332835286856,-0.0016805799677968025,0.000003569992259144783
1771956770117446400,2.4234462890625,-0.000450880266726017,-0.0023310938850045204,-0.00018938689026981592
1771956770137409500,2.443409423828125,-0.0010092612355947495,-0.004414171911776066,0.002915760735049844
1771956770157372400,2.463372314453125,-0.000269569456577301,-0.0012167282402515411,0.0009685515542514622
1771956770177335600,2.48333544921875,-0.002132987603545189,-0.00042828358709812164,-0.0036691611167043447
1771956770197298400,2.50329833984375,-0.001363963820040226,0.002680515870451927,-0.0010595388012006879
1771956770217261600,2.523261474609375,0.0013072998262941837,-0.0019163964316248894,0.0008583973976783454
1771956770237224400,2.543224365234375,0.003675997955724597,-0.0015411069616675377,0.0026325166691094637
1771956770257187300,2.563187255859375,-0.0002369568683207035,-0.0011819619685411453,0.00020337209571152925
1771956770277150500,2.583150390625,0.001488145673647523,-0.0013293717056512833,-0.0013396176509559155
1771956770297113300,2.60311328125,0.0013055687304586172,-0.0005886484868824482,-0.0018512310925871134
1771956770317076500,2.623076416015625,-0.0008159773424267769,0.000566351693123579,-0.0036537821870297194
1771956770337039400,2.643039306640625,-0.0003430522046983242,0.0023512961342930794,-0.0012509096413850784
1771956770357003500,2.66300341796875,0.0008114040829241276,0.002480881754308939,0.0003900686861015856
1771956770376966400,2.68296630859375,-0.0031799408607184887,-0.0005553769879043102,-0.00035280309384688735
1771956770396929500,2.702929443359375,-0.000234224833548069,-0.0036578280851244926,-0.000797755375970155
1771956770416892400,2.722892333984375,0.0016485629603266716,-0.0034992112778127193,-0.00027301389491185546
1771956770436855600,2.74285546875,0.00020915688946843147,-0.0016937348991632462,0.00036569504300132394
1771956770456818400,2.762818359375,-0.001386165153235197,0.0034158588387072086,-0.0025526676326990128
1771956770476781300,2.78278125,0.0024984488263726234,0.0025234990753233433,0.00023545842850580812
1771956770496744400,2.802744384765625,-0.00047578010708093643,0.00003120722249150276,0.00004966487176716328
1771956770516707300,2.822707275390625,0.0009258594363927841,0.0009681903757154942,-0.0014026722637936473
1771956770536670700,2.842670654296875,-0.0008456213399767876,-0.00026206253096461296,-0.0006037431885488331
1771956770556633600,2.862633544921875,-0.0014770356938242912,-0.0008744881488382816,0.0010284904856234789
1771956770576596500,2.882596435546875,-0.0021333210170269012,0.0015288596041500568,-0.0017178728012368083
1771956770596559600,2.9025595703125,-0.000012968666851520538,0.0008755866438150406,-0.0025692260824143887
1771956770616522500,2.9225224609375,-0.0005003907717764378,-0.0006262464448809624,-0.00149606226477772
1771956770636486700,2.942486572265625,-0.0006690854206681252,0.001065793912857771,-0.0005593375535681844
1771956770656449500,2.962449462890625,0.0007132808677852154,-0.0021864972077310085,-0.0006609986303374171
1771956770676412700,2.98241259765625,-0.00000725453719496727,-0.00139557383954525,-0.00009139423491433263
1771956770696375600,3.00237548828125,-0.0003177435137331486,0.00036514224484562874,-0.000043776526581496
1771956770716338700,3.022338623046875,-0.000491125974804163,0.001529498491436243,-0.002170328050851822
1771956770736301600,3.042301513671875,0.00022419961169362068,0.0017269663512706757,-0.0014390908181667328
1771956770756264700,3.0622646484375,0.00041961902752518654,0.003137810155749321,0.0025583887472748756
1771956770776227600,3.0822275390625,0.0006878536660224199,-0.0012190681882202625,-0.0014973686775192618
1771956770796190500,3.1021904296875,0.0007250676862895489,-0.002738536801189184,0.001251094858162105
1771956770816153600,3.122153564453125,0.00020399410277605057,-0.0010578501969575882,0.0017229076474905014
1771956770836116500,3.142116455078125,0.0004403148777782917,-0.0012894626706838608,0.0004382298793643713
1771956770856079600,3.16207958984375,-0.001363526564091444,0.0022773821838200092,-0.002914748154580593
1771956770876042500,3.18204248046875,0.0015185249503701925,0.003924034535884857,-0.0003286871360614896
1771956770896005600,3.202005615234375,0.00041476241312921047,-0.0012399344705045223,-0.0006001298897899687
1771956770915968800,3.22196875,-0.0005677896551787853,-0.0009952420368790627,-0.0012645405950024724
1771956770935932700,3.2419326171875,0.0010957731865346432,-0.003380734473466873,-0.0006131973350420594
1771956770955895600,3.2618955078125,-0.0015846053138375282,0.0011977432295680046,-0.00019335764227434993
1771956770975858700,3.281858642578125,-0.0007757744751870632,0.0008541811257600784,-0.002002131659537554
1771956770995821600,3.301821533203125,-0.0008278070017695427,0.0018776035867631435,0.0023881099186837673
1771956771015784400,3.321784423828125,0.000614456832408905,0.002136761322617531,-0.0025180187076330185
1771956771035747600,3.34174755859375,-0.0014822827652096748,0.0003609266132116318,-0.0006214475142769516
1771956771055710500,3.36171044921875,0.0005851776804775,-0.0025911047123372555,0.0018702829256653786
1771956771075673600,3.381673583984375,-0.001676490530371666,-0.002499321475625038,0.0021834755316376686
1771956771095636500,3.401636474609375,-0.0004953891038894653,-0.002722289878875017,-0.0006168396794237196
1771956771115599600,3.421599609375,-0.00029189838096499443,0.0018420880660414696,-0.0009395282249897718
1771956771135562800,3.441562744140625,0.0023246442433446646,0.003771148156374693,-0.0014173045055940747
1771956771155525600,3.461525634765625,-0.001332741230726242,-0.000268290750682354,-0.0016839765012264252
1771956771175488500,3.481488525390625,0.0005552214570343494,0.0001834486611187458,-0.0014491045149043202
1771956771195451400,3.501451416015625,-0.0010419394820928574,-0.003104844596236944,0.002177841728553176
1771956771215415600,3.52141552734375,-0.0004158569499850273,-0.0019202269613742828,-0.0011658784933388233
1771956771235378400,3.54137841796875,0.0014212422538548708,-0.0012167305685579777,-0.0021959750447422266
1771956771255341600,3.561341552734375,0.000013479497283697128,0.002286126371473074,-0.0014734508004039526
1771956771275304400,3.581304443359375,-0.000850895419716835,0.0002757278271019459,-0.00022930250270292163
1771956771295267600,3.601267578125,-0.00152111379429698,0.0005484120920300484,-0.00014407129492610693
1771956771315230700,3.621230712890625,-0.002446352504193783,-0.0017085270956158638,-0.0003188604023307562
1771956771335193600,3.641193603515625,-0.00034364499151706696,-0.0010978654026985168,0.0014730591792613268
1771956771355156700,3.66115673828125,-0.0007294025272130966,0.0001465645618736744,-0.0006184314843267202
1771956771375119600,3.68111962890625,0.0006329170428216457,-0.0006141015328466892,-0.0007040476193651557
1771956771395082500,3.70108251953125,0.0019912170246243477,0.0025359964929521084,-0.0011217247229069471
1771956771415045400,3.72104541015625,0.00016055814921855927,0.002303679008036852,-0.00008955970406532288
1771956771435008500,3.741008544921875,0.0026682200841605663,-0.002681668847799301,-0.0008012250764295459
1771956771454971600,3.7609716796875,0.00020792242139577866,-0.0000651567243039608,0.0013833318371325731
1771956771474934500,3.7809345703125,-0.0005215262062847614,0.00003852788358926773,0.0004722143057733774
1771956771494898400,3.8008984375,-0.001158952247351408,-0.0005018929950892925,-0.0008418943034484982
1771956771514861600,3.820861572265625,-0.00008295802399516106,0.003324158489704132,0.002740263007581234
1771956771534824700,3.84082470703125,0.001012768130749464,0.0023880358785390854,-0.0023610242642462254
1771956771554787800,3.860787841796875,-0.0007475465536117554,0.0004563555121421814,-0.0006330441683530807
1771956771574751000,3.8807509765625,-0.0003323648124933243,-0.0020576459355652332,0.0006388902547769248
1771956771594713900,3.9007138671875,0.0025551910512149334,-0.004756448790431023,-0.002512100152671337
1771956771614676700,3.9206767578125,-0.0004044529050588608,-0.002287542447447777,-0.00008298497414216399
1771956771634639600,3.9406396484375,0.0012665195390582085,0.0002951463684439659,-0.0005277632735669613
1771956771654602800,3.960602783203125,0.0005213979166001081,0.0016953684389591217,-0.003443085588514805
1771956771674566000,3.98056591796875,0.00033256085589528084,0.0033009005710482597,-0.001003830460831523
1771956771694528800,4.00052880859375,-0.0008660303428769112,0.0008378536440432072,0.0016848832601681352
1771956771714492000,4.020491943359375,0.0006118090823292732,0.000041369814425706863,0.0009457009145990014
1771956771734454800,4.040454833984375,0.00007973425090312958,-0.0031784591265022755,0.001119077205657959
1771956771754418000,4.06041796875,0.0019991809967905283,-0.005884719081223011,0.00239736819639802
1771956771774380800,4.080380859375,-0.00012292759492993355,0.001965790521353483,0.0021020753774791956
1771956771794345000,4.100344970703125,-0.001400877721607685,0.0026403036899864674,-0.0024436963722109795
1771956771814307800,4.120307861328125,0.0008764378726482391,-0.0002096341922879219,0.0012167419772595167
1771956771834270700,4.140270751953125,0.00026858551427721977,0.0013741031289100647,0.0007561233942396939
1771956771854233900,4.16023388671875,-0.0007636463269591331,-0.002266614232212305,0.001271799672394991
1771956771874196700,4.18019677734375,-0.00025066081434488297,-0.0022149933502078056,-0.0007852341514080763
1771956771894160000,4.200159912109375,-0.0011902684345841408,0.0035852822475135326,0.00037160812644287944
1771956771914122800,4.220122802734375,0.0009486484341323376,0.0023661358281970024,0.00026687083300203085
1771956771934086000,4.2400859375,-0.0005137911066412926,0.003032304346561432,-0.000037503778003156185
1771956771954048800,4.260048828125,0.0007521319203078747,-0.0006316043436527252,-0.0003981586778536439
1771956771974012000,4.280011962890625,-0.0015790481120347977,-0.0010723378509283066,0.00048298819456249475
1771956771993975000,4.29997509765625,0.0003560897894203663,-0.0016547837294638157,0.0024250983260571957
1771956772013937700,4.319937744140625,-0.001611222978681326,-0.0034728748723864555,-0.00035027641570195556
1771956772033900800,4.33990087890625,0.001160115236416459,0.000028750859200954437,-0.0006207560654729605
1771956772053863700,4.35986376953125,0.00005650380626320839,0.0016627125442028046,-0.0029194261878728867
1771956772073827800,4.379827880859375,-0.0013852431438863277,0.0033154990524053574,0.0005291813868097961
1771956772093790700,4.399790771484375,0.002041724743321538,0.0002731066197156906,0.0011104086879640818
1771956772113753900,4.41975390625,0.0007012521382421255,-0.000037054531276226044,-0.0007718824781477451
1771956772133716700,4.439716796875,-0.0002735438756644726,-0.0011298563331365585,0.0010047245305031538
1771956772153680000,4.459679931640625,-0.0023838886991143227,0.0012680096551775932,0.00014248740626499057
1771956772173642800,4.479642822265625,0.0009198354091495275,0.0009184735827147961,-0.0010353834368288517
1771956772193606000,4.49960595703125,0.0019987840205430984,0.0031168018467724323,0.0011245666537433863
1771956772213569000,4.519569091796875,-0.0025766524486243725,0.003081470262259245,-0.00242971396073699
1771956772233531600,4.53953173828125,-0.0025173653848469257,0.001068231649696827,0.00044211215572431684
1771956772253494800,4.559494873046875,-0.0020531993359327316,-0.002452007494866848,0.0008946891175583005
1771956772273457700,4.579457763671875,-0.0003756019286811352,-0.001456450205296278,0.0017384120728820562
1771956772293420800,4.5994208984375,-0.0013485336676239967,0.001969166100025177,0.0003225722466595471
1771956772313384000,4.619384033203125,-0.0006903884932398796,-0.00102169718593359,0.00021760474191978574
1771956772333346800,4.639346923828125,0.0015736836940050125,-0.0025465581566095352,0.00045283627696335316
1771956772353310000,4.65931005859375,0.0009638890624046326,0.00031507667154073715,0.0027593644335865974
1771956772373273900,4.67927392578125,0.003337336704134941,0.0015075732953846455,0.0015440115239471197
1771956772393237000,4.699237060546875,-0.0014040293172001839,-0.002273671329021454,0.0008838398498483002
1771956772413200000,4.719199951171875,0.0020336415618658066,-0.0004177582450211048,0.000340035418048501
1771956772433163000,4.7391630859375,0.0010848427191376686,-0.0005815103650093079,-0.00012141728075221181
1771956772453125600,4.759125732421875,0.0009970052633434534,0.00003425823524594307,-0.0011842199601233006
1771956772473088800,4.7790888671875,0.0018745004199445248,-0.0012969677336513996,-0.00041025341488420963
1771956772493051600,4.7990517578125,0.0015277958009392023,-0.0015031620860099792,0.0005693709827028215
1771956772513014800,4.819014892578125,0.001143893226981163,-0.0007983124814927578,-0.000031145813409239054
1771956772532978000,4.83897802734375,-0.0019605588167905807,-0.0027144108898937702,-0.0004085067776031792
1771956772552941300,4.85894140625,-0.0003813449293375015,-0.001211011316627264,-0.0012071055825799704
1771956772572904400,4.878904541015625,0.002040825318545103,-0.00018550409004092216,0.0017626647604629397
1771956772592867300,4.898867431640625,-0.000575697049498558,0.0017088470049202442,-0.0008792909793555737
1771956772612830500,4.91883056640625,-0.00011572567746043205,0.0008334983140230179,0.0015616822056472301
1771956772632793300,4.93879345703125,0.00005212472751736641,-0.003522159531712532,0.0010305680334568024
1771956772652756200,4.958756103515625,0.0008578926790505648,-0.0008692871779203415,0.0007251875940710306
1771956772672720400,4.978720458984375,0.0031203618273139,-0.0011210902594029903,0.0015612198039889336
1771956772692683300,4.998683349609375,0.00003770273178815842,-0.003875687951222062,-0.0011559531558305025
1771956772712646100,5.018646240234375,-0.0009715966880321503,0.0003117588348686695,-0.0016323926392942667
1771956772732609300,5.038609375,0.0005469108000397682,0.0025826208293437958,-0.00036874832585453987
1771956772752572400,5.058572509765625,-0.0015980135649442673,0.00041555240750312805,0.0025743197184056044
1771956772772535300,5.078535400390625,0.00012965267524123192,-0.0019023078493773937,0.00003668636782094836
1771956772792498400,5.09849853515625,-0.0004453463479876518,-0.0005928962491452694,0.0014119301922619343
1771956772812461300,5.11846142578125,-0.0009955549612641335,-0.002675732597708702,-0.000223717768676579
1771956772832424400,5.138424560546875,-0.0003440491855144501,-0.0016429820097982883,-0.0010880958288908005
1771956772852387300,5.15838720703125,0.002484465017914772,0.0020974506624042988,0.0012633773731067777
1771956772872350200,5.17835009765625,0.002154261339455843,0.002164939884096384,-0.002669813111424446
1771956772892313300,5.198313232421875,0.0012134946882724762,0.0004306933842599392,0.00020379706984385848
1771956772912276200,5.218276123046875,-0.0021330607123672962,-0.001400928944349289,0.0013883404899388552
1771956772932239400,5.2382392578125,0.0009538936428725719,-0.0018857233226299286,-0.00034667475847527385
1771956772952202200,5.2582021484375,0.0001903260126709938,-0.0001685083843767643,0.000623999279923737
1771956772972166400,5.27816650390625,0.0030742359813302755,0.0012832600623369217,-0.0012662475928664207
1771956772992129300,5.29812939453125,0.0004799144808202982,0.002670102287083864,0.000531171215698123
1771956773012092400,5.318092529296875,0.0002346332184970379,0.00023050187155604362,-0.00031227723229676485
1771956773032055300,5.33805517578125,0.0010770007502287626,-0.00016340380534529686,0.00012002751464024186
1771956773052018400,5.358018310546875,-0.0014023156836628914,-0.0021451907232403755,-0.0017900923267006874
1771956773071981300,5.377981201171875,-0.0023414772003889084,-0.0005951644852757454,-0.0002680859179235995
1771956773091944200,5.397944091796875,0.000012055039405822754,-0.0004557231441140175,-0.002043804619461298
1771956773111907300,5.4179072265625,0.00023289071395993233,0.0012277858331799507,0.0024044648744165897
1771956773131870200,5.4378701171875,0.0006275386549532413,0.00339907081797719,-0.002141095930710435
1771956773151833300,5.457833251953125,0.0011935180518776178,0.0008694510906934738,0.00020850112196058035
1771956773171796200,5.477796142578125,0.0011768448166549206,-0.0008188462816178799,0.0017298953607678413
1771956773191759400,5.49775927734375,0.00035822181962430477,0.00023226579651236534,0.0025020670145750046
1771956773211722500,5.517722412109375,-0.0006975219585001469,0.0003720368258655071,-0.00010750890942290425
1771956773231685400,5.537685302734375,-0.0009845700114965439,0.0009679188951849937,-0.00008861202513799071
1771956773251648500,5.5576484375,0.0006473087705671787,-0.00031073158606886864,0.0007221160340122879
1771956773271612400,5.5776123046875,0.001730018062517047,0.0004591885954141617,0.0014067885931581259
1771956773291575600,5.597575439453125,-0.0003225053660571575,-0.002206314355134964,0.0022938742768019438
1771956773311538200,5.6175380859375,0.0022336416877806187,-0.0008847247809171677,-0.0006957106525078416
1771956773331501300,5.637501220703125,0.0006533176638185978,-0.002435674425214529,0.0035481532104313374
1771956773351464200,5.657464111328125,0.003646472003310919,-0.00007106969133019447,-0.0009147130767814815
1771956773371427300,5.67742724609375,-0.0009601311758160591,0.0003177081234753132,-0.002271846169605851
1771956773391390200,5.69739013671875,-0.0017619356513023376,0.0006416006945073605,-0.0033965688198804855
1771956773411353300,5.717353271484375,-0.00006260024383664131,-0.0005121929571032524,-0.0009666953119449317
1771956773431316500,5.73731640625,0.0009481636807322502,-0.0030872798524796963,0.0005091337952762842
1771956773451279400,5.757279296875,0.000849979231134057,-0.00011094938963651657,-0.0007976600900292397
1771956773471242500,5.777242431640625,-0.0005573178641498089,-0.0026935660280287266,-0.002274908125400543
1771956773491205000,5.797205078125,-0.0011402033269405365,0.001992601901292801,-0.002362513914704323
1771956773511168300,5.817168212890625,0.002648069756105542,0.0026988820172846317,-0.0025163600221276283
1771956773531131400,5.83713134765625,-0.0006543374620378017,0.0026795403100550175,-0.0006034452235326171
1771956773551094300,5.85709423828125,0.0021096346899867058,-0.00017911847680807114,0.0019446214428171515
1771956773571057200,5.87705712890625,0.0012102797627449036,-0.0019942154176533222,-0.0014702603220939636
1771956773591021300,5.897021240234375,0.0011403136886656284,-0.0038302154280245304,0.0015629353001713753
1771956773610984200,5.916984130859375,0.0010318274144083261,-0.001176819670945406,-0.001192009076476097
1771956773630947000,5.936947021484375,-0.0023665199987590313,0.0017615878023207188,0.003341963514685631
1771956773650910200,5.95691015625,0.0005559667479246855,0.0007166042923927307,-0.0020241341553628445
1771956773670873000,5.976873046875,0.0020534999202936888,0.0009215772151947021,0.0005500334082171321
1771956773690836200,5.996836181640625,0.0011511873453855515,0.002964787185192108,0.0013980312505736947
1771956773710799000,6.016799072265625,0.0015894153621047735,-0.0026471801102161407,0.00032938376534730196
1771956773730762200,6.03676220703125,-0.0016205310821533203,-0.0026232567615807056,0.0025059517938643694
1771956773750725400,6.056725341796875,-0.00009285006672143936,-0.0011881450191140175,-0.0004311333759687841
1771956773770688300,6.076688232421875,-0.0008336766622960567,-0.0009004217572510242,-0.0012192904250696301
1771956773790651100,6.096651123046875,0.0011626847553998232,0.0020939060486853123,-0.0014169795904308558
1771956773810614000,6.116614013671875,-0.001232280395925045,-0.0009944518096745014,-0.001886605634354055
1771956773830577200,6.1365771484375,0.000879667466506362,-0.0013034716248512268,0.0000424932804889977
1771956773850540300,6.156540283203125,0.0014797437470406294,-0.0022403006441891193,0.00137469288893044
1771956773870503200,6.176503173828125,0.00003743218258023262,-0.0035175876691937447,-0.00026558421086519957
1771956773890466300,6.19646630859375,-0.0013034571893513203,0.0017654350958764553,-0.0026769214309751987
1771956773910429200,6.21642919921875,-0.0011043292470276356,0.0005930014885962009,-0.0005942736752331257
1771956773930393300,6.236393310546875,-0.0015855194069445133,0.002171219326555729,-0.0002663168706931174
1771956773950356200,6.256356201171875,0.0021382514387369156,-0.0009518247097730637,0.00044725416228175163
1771956773970319400,6.2763193359375,0.00027983193285763264,-0.001431516371667385,0.0007714891107752919
1771956773990282200,6.2962822265625,-0.0007391371764242649,0.0006882022134959698,0.0005477595841512084
1771956774010245000,6.3162451171875,0.00005869381129741669,-0.0019239000976085663,-0.0015823027351871133
1771956774030208000,6.3362080078125,-0.0004734988324344158,0.0007153949700295925,0.0013452639104798436
1771956774050171100,6.356171142578125,-0.00019315630197525024,0.0005376446060836315,0.00019170803716406226
1771956774070134300,6.37613427734375,0.0006832550279796124,-0.000823706854134798,-0.0007027932442724705
1771956774090097200,6.39609716796875,0.0007125625852495432,0.0004957118071615696,0.00013101118383929133
1771956774110060300,6.416060302734375,0.00013296492397785187,-0.001156466081738472,-0.0001796832657419145
1771956774130023200,6.436023193359375,0.0034161079674959183,-0.000033443793654441833,0.0007528290734626353
1771956774149986300,6.455986328125,0.0001254822127521038,-0.0003506587818264961,0.0000032111420296132565
1771956774169949200,6.47594921875,0.000826691510155797,-0.0001702778972685337,0.002617335645481944
1771956774189912000,6.495912109375,-0.0006460598669946194,0.006396521348506212,-0.00022415653802454472
1771956774209875200,6.515875244140625,0.001300161937251687,0.0021906807087361813,-0.00011118652764707804
1771956774229838000,6.535838134765625,-0.0011654561385512352,-0.0006880322471261024,-0.0019247685559093952
1771956774249802200,6.55580224609375,0.0014894106425344944,-0.0027363980188965797,0.0018226958345621824
1771956774269765000,6.57576513671875,-0.0013093608431518078,-0.002818356268107891,-0.0012815067311748862
1771956774289728300,6.595728271484375,0.0015646331012248993,-0.000790777150541544,-0.001166001078672707
1771956774309691100,6.615691162109375,-0.000004834961146116257,0.0014520161785185337,-0.000356246717274189
1771956774329654300,6.635654296875,0.0009422323200851679,-0.0015699495561420918,0.00038096460048109293
1771956774349617200,6.6556171875,0.0008952147327363491,-0.00005029980093240738,0.0012057626154273748
1771956774369580300,6.675580322265625,0.0004521466325968504,-0.0024960790760815144,0.0009026991319842637
1771956774389543200,6.695543212890625,0.00024832854978740215,-0.0023590452037751675,0.00035689101787284017
1771956774409506000,6.715506103515625,0.0024819516111165285,-0.001016128808259964,0.0011040170211344957
1771956774429469200,6.73546923828125,0.0006849593482911587,0.002364214975386858,-0.0009192883735522628
1771956774449432000,6.75543212890625,0.0007175854407250881,0.004522040020674467,-0.0015839793486520648
1771956774469395200,6.775395263671875,-0.0009412434883415699,0.004968763794749975,-0.000840557215269655
1771956774489358000,6.795358154296875,-0.0002956944517791271,-0.00048570986837148666,0.0009190571727231145
1771956774509321200,6.8153212890625,0.0006154573056846857,-0.002607810776680708,0.0012290385784581304
1771956774529284400,6.835284423828125,0.0008971199858933687,-0.0011436822824180126,0.0009307876462116838
1771956774549246500,6.85524658203125,-0.00030891038477420807,-0.0005103293806314468,-0.0016740176361054182
1771956774569209600,6.875209716796875,-0.002085969317704439,0.0017703580670058727,0.0014890346210449934
1771956774589173500,6.895173583984375,-0.00030998000875115395,0.0016820519231259823,-0.002140065422281623
1771956774609136600,6.91513671875,-0.00010819640010595322,-0.0016071083955466747,0.00006821303395554423
1771956774629099500,6.935099609375,0.0005796905606985092,0.00007239310070872307,-0.002050588605925441
1771956774649062400,6.9550625,0.0015253315214067698,-0.0011629816144704819,-0.0005615338450297713
1771956774669025500,6.975025634765625,0.001138787716627121,0.0011244295164942741,-0.0005954444641247392
1771956774688988400,6.994988525390625,0.00048252660781145096,0.0022191000171005726,-0.001432724529877305
1771956774708951600,7.01495166015625,0.0012872086372226477,0.0024053221568465233,-0.00237519689835608
1771956774728914400,7.03491455078125,0.0006819874979555607,0.0012798253446817398,-0.002419749042019248
1771956774748877600,7.054877685546875,0.0009176977910101414,-0.0014111213386058807,-0.0013332490343600512
1771956774768840400,7.07484033203125,0.00017587095499038696,0.0005234661512076855,0.0001439764746464789
1771956774788803600,7.094803466796875,0.0009784696158021688,0.0002915710210800171,0.002741188509389758
1771956774808766700,7.1147666015625,-0.0017328453250229359,0.001445030327886343,0.0018883250886574388
1771956774828729300,7.134729248046875,-0.0016957526095211506,0.0017721764743328094,-0.0015170015394687653
1771956774848692500,7.1546923828125,-0.0018555410206317902,0.0026389253325760365,0.0009123154450207949
1771956774868655400,7.1746552734375,-0.0003253389149904251,0.002265350893139839,-0.001761788153089583
1771956774888618500,7.194618408203125,-0.00022727716714143753,-0.001488508190959692,0.0003990322584286332
1771956774908582400,7.21458251953125,-0.0004967907443642616,-0.000741847325116396,0.00010618602391332388
1771956774928545500,7.234545654296875,-0.0009576631709933281,-0.00008790893480181694,0.001110011711716652
1771956774948508400,7.25450830078125,-0.0012464895844459534,0.0015885964967310429,-0.0006726622814312577
1771956774968471600,7.274471435546875,0.0019844435155391693,0.00043649086728692055,-0.00009698414942249656
1771956774988434400,7.294434326171875,0.0012821240816265345,0.0036744065582752228,0.00014305580407381058
1771956775008397600,7.3143974609375,-0.0014538760297000408,0.0033090654760599136,-0.0007444528746418655
1771956775028360700,7.334360595703125,-0.00007652398198843002,0.0009090863168239594,0.001750775147229433
1771956775048323300,7.3543232421875,0.002310533542186022,-0.004775552079081535,0.0004884167574346066
1771956775068286500,7.374286376953125,0.001032138941809535,-0.0013542682863771915,-0.00042935661622323096
1771956775088249300,7.394249267578125,-0.0008861380629241467,0.00007950002327561378,-0.0015198331093415618
1771956775108212500,7.41421240234375,-0.0005300752818584442,0.0008030417375266552,0.00009251566370949149
1771956775128175600,7.434175537109375,0.0014358144253492355,0.0006852275691926479,-0.0013718419941142201
1771956775148138500,7.454138427734375,-0.00046072155237197876,0.00040571391582489014,0.001447281101718545
1771956775168101600,7.4741015625,-0.001312454231083393,-0.0015241899527609348,0.0006937281577847898
1771956775188064500,7.494064453125,-0.0027216970920562744,-0.0024942238815128803,-0.00010775681585073471
1771956775208027600,7.514027587890625,-0.00022273603826761246,0.0008331965655088425,0.0015701092779636383
1771956775227990300,7.533990234375,-0.0012116068974137306,0.0020346157252788544,-0.0030077118426561356
1771956775247953400,7.553953369140625,-0.0004286612384021282,0.003987755626440048,0.0004406497464515269
1771956775267917300,7.573917236328125,0.0010578760411590338,-0.00017709564417600632,0.0011183107271790504
1771956775287880400,7.59388037109375,0.002318969229236245,-0.002267699223011732,0.0009134258725680411
1771956775307843300,7.61384326171875,-0.00038179149851202965,-0.0021922565065324306,-0.000838339445181191
1771956775327806500,7.633806396484375,-0.0002644662745296955,-0.00007788930088281631,-0.0008182983729057014
1771956775347769600,7.65376953125,-0.0003083301708102226,-0.0021224641241133213,0.0027566144708544016
1771956775367732500,7.673732421875,-0.0012464718893170357,0.0012580184265971184,-0.0033826108556240797
1771956775387695600,7.693695556640625,0.000053581781685352325,0.002586293499916792,0.0005799666396342218
1771956775407658500,7.713658447265625,-0.0015974636189639568,-0.0013114656321704388,0.00009631772991269827
1771956775427621600,7.73362158203125,0.00003608455881476402,-0.0014909841120243073,-0.0001823880011215806
1771956775447584500,7.75358447265625,0.00027200207114219666,-0.0007748384959995747,-0.0008761630160734057
1771956775467547400,7.77354736328125,-0.001653171144425869,-0.0021746624261140823,-0.0023660711012780666
1771956775487510500,7.793510498046875,-0.0008553396910429001,0.0017172577790915966,-0.0005716451560147107
1771956775507473400,7.813473388671875,-0.0016142572276294231,0.002858269028365612,-0.0011012704344466329
1771956775527436500,7.8334365234375,-0.0013066250830888748,0.0016690823249518871,0.000026771973352879286
1771956775547399200,7.853399169921875,0.0011141980066895485,-0.0003297543153166771,0.001327837584540248
1771956775567362000,7.873362060546875,-0.0008381744846701622,-0.0012759300880134106,-0.00013915629824623466
1771956775587325200,7.8933251953125,-0.0028749536722898483,-0.002316385507583618,0.0014926072908565402
1771956775607288000,7.9132880859375,-0.00022502150386571884,0.0008144071325659752,-0.0022934358566999435
1771956775627252200,7.933252197265625,0.0014700996689498425,0.0006769211031496525,0.00039448769530281425
1771956775647215000,7.953215087890625,-0.0005002431571483612,0.0001727631315588951,0.0012786074075847864
1771956775667178200,7.97317822265625,0.0007054803427308798,-0.0004821084439754486,-0.0000368308974429965
1771956775687141000,7.99314111328125,0.0019980897195637226,-0.0013728691264986992,0.0024671554565429688
1771956775707104000,8.01310400390625,-0.00019971607252955437,-0.001714508980512619,-0.00024162221234291792
1771956775727067000,8.03306689453125,0.001446819631382823,-0.0023242407478392124,-0.002379330340772867
1771956775747030000,8.053030029296876,0.0006072234828025103,0.001072423066943884,0.00039809488225728273
1771956775766993200,8.0729931640625,-0.0004836423322558403,0.000743454322218895,-0.0023578491527587175
1771956775786956000,8.0929560546875,-0.0004477808251976967,-0.002064872533082962,-0.0016463673673570156
1771956775806919200,8.112919189453125,0.0009467648342251778,-0.0004948913119733334,0.002066826680675149
1771956775826882000,8.132882080078126,0.0011293271090835333,-0.0010903319343924522,0.0002627460053190589
1771956775846845200,8.15284521484375,0.00020399410277605057,-0.0031674420461058617,0.00008280551992356777
1771956775866808000,8.17280810546875,-0.000026378314942121506,-0.0023983195424079895,-0.0019237573724240065
1771956775886771000,8.19277099609375,0.0012920445296913385,0.0013194088824093342,-0.0025177502539008856
1771956775906734000,8.212734130859374,0.0014922211412340403,0.0007679346017539501,-0.0019052999559789896
1771956775926697000,8.232697021484375,-0.000011488795280456543,0.000944855622947216,-0.0003448350471444428
1771956775946660000,8.25266015625,-0.00041812239214777946,0.0009044408798217773,-0.0000547879608348012
1771956775966623000,8.272623046875,0.000015360303223133087,-0.00480174645781517,-0.0013495871098712087
1771956775986586000,8.292586181640624,-0.0005139270797371864,-0.002509261015802622,-0.001175375422462821
1771956776006550000,8.312550048828125,-0.0016347276978194714,0.0013919780030846596,-0.0006963422056287527
1771956776026513200,8.33251318359375,0.0001351442188024521,0.0017754696309566498,0.00200986722484231
1771956776046476000,8.35247607421875,0.001356256427243352,0.0020856247283518314,0.0004936280893161893
1771956776066439200,8.372439208984375,-0.0007409406825900078,-0.0005859271623194218,-0.0004963210085406899
1771956776086402300,8.39240234375,0.0013388819061219692,-0.0016383640468120575,0.001791111659258604
1771956776106365000,8.412364990234375,-0.0004364042542874813,-0.00318567780777812,0.000630940543487668
1771956776126328000,8.432328125,-0.0016426830552518368,-0.0013869437389075756,0.0015470182988792658
1771956776146291000,8.452291015625,-0.0016167201101779938,0.0006806137971580029,-0.001494712894782424
1771956776166254000,8.472254150390626,0.0013308620546013117,-0.00038135843351483345,-0.002798892091959715
1771956776186217000,8.492217041015625,0.0010273593943566084,0.001645115204155445,0.0014597768895328045
1771956776206180000,8.51218017578125,0.0009413112420588732,0.00015462422743439674,0.0021779953967779875
1771956776226143200,8.532143310546875,-0.0017494489438831806,0.001354312989860773,-0.001016407273709774
1771956776246106000,8.552106201171876,-0.0014309464022517204,-0.0010715401731431484,0.003026100341230631
1771956776266069200,8.5720693359375,0.0006027943454682827,-0.001787952147424221,0.000057437107898294926
1771956776286032000,8.592031982421876,0.001532440772280097,0.0017898259684443474,-0.0015155486762523651
1771956776305995000,8.6119951171875,0.0030606109648942947,-0.0008532935753464699,-0.00013500562636181712
1771956776325958000,8.6319580078125,0.001123031135648489,0.001207349356263876,-0.0007059251074679196
1771956776345921000,8.651921142578125,0.000532020116224885,0.0024273651652038097,0.002822783775627613
1771956776365884200,8.67188427734375,-0.0015300870873034,-0.004420067183673382,0.0012659342028200626
1771956776385848000,8.69184814453125,-0.0007545356638729572,-0.0010686544701457024,0.0008827942656353116
1771956776405811000,8.71181103515625,-0.00030118413269519806,-0.000378364697098732,0.0011694474378600717
1771956776425774000,8.731774169921875,0.0004685188177973032,0.0035407771356403828,-0.0016582298558205366
1771956776445737200,8.7517373046875,-0.00098751625046134,0.001922047697007656,-0.004413798451423645
1771956776465700000,8.7717001953125,0.0013819655869156122,-0.0010116808116436005,-0.00025171018205583096
1771956776485663200,8.791663330078125,-0.0004307720810174942,-0.0000312034972012043,0.0028419867157936096
1771956776505625900,8.8116259765625,-0.001395069994032383,-0.001051139086484909,0.00035454792669042945
1771956776525589000,8.831589111328125,-0.0020958189852535725,0.000006408896297216415,0.00004363746847957373
1771956776545552400,8.851552490234376,0.0005269893445074558,-0.00020196149125695229,-0.0010358713334426284
1771956776565515500,8.871515625,-0.0012066112831234932,0.00026646489277482033,0.0013789457734674215
1771956776585478700,8.891478759765626,0.000012279953807592392,0.001512935385107994,0.001032460480928421
1771956776605441500,8.911441650390625,-0.0003091362304985523,-0.0004088231362402439,0.0012998497113585472
1771956776625404700,8.93140478515625,-0.00024823518469929695,-0.001257928553968668,-0.0010838493471965194
1771956776645367600,8.951367431640625,-0.0008041961118578911,-0.002073498908430338,0.0003832966322079301
1771956776665330700,8.97133056640625,0.0014321634080260992,-0.0010813609696924686,0.001190154580399394
1771956776685293600,8.99129345703125,-0.00042626261711120605,-0.0003847666084766388,-0.0015298665966838598
1771956776705256400,9.01125634765625,0.0009489019867032766,-0.0002870596945285797,-0.0013714940287172794
1771956776725219600,9.031219482421875,-0.00011689867824316025,0.0012191133573651314,-0.000548309413716197
1771956776745182500,9.051182373046874,0.0013542177621275187,-0.001331061590462923,0.0014330109115689993
1771956776765145600,9.0711455078125,-0.0002307347021996975,-0.0012809731997549534,0.001444024732336402
1771956776785108500,9.0911083984375,-0.0026584859006106853,0.0007491996511816978,0.00040491006802767515
1771956776805072600,9.11107275390625,-0.0019864263013005257,0.0026001203805208206,-0.0011534380028024316
1771956776825035500,9.131035400390624,-0.00038914754986763,0.0004848586395382881,0.001223909086547792
1771956776844998700,9.15099853515625,0.000590282492339611,0.002783055417239666,-0.00032364053186029196
1771956776864961500,9.17096142578125,0.00036010495387017727,-0.0009343167766928673,0.00004024186637252569
1771956776884924700,9.190924560546875,-0.00031823012977838516,-0.003482674714177847,-0.0011575055541470647
1771956776904887600,9.210887451171875,-0.00045397691428661346,0.00038190046325325966,0.0015578175662085414
1771956776924850400,9.230850341796875,-0.0009765247814357281,-0.0003942721523344517,-0.00008387153502553701
1771956776944813600,9.2508134765625,-0.000026081688702106476,0.0021802708506584167,0.0003386583412066102
1771956776964776400,9.2707763671875,0.0009370972402393818,0.00043512461706995964,-0.0034634487237781286
1771956776984739600,9.290739501953125,0.00013578962534666061,0.00005542207509279251,-0.0015617795288562775
1771956777004702500,9.310702392578126,-0.00014899484813213348,0.00004088506102561951,0.00040332245407626033
1771956777024665600,9.33066552734375,-0.0013702432624995708,-0.0011061141267418861,-0.0004149385786149651
1771956777044628700,9.350628662109376,-0.0014572618529200554,-0.0016523324884474277,0.0012610540725290775
1771956777064591600,9.370591552734375,-0.00025192461907863617,0.0007252311334013939,0.0011201952584087849
1771956777084554800,9.3905546875,-0.0004220046103000641,-0.0003904332406818867,-0.0012046677293255925
1771956777104517400,9.410517333984375,-0.0006114211864769459,0.0016433782875537872,0.0014310546685010195
1771956777124480500,9.43048046875,-0.0010029678232967854,0.0025356682017445564,0.0015717826317995787
1771956777144443400,9.450443359375,-0.0004936512559652328,-0.0025063836947083473,-0.0006474414840340614
1771956777164406500,9.470406494140626,0.00003794580698013306,-0.002315312158316374,-0.0008449049200862646
1771956777184369700,9.49036962890625,-0.0024477485567331314,-0.0005932562053203583,0.0006754759815521538
1771956777204332500,9.51033251953125,-0.0009001046419143677,0.0026656747795641422,-0.000175991328433156
1771956777224296400,9.53029638671875,-0.0009365081787109375,0.002897435799241066,-0.0024799215607345104
1771956777244259600,9.550259521484374,0.0018891999498009682,0.0007308670319616795,-0.00029888463905081153
1771956777264222700,9.57022265625,0.0015275725163519382,0.001221334096044302,-0.0005287498352117836
1771956777284185600,9.590185546875,0.0018809980247169733,-0.0014764713123440742,0.0010406480869278312
1771956777304148700,9.610148681640625,0.0001305118203163147,-0.00042239250615239143,0.0009880843572318554
1771956777324111400,9.630111328125,0.0005393011961132288,-0.0022574644535779953,0.0022183977998793125
1771956777344074500,9.650074462890625,-0.002519296482205391,0.0013514491729438305,-0.0002719850745052099
1771956777364037600,9.67003759765625,0.001119974534958601,0.0015473263338208199,0.0006404486484825611
1771956777384000500,9.69000048828125,0.0004173410125076771,0.0022534378804266453,-0.0007378898444585502
1771956777403963600,9.709963623046875,-0.0016362136229872704,0.0004989951848983765,-0.0005626361817121506
1771956777423926500,9.729926513671876,-0.00035091955214738846,-0.0036735129542648792,-0.00018312392057850957
1771956777443889700,9.7498896484375,0.0003997008316218853,-0.0017485599964857101,0.0024729850701987743
1771956777463852500,9.7698525390625,-0.0015893341042101383,-0.00021109264343976974,-0.002443559467792511
1771956777483815700,9.789815673828125,-0.0007876805029809475,0.0006384714506566525,0.001058301655575633
1771956777503778600,9.809778564453126,0.0014900148380547762,0.0034957099705934525,-0.000446473277406767
1771956777523741400,9.829741455078125,0.00097050447948277,0.0023875110782682896,-0.0004075740580447018
1771956777543704600,9.84970458984375,0.0009280110243707895,-0.0018721683882176876,-0.0001128434669226408
1771956777563667700,9.869667724609375,-0.0016926066018640995,-0.003018086776137352,0.00013677647802978754
1771956777583630800,9.889630859375,0.0024495567195117474,0.00003808876499533653,-0.0014430738519877195
1771956777603593700,9.90959375,-0.00045444024726748466,0.0007469593547284603,-0.0010295906104147434
1771956777623556900,9.929556884765624,-0.00154204573482275,0.0004294612444937229,-0.00036525377072393894
1771956777643520800,9.949520751953125,-0.0007044090889394283,0.0019417633302509785,0.000020601146388798952
1771956777663484000,9.96948388671875,-0.0016687717288732529,-0.00193375488743186,0.0016297580441460013
1771956777683446800,9.98944677734375,0.0008719225879758596,0.00041162455454468727,0.0006157399038784206
1771956777703410000,10.009409912109374,0.0011815153993666172,-0.0018265852704644203,-0.00021575420396402478
1771956777723373000,10.029373046875,-0.0018272115848958492,-0.0020789005793631077,0.0006395552190952003
1771956777743336000,10.0493359375,-0.0020718458108603954,-0.0005026445724070072,0.0004043574444949627
1771956777763298800,10.069298828125,-0.0010425099171698093,0.004001511260867119,-0.0037978454492986202
1771956777783261700,10.08926171875,-0.001562726218253374,0.0018381685949862003,-0.0010767215862870216
1771956777803224800,10.109224853515625,-0.00040650786831974983,-0.000049662310630083084,-0.001135811093263328
1771956777823187700,10.129187744140625,0.0009773510973900557,-0.000993665773421526,0.00070807000156492
1771956777843150800,10.14915087890625,-0.0016364972107112408,0.00007927324622869492,0.0004981912206858397
1771956777863114000,10.169114013671875,0.0016345863696187735,-0.00028262706473469734,-0.000013161508832126856
1771956777883076900,10.189076904296876,-0.001339784823358059,0.0003787153400480747,-0.0004895184538327157
1771956777903040000,10.2090400390625,0.0005285907536745071,0.0021015782840549946,0.00028639292577281594
1771956777923003000,10.2290029296875,0.00018716277554631233,0.0004270821809768677,0.0011475530918687582
1771956777942966000,10.248966064453125,0.0018280791118741035,0.0005181091837584972,0.0003048361395485699
1771956777962929000,10.268928955078126,0.00000793440267443657,-0.0014546159654855728,-0.0010407570516690612
1771956777982891800,10.288891845703125,0.0012242214288562536,-0.00032121501863002777,-0.000551394303329289
1771956778002855000,10.30885498046875,-0.0015640947967767715,-0.0001777028664946556,-0.002282034372910857
1771956778022817800,10.32881787109375,-0.0001053675077855587,0.0019395053386688232,-0.0024909793864935637
1771956778042781000,10.348781005859376,-0.00009354297071695328,0.0018281429074704647,0.000015679746866226196
1771956778062743800,10.368743896484375,-0.001247331965714693,0.0004603751003742218,-0.0012420397251844406
1771956778082707000,10.38870703125,-0.0015995618887245655,-0.00048206979408860207,-0.000013153126928955317
1771956778102670000,10.408670166015625,0.0005681267939507961,-0.0018274569883942604,-0.0009333465131931007
1771956778122634000,10.428634033203124,-0.00023683486506342888,-0.0007591298781335354,-0.0017899994272738695
1771956778142596900,10.448596923828125,0.0012660359498113394,-0.00041457079350948334,-0.0014862151583656669
1771956778162559700,10.468559814453124,0.000260417815297842,0.0007497365586459637,-0.00015060545410960913
1771956778182523000,10.48852294921875,0.0007834809366613626,0.00290128355845809,0.0004025172092951834
1771956778202485800,10.50848583984375,-0.0024860212579369545,0.010139063000679016,0.012231913395226002
1771956778222449000,10.528448974609375,0.00008539250120520592,0.001463861670345068,0.000298980507068336
1771956778242411800,10.548411865234375,-0.0015819738619029522,-0.0011203791946172714,0.002147301798686385
1771956778262375000,10.568375,-0.002400235738605261,-0.00172041030600667,-0.0016685824375599623
1771956778282337800,10.588337890625,0.0004091926384717226,-0.005765773355960846,-0.007210380397737026
1771956778302301000,10.608301025390626,-0.0020330282859504223,-0.004723833873867989,-0.005527122877538204
1771956778322264000,10.62826416015625,-0.000025628134608268738,-0.000055627431720495224,-0.0025003496557474136
1771956778342227000,10.64822705078125,0.0010718582198023796,-0.0034892819821834564,0.00010468962136656046
1771956778362189800,10.66818994140625,0.0013676539529114962,0.0005722153000533581,0.0021300497464835644
1771956778382152700,10.688152587890626,-0.0014105676673352718,-0.002506534568965435,-0.004333403427153826
1771956778402115800,10.70811572265625,-0.0002714316360652447,-0.00003549782559275627,-0.002490103244781494
1771956778422078700,10.72807861328125,0.00003585917875170708,-0.0026594451628625393,-0.0015772851184010506
1771956778442041900,10.748041748046875,0.0001294896937906742,0.0003949594683945179,0.0012766460422426462
1771956778462005000,10.7680048828125,0.0008945162408053875,0.0008760769851505756,0.000787094933912158
1771956778481967900,10.7879677734375,-0.000604826956987381,0.0011166096664965153,0.0018610574770718813
1771956778501931000,10.807930908203126,0.00015248358249664307,0.001918287482112646,0.005902556702494621
1771956778521894000,10.827893798828125,-0.0008427253924310207,0.0004971581511199474,0.00014624785399064422
1771956778541856800,10.847856689453126,0.00042556016705930233,-0.0016401382163167,-0.002573777921497822
1771956778561819100,10.867819091796875,-0.00037322379648685455,0.0023166299797594547,-0.0057939328253269196
1771956778581782000,10.887781982421876,0.0005561010912060738,-0.0005710995756089687,-0.002016469370573759
1771956778601745200,10.9077451171875,0.0014017357025295496,-0.001346592791378498,0.0026198048144578934
1771956778621708000,10.9277080078125,0.0003361969720572233,-0.0022916626185178757,0.004688866436481476
1771956778641672200,10.947672119140625,0.00099199078977108,-0.0005640005692839622,0.0021749171428382397
1771956778661635000,10.967635009765624,0.0006621093489229679,-0.000185343436896801,-0.00011751882266253233
1771956778681598200,10.98759814453125,0.00002290075644850731,0.00044464459642767906,-0.0015104140620678663
1771956778701561000,11.00756103515625,0.0018977168947458267,0.0015785987488925457,0.0014282187912613153
1771956778721524000,11.02752392578125,-0.0019465731456875801,0.0008191373199224472,0.0010255458764731884
1771956778741487000,11.047487060546874,-0.00025186687707901,-0.0014778864569962025,0.0021031517535448074
1771956778761450000,11.067449951171875,-0.002460306044667959,-0.0012058666907250881,-0.0006221878575161099
1771956778781413000,11.0874130859375,-0.002526532858610153,-0.00082767428830266,-0.004395532887428999
1771956778801376000,11.1073759765625,-0.002019158098846674,0.0010323883034288883,-0.0025799162685871124
1771956778821339100,11.127339111328125,0.0006187527906149626,0.0012075752019882202,-0.00037925579817965627
1771956778841302300,11.14730224609375,0.0005495373625308275,0.0014757751487195492,-0.0018563457997515798
1771956778861265200,11.16726513671875,0.0010925806127488613,0.0006711240857839584,-0.001115860533900559
1771956778881228300,11.187228271484376,-0.0014341296628117561,-0.0013403818011283875,0.002277374267578125
1771956778901191000,11.20719091796875,-0.00005222763866186142,-0.0023069335147738457,0.002663073595613241
1771956778921154000,11.227154052734376,-0.00006820261478424072,0.00029611121863126755,0.002152502303943038
1771956778941117000,11.247116943359375,-0.0010730819776654243,0.0025266879238188267,-0.00024134217528626323
1771956778961080000,11.267080078125,-0.0014526559971272945,0.056920506060123444,0.051626965403556824
1771956778981043200,11.287043212890625,-0.002446434460580349,0.02980605885386467,0.014886340126395226
1771956779001006000,11.307006103515626,-0.0011751363053917885,0.0032703494653105736,-0.0007362065371125937
1771956779020969200,11.32696923828125,0.0019046557135879993,-0.07936613261699677,-0.07769003510475159
1771956779040932000,11.34693212890625,-0.00029668863862752914,-0.0049978760071098804,0.008874849416315556
1771956779060895200,11.366895263671875,0.0013362988829612732,-0.011347873136401176,-0.02431161142885685
