time,seconds_elapsed,z,y,x
1771956781541010700,0.0810107421875,-0.09069207831621169,-0.025384470494836567,0.003741725545283407
1771956781560973800,0.100973876953125,0.013552724534273147,-0.004463263019174337,0.04469869029843248
1771956781580937000,0.12093701171875,0.021517419803142545,0.011366795329935848,-0.01146415475718677
1771956781600899800,0.14089990234375,0.029762685579061508,0.040516317446716126,0.006789093884546309
1771956781620863000,0.160863037109375,0.023107903864979743,0.005383556201867759,-0.03122709557581693
1771956781640826000,0.180826171875,-0.06635083326399326,-0.0026599033916369077,-0.00694147143466398
1771956781660788700,0.200788818359375,-0.09389818088114261,-0.07592340212091803,0.027878844593837857
1771956781680751900,0.220751953125,-0.03578209199905395,-0.07283478845581412,0.07309499202826991
1771956781700714800,0.24071484375,-0.0531254409879446,0.010828669865243137,-0.006730559497186914
1771956781720678000,0.260677978515625,-0.021219898161292074,0.03429411846362054,0.006534571134205907
1771956781740640800,0.280640869140625,0.055336102774739264,0.0388101711159572,-0.02004022339005023
1771956781760605000,0.30060498046875,0.05208499202430248,0.03910213979985565,0.009025949558522551
1771956781780567800,0.32056787109375,-0.05475859514772892,-0.01883124945908785,-0.018492838684422894
1771956781800531000,0.340531005859375,-0.028816929161548613,0.0013258417762815951,0.004427954243775457
1771956781820493800,0.360493896484375,0.02118424232602119,-0.004789024374820291,0.006431329955440014
1771956781840457000,0.38045703125,0.0007756605476140976,-0.01292308486122638,-0.009798797094542533
1771956781860420000,0.400420166015625,-0.022007249146699905,0.01398399209100753,-0.007553365388466045
1771956781880382700,0.4203828125,-0.01768704786002636,-0.0015828487446531653,0.0029796277321409432
1771956781900345900,0.440345947265625,-0.05132569808959961,-0.017946794774755834,0.018672131640929727
1771956781920308700,0.460308837890625,-0.043919805747270585,-0.048186304085329174,0.041917498614685605
1771956781940271900,0.48027197265625,-0.02564940504133701,-0.02381685585193336,0.024047513669496402
1771956781960235000,0.500235107421875,0.0026648352950811383,-0.003163688195310533,0.01265801331740804
1771956781980198000,0.520197998046875,0.0018757307440042494,0.005719838951528072,-0.008075288637029006
1771956782000161000,0.5401611328125,-0.005738835912942886,0.016726568797416984,-0.008849825806636362
1771956782020124000,0.5601240234375,-0.005935819789767265,0.012396247975528239,-0.00679567888895981
1771956782040087000,0.580087158203125,-0.010835866791009903,-0.000936915523931384,-0.02468195738182403
1771956782060049700,0.600049560546875,0.004936871880292892,0.00009783435128629207,0.007913814465003088
1771956782080012800,0.6200126953125,0.001651274338364601,0.009070610684156417,0.003323509266367182
1771956782099976000,0.639975830078125,-0.0015887304961681365,-0.0036919498531147836,0.01810351970642805
1771956782119938800,0.659938720703125,-0.03453998298346996,0.014220504260621963,-0.0021632881142664697
1771956782139902000,0.67990185546875,-0.023577859464287757,-0.0016303046155720948,0.016551924616564063
1771956782159864800,0.69986474609375,-0.05896715275347233,-0.030989012503623962,-0.006095494730351493
1771956782179828000,0.719827880859375,-0.027225276055932043,-0.0018876403775066135,-0.0042673568545840675
1771956782199790800,0.739790771484375,-0.007879355072975158,-0.010410225257463752,-0.0032805103748571127
1771956782219754000,0.75975390625,-0.00563888266980648,-0.006627163054794073,0.01133468315862119
1771956782239716900,0.779716796875,-0.023670798444747922,-0.0019635186253115534,0.014518217698717488
1771956782259679700,0.7996796875,-0.011585223853588103,0.0021911533687263727,0.015734525552764535
1771956782279643000,0.819642822265625,-0.024777298381924627,-0.0062400999659672374,-0.010022833375073969
1771956782299605800,0.839605712890625,-0.037193712362647055,0.02390347468946129,-0.016942823630291967
1771956782319569000,0.85956884765625,0.003810498198866844,0.013564743765629828,-0.0053794554154854264
1771956782339532800,0.87953271484375,0.010229717591404914,-0.0029811712352558967,0.01158014581967145
1771956782359496000,0.899495849609375,0.0007616320222616196,0.002356025074236095,-0.008532092493819072
1771956782379458800,0.919458740234375,-0.021377134549617767,0.014629596518166362,0.007115092702209949
1771956782399422000,0.939421875,-0.04335515760183334,-0.02995287438891828,-0.0014860281735192985
1771956782419384800,0.959384765625,-0.012198971837759018,-0.00542008881997317,0.005975612944038584
1771956782439348000,0.979347900390625,-0.022806875091791152,0.004970080030150711,-0.006198251851927489
1771956782459310800,0.999310791015625,-0.010355974319577216,0.001858377750404179,0.0037844413090031594
1771956782479273700,1.019273681640625,0.026579963889718054,-0.0013138956101611257,-0.003971451781084761
1771956782499236900,1.03923681640625,-0.009777882170677184,-0.015279694457352161,-0.01714129621130414
1771956782519199700,1.05919970703125,-0.022058687072992324,0.008302183594927192,0.011347049449849872
1771956782539163000,1.079162841796875,-0.023698270973563192,-0.0008492737730965017,0.006113295248523354
1771956782559125500,1.09912548828125,-0.021306991922855376,0.0026197175117209552,-0.0051013782596215605
1771956782579088400,1.11908837890625,-0.013407763105630873,-0.006291391761787235,-0.003825038180872798
1771956782599051500,1.139051513671875,-0.0068324763685464855,-0.011916355504095553,0.007103466196497902
1771956782619014400,1.159014404296875,-0.019863807377219198,-0.0026398104516789315,-0.016518351140525193
1771956782638977300,1.178977294921875,-0.014340075519680976,-0.0001555558878928423,0.002720419673528522
1771956782658940400,1.1989404296875,-0.045620179924368856,-0.005019143336266279,0.03247352457349188
1771956782678903300,1.2189033203125,-0.03558277003467083,0.001597900183312595,-0.00485145861916244
1771956782698866400,1.238866455078125,-0.018076339438557625,-0.0017346417728811502,0.0005829875197261572
1771956782718829300,1.258829345703125,-0.013128361642360687,-0.0007233458384871482,-0.011297922211652621
1771956782738792400,1.27879248046875,-0.005047346517443657,-0.010067914625816047,0.01858300118590705
1771956782758755300,1.29875537109375,0.0007709843724966049,0.016140512537769974,0.006789240015018731
1771956782778718500,1.318718505859375,-0.026319851648807523,0.005196984121203422,0.01476322370204143
1771956782798681600,1.338681640625,-0.029167642295360563,0.008210852049663663,-0.003157870375877246
1771956782818644200,1.358644287109375,-0.024675591573119163,0.012072934305295347,-0.017484465359477324
1771956782838607400,1.378607421875,-0.015098784932494162,0.003929484936036169,-0.005043172665825113
1771956782858570200,1.3985703125,-0.02781447412073612,-0.008684972367435694,0.0036357535533141343
1771956782878533400,1.418533447265625,-0.0031260230660438535,-0.005627959416992962,0.008034280773205681
1771956782898496500,1.43849658203125,-0.018387889605760575,-0.004214877748675644,-0.005911726528126746
1771956782918459400,1.45845947265625,-0.01104161849617958,0.011399565088376402,-0.00697177524138242
1771956782938422500,1.478422607421875,-0.01030044474005699,-0.009860372822359204,-0.005770317896595225
1771956782958385400,1.498385498046875,-0.02016951232552528,0.012761318428255617,0.010290233873296528
1771956782978349600,1.518349609375,-0.025269465813040733,-0.006377937534078955,-0.012993245754297823
1771956782998312400,1.5383125,-0.00940378816127777,-0.011603015238605439,-0.006479964003292843
1771956783018275600,1.558275634765625,-0.011644845086336135,0.0016109057953581213,0.005017599833151325
1771956783038238200,1.57823828125,0.00796294170320034,0.016970570153743026,0.009719274718081579
1771956783058201300,1.598201416015625,-0.003559738308191299,0.01700677397828549,-0.00004470679140649736
1771956783078164200,1.618164306640625,-0.020776246047019956,-0.008421024201624095,-0.0013016206504777074
1771956783098127400,1.63812744140625,-0.01089957967698574,-0.01006645332109183,0.01849375199987553
1771956783118090500,1.658090576171875,-0.024365794971585274,-0.0013517799351364373,-0.007625133716734126
1771956783138053400,1.678053466796875,-0.011647767695784569,-0.009702332716435193,-0.0036177977715153246
1771956783158016500,1.6980166015625,-0.012413491371273993,0.003297324512340128,0.0024126962980721145
1771956783177979400,1.7179794921875,-0.02003974846601486,0.011910875611379742,0.008167076840018854
1771956783197942500,1.737942626953125,-0.009269932648539543,0.0007566635861992835,-0.0231141966084484
1771956783217905400,1.757905517578125,-0.020636545315384863,0.011052578281611204,0.011614797007944435
1771956783237868300,1.777868408203125,-0.01584697295129299,-0.007426058347523212,-0.0020167101172730325
1771956783257831400,1.79783154296875,-0.0013373860836029053,-0.00002224836442619562,0.007012052452843636
1771956783277794300,1.817794189453125,-0.010614332994818686,-0.004219188597612083,-0.0009331983300391584
1771956783297757400,1.83775732421875,-0.005979074409604072,-0.004080218518339097,0.015430345841264351
1771956783317720300,1.85772021484375,-0.014963175854086875,0.010598185577616095,-0.005986088672280311
1771956783337683500,1.877683349609375,-0.020350129589438437,0.011572875828668474,0.008814069506665691
1771956783357646600,1.897646484375,-0.017509937727451325,-0.0026146760104224084,-0.001522688655788079
1771956783377609500,1.917609375,-0.02065408097207546,-0.0010791370062157512,0.023663930312544105
1771956783397572400,1.937572265625,-0.017812720066308973,-0.0009404957205057144,-0.0011997129122726618
1771956783417535200,1.95753515625,-0.005685644420981407,-0.005997413783892989,0.009558330269018188
1771956783437498400,1.977498291015625,-0.02094517287313938,0.014128405530378222,-0.0004079780126921832
1771956783457461200,1.997461181640625,-0.009124386698007582,0.0007567731840535998,-0.011969693126529455
1771956783477424400,2.01742431640625,-0.014060674056410788,0.005488039489649236,-0.015690841674664988
1771956783497387500,2.037387451171875,-0.002533317869901657,-0.018595102615654467,0.007003741282224655
1771956783517350400,2.057350341796875,-0.01150865148603916,-0.014036672126315533,0.004017373282043263
1771956783537314300,2.077314208984375,-0.006430325308442115,-0.012608100627921521,0.004110230064112693
1771956783557278200,2.0972783203125,-0.01286591131389141,-0.011338446018286048,0.008019138003000989
1771956783577240800,2.11724072265625,-0.023492519268393516,0.00154332045186311,0.019246460930164903
1771956783597204000,2.137203857421875,-0.017203648257255552,0.00545998243894428,-0.0030486835135146973
1771956783617167000,2.1571669921875,-0.009724106156826019,0.006103394909016788,-0.016301256057433784
1771956783637130000,2.1771298828125,-0.007636778488755226,0.005048698224313557,-0.0052888910552021115
1771956783657093000,2.197093017578125,-0.0178115510225296,-0.00509644635617733,0.01088863815786317
1771956783677056000,2.217055908203125,-0.0009054244071245193,0.003490910855680704,0.009044928253628313
1771956783697019100,2.23701904296875,-0.004790741407871246,0.004481602393463254,0.011416187429614364
1771956783716982000,2.25698193359375,-0.006438508614897727,0.005436784226447344,-0.003469301812071353
1771956783736945200,2.276945068359375,-0.014515432086586951,-0.003857990602403879,-0.0024878895592875777
1771956783756908000,2.296907958984375,-0.014506079736351965,0.0010238631550222635,-0.008656111599132418
1771956783776871000,2.316870849609375,-0.02856090857386589,0.0018286036666482685,-0.013493249431997537
1771956783796834000,2.336833984375,0.003305471286177635,-0.005644070301577449,0.005571059864293784
1771956783816797000,2.356796875,-0.005372340688109397,-0.009780110660381614,-0.001681715142400935
1771956783836760000,2.376760009765625,-0.01360357793867588,-0.0036305385220795866,0.020059996669599785
1771956783856723000,2.396722900390625,-0.019735797083377835,0.01003971144463867,-0.0011470420101191848
1771956783876686000,2.41668603515625,-0.013747954845428467,0.009223097832128406,-0.0005758088602684437
1771956783896649200,2.436649169921875,-0.021076105776429176,0.002414002339169383,0.007029451112216338
1771956783916612000,2.456612060546875,-0.0341027606099844,-0.005517448247224092,-0.001232144743995741
1771956783936575000,2.476574951171875,-0.015093524235486983,-0.0019464944252744316,0.0010587152726948261
1771956783956537900,2.496537841796875,-0.007153963407874107,-0.010542473335005343,0.004129528419626876
1771956783976501000,2.5165009765625,0.005869184294342994,0.0032166239589452744,0.0034119821342639624
1771956783996464000,2.536464111328125,-0.01702127742767334,0.019618235118314623,0.006557422286830842
1771956784016427000,2.556427001953125,-0.02225976260304451,-0.0015725100137293337,-0.0019071213961113244
1771956784036390100,2.57639013671875,-0.005203413861989975,-0.00737750649806112,-0.004178463861579075
1771956784056353000,2.59635302734375,-0.008943769434094428,-0.008764613474905491,-0.004262991206720471
1771956784076316200,2.616316162109375,-0.011487024176120757,-0.0023402064505964517,0.023659993922943247
1771956784096279000,2.636279052734375,-0.005792611926794052,0.0003393514895811677,0.020658720614574848
1771956784116243200,2.6562431640625,-0.00234451729953289,-0.0010980243697762489,0.008577064146706835
1771956784136206000,2.6762060546875,-0.014914660537242889,-0.0038478345345705745,-0.021324061788665128
1771956784156169000,2.6961689453125,-0.007132336097955703,-0.022237989162653682,0.01684564686613157
1771956784176131800,2.7161318359375,-0.01745557719171047,0.010229315732605755,0.004009619233850389
1771956784196095000,2.736094970703125,-0.002495323947072029,-0.00866867881976068,0.0026603509162086993
1771956784216058000,2.75605810546875,-0.006086626437306404,-0.005060279064252973,-0.004128039715439081
1771956784236021000,2.77602099609375,0.012466682863235472,0.00013728957884013651,-0.02058724454725161
1771956784255984000,2.795984130859375,-0.007578326299786567,-0.007760697129368782,-0.01403888234971091
1771956784275947000,2.815947021484375,-0.015363573348522185,0.01102075837124139,0.0026554372790735213
1771956784295910100,2.83591015625,-0.03152852620780468,-0.004909764677658677,0.009379046445665881
1771956784315873000,2.855873046875,-0.012373743882775306,-0.002278393260762095,0.000587590629607439
1771956784335836000,2.8758359375,-0.007732055556774139,-0.0007216288054361939,0.008841925627971068
1771956784355799000,2.895799072265625,-0.009968436306715012,-0.00032970687840133906,0.007392192610539495
1771956784375762000,2.915761962890625,-0.01729483367204666,0.009525332181714474,-0.012209474965464323
1771956784395725000,2.93572509765625,-0.015347206735610961,0.004473163358680904,0.010125919290212913
1771956784415688000,2.95568798828125,-0.022385434809327125,-0.013318550452217458,0.0009659406890161335
1771956784435651000,2.975651123046875,-0.025821838998794554,0.014996785862743854,-0.008093372282991186
1771956784455614200,2.9956142578125,-0.004876666125655174,-0.0018008023442700504,-0.004853559244703501
1771956784475577000,3.0155771484375,-0.0033685996502637863,-0.01768164103254676,0.010039053857512772
1771956784495540200,3.035540283203125,-0.029402035573124884,-0.0014003683172166346,0.018703485760418696
1771956784515503000,3.055503173828125,-0.004709492865204811,-0.004203260376118123,-0.0006803834795951843
1771956784535466000,3.075466064453125,-0.02207446916401386,0.005369710339605808,0.003401616003876552
1771956784555428900,3.095428955078125,-0.028207857352495192,0.002245806165412068,-0.01136984580354765
1771956784575391500,3.1153916015625,-0.004559270739555359,-0.0108095267733559,-0.010716359464032574
1771956784595354600,3.135354736328125,-0.015476386073231697,-0.0013039222054183482,0.00296991918887943
1771956784615317500,3.1553173828125,-0.005295183798670769,-0.011798537810705601,-0.002856713738525286
1771956784635280600,3.17528076171875,-0.002896305963397026,0.01418638279531151,-0.0026198819085024297
1771956784655243500,3.195243408203125,-0.019953239226341245,-0.003695310853980481,0.009151128574460744
1771956784675206700,3.21520654296875,-0.016813187634944916,0.007055508002080023,0.0008561236389912665
1771956784695170600,3.235170654296875,-0.020109891092777252,-0.014732655033841729,-0.01257011583824642
1771956784715133700,3.2551337890625,-0.01681961737573147,-0.011008775672502816,0.016646735893702132
1771956784735096600,3.2750966796875,-0.007993336841464043,0.00025079642329365015,-0.0031641265867277976
1771956784755059700,3.295059814453125,-0.001402268013358116,-0.0014736527491360902,0.007544606693275273
1771956784775022800,3.31502294921875,-0.007386603119969367,0.0013517799351364373,-0.015094172689458354
1771956784794985500,3.3349853515625,0.006075520521402359,0.001818520664051175,0.023598162466799837
1771956784814948600,3.354948486328125,-0.0017068039178848265,-0.004683773902058601,0.016617674195999278
1771956784834911500,3.374911376953125,-0.008896423161029815,-0.0009555836917832494,-0.015079477443825453
1771956784854874600,3.39487451171875,-0.016233341920375823,-0.0060385129792615766,0.0026227588521782305
1771956784874837800,3.414837646484375,-0.009954407781362532,-0.014233692535758017,0.008127941272873432
1771956784894800600,3.434800537109375,-0.015486907467246055,0.0013847688892856239,-0.005286817829124629
1771956784914763800,3.454763671875,-0.019824644410610198,-0.0030230376156046984,0.02216928044115193
1771956784934726700,3.4747265625,-0.006956395009160041,0.0069340370468795294,0.0053692628150340165
1771956784954689800,3.494689697265625,-0.018625790014863013,-0.009499467088095842,-0.009677965460158883
1771956784974652400,3.51465234375,-0.007405307820439338,-0.005785341935791075,0.019297460465040057
1771956784994615600,3.534615478515625,-0.021770517781376838,-0.009047777797840535,-0.0011296707502100615
1771956785014578700,3.55457861328125,-0.00949964975118637,-0.007884177378565073,-0.0019526045056525616
1771956785034541600,3.57454150390625,-0.0211707983225584,0.014476890174485743,0.0048699441239237785
1771956785054504700,3.594504638671875,-0.01624035618305206,-0.005340338114649057,0.013827787749143316
1771956785074467600,3.614467529296875,-0.011749474504590034,0.002291398872807622,-0.007991071819141507
1771956785094430700,3.6344306640625,-0.03299626067280769,0.008341711887717247,0.004063075587293133
1771956785114393600,3.6543935546875,-0.020284078615903853,-0.012068513858504593,-0.0008070055339485406
1771956785134356700,3.674356689453125,-0.006218728384375572,-0.0017031141234561799,0.004522391061577946
1771956785154319600,3.694319580078125,-0.009214403069019318,-0.0007962284116074443,0.001610796197503805
1771956785174282500,3.714282470703125,-0.008017302238941192,-0.0009049129504710436,-0.016584173785196617
1771956785194245600,3.73424560546875,0.0034989480316638946,0.01053253646288067,0.003497358862776309
1771956785214208500,3.75420849609375,-0.019402619606256485,-0.00342931686155498,0.006005761487130075
1771956785234171600,3.774171630859375,-0.009085223731398582,-0.009074337011203169,-0.0033399489445146173
1771956785254134500,3.794134521484375,-0.0007037643551826477,0.0007070522908121347,0.006057555606449022
1771956785274098700,3.8140986328125,-0.014770868152379988,-0.018876951764337718,-0.008563364414917304
1771956785294061600,3.8340615234375,0.0015384616136550901,-0.00411156350467354,-0.0008373367401305586
1771956785314024700,3.854024658203125,-0.025101708030700682,0.00713156891297549,0.011519940065033733
1771956785333987800,3.87398779296875,-0.012376081970334052,-0.002648907073587179,0.00048403892358765005
1771956785353950700,3.89395068359375,-0.015370587611198425,-0.0042614933693781495,0.0066496306149289005
1771956785373913600,3.91391357421875,-0.002797521764039993,0.0013688041351735591,0.0019144187865778803
1771956785393876500,3.93387646484375,-0.009236614900827408,0.0046200610160827636,-0.0023796434118412433
1771956785413839600,3.953839599609375,-0.008337035712599753,-0.00047802930790930985,-0.002789913846319541
1771956785433802500,3.973802490234375,-0.004144260197877884,0.0048303062332794066,0.004543214653898031
1771956785453765600,3.993765625,-0.010280570995807647,0.0016011881189420818,0.010298636375460773
1771956785473728800,4.013728759765625,-0.0019078794479370116,-0.0022341887928545474,0.008494144236762076
1771956785493691600,4.033691650390625,-0.008189151674509048,-0.0008725085182115435,-0.001906390743749216
1771956785513654800,4.05365478515625,-0.014922259321808814,-0.008432568508945405,0.004466359158558771
1771956785533617700,4.07361767578125,-0.018070494219660758,-0.009670184012502431,-0.0000025572832673788067
1771956785553581300,4.093581298828125,-0.021507482931017875,0.010279438484646379,0.003342223099991679
1771956785573544000,4.1135439453125,0.008415361645817757,0.005029335936717689,-0.0027986634083557874
1771956785593507000,4.133507080078125,-0.028843232646584508,-0.0042461862023919815,-0.008130315893050282
1771956785613470000,4.153469970703125,-0.014473346510529518,-0.0018415362134575842,-0.011120583750214427
1771956785633433000,4.17343310546875,-0.018367431339621543,-0.0037337797008454797,0.0027571532210335136
1771956785653396200,4.193396240234375,-0.00639700756072998,0.001026566568762064,-0.005794630353944376
1771956785673359000,4.213359130859375,0.008861936369538307,-0.0029127456415444612,0.0032492749863769856
1771956785693322200,4.233322265625,-0.022260347124934195,0.002229804878681898,0.008536695603700354
1771956785713285000,4.25328515625,-0.009091068950295447,-0.007094232577271759,0.004999461388261989
1771956785733248300,4.273248291015625,-0.033932080218195916,-0.00035206484068185087,0.021663340213010085
1771956785753211100,4.293211181640625,-0.02644903098642826,0.012097666887752712,-0.0012563932692632078
1771956785773174000,4.313174072265625,-0.0025058453410863875,0.000578713203407824,0.011674454773310571
1771956785793137200,4.33313720703125,-0.017016601252555847,-0.02108849033396691,-0.01751572814742103
1771956785813100000,4.35310009765625,-0.0159597856760025,-0.005553579006530344,0.006014346652384847
1771956785833063200,4.373063232421875,0.0014063596665859221,0.005809161202795803,-0.006439494995586574
1771956785853026000,4.393026123046875,-0.020143208840489386,0.004632664769329131,0.007695669069141149
1771956785872990200,4.412990234375,-0.022848376145958898,0.015555625321902333,0.001392404206469655
1771956785892953000,4.432953125,-0.01267594169974327,0.0011125278191640973,0.005611291409982368
1771956785912916200,4.452916259765625,-0.006698036333918571,-0.01774173718933016,0.0015990144281648098
1771956785932879000,4.472879150390625,-0.004149520894885063,0.004737038459256291,-0.005477417630935087
1771956785952842200,4.49284228515625,-0.01656242774426937,-0.0010468421718105674,0.011105541444709524
1771956785972805000,4.51280517578125,-0.018056465694308278,0.007455649768188595,0.013241083035524934
1771956785992768000,4.53276806640625,-0.021647768184542653,0.0009265037277713417,0.007697888425691053
1771956786012731100,4.552731201171875,-0.013124854511022566,-0.0059553647404536605,0.0008886742017231881
1771956786032694000,4.572694091796875,-0.023755554118752478,-0.004889489074610173,-0.0045894010163377965
1771956786052657200,4.5926572265625,-0.026442601245641708,-0.00213098414670676,0.0071344915224239224
1771956786072620000,4.6126201171875,-0.0008522329151630402,-0.0074087053539231415,0.0037385837401263415
1771956786092583200,4.632583251953125,-0.009532967498898506,0.016899989135563374,-0.0034929018833674487
1771956786112546300,4.65254638671875,-0.024939795467257497,0.011789295058324932,0.00041435295455157753
1771956786132509200,4.67250927734375,-0.0018926818788051604,0.002056713334098458,-0.011896034235274418
1771956786152472000,4.69247216796875,-0.02239303359389305,-0.0052299730753526084,-0.002960859099589288
1771956786172435000,4.71243505859375,-0.0114677349537611,0.0040382790727540845,0.00573153852247633
1771956786192398000,4.732398193359375,-0.01489712488055229,0.009217143015377223,-0.007017495812941342
1771956786212361200,4.752361328125,-0.022079729861021042,-0.01858034343793988,-0.008605815317155792
1771956786232324000,4.772323974609375,-0.007267945176362991,-0.00013429390415549278,0.0024214458601083603
1771956786252287200,4.792287353515625,-0.01968728176653385,-0.0005646116128191352,0.012905823199171572
1771956786272250000,4.81225,-0.011611527338624,0.0024863734556362033,0.0073020209759008135
1771956786292213200,4.832213134765625,-0.022241057902574538,-0.00438186834603548,0.010701856014644727
1771956786312176000,4.852176025390625,-0.004592588487267494,-0.019594196655601262,-0.0031847218501847236
1771956786332139300,4.87213916015625,-0.012370821273326874,-0.010417056857049465,0.011965893734246492
1771956786352102100,4.89210205078125,-0.0029378070175647736,-0.006667860391363501,0.003809027760988101
1771956786372065000,4.91206494140625,-0.016108254235982895,0.009769844994693994,0.0030346093223895874
1771956786392028200,4.932028076171875,-0.024942133554816243,-0.0014971066899597645,-0.012250711158150806
1771956786411991000,4.951990966796875,-0.007142857491970062,0.002694097922183573,0.004986948966560885
1771956786431954200,4.9719541015625,-0.004899462479352951,0.006296031404286623,0.01656693952260539
1771956786451917000,4.9919169921875,-0.011188333490490913,0.004158982842974364,0.010764783449331298
1771956786471880200,5.011880126953125,-0.0035667525708675384,0.006016081951744854,0.016527831354923545
1771956786491843300,5.03184326171875,-0.014633505508303642,-0.001587707582861185,0.008141385276336222
1771956786511807200,5.05180712890625,-0.0077495912134647365,0.0141593121252954,0.011288195402082054
1771956786531770000,5.07177001953125,-0.015227379748225212,0.011075411167927086,0.008380427329754456
1771956786551733000,5.09173291015625,-0.008047112855315208,-0.009412775185331701,-0.0018363394485320895
1771956786571696000,5.111696044921875,-0.019123218142986297,-0.012219393571279942,-0.006902491131145507
1771956786591658800,5.13165869140625,-0.008204933765530586,-0.0018523133357986807,-0.00751303337807767
1771956786611622000,5.151621826171875,0.002880523872375488,0.0076338924119248985,0.023504063575714825
1771956786631584800,5.171584716796875,-0.023752631509304047,-0.005079860547557473,0.007864312767470256
1771956786651548000,5.1915478515625,-0.003101473146677017,0.00035067660119384526,0.0020929445581045
1771956786671511000,5.211510986328125,-0.015676292559504507,0.006269326060451567,-0.009862564779445528
1771956786691474000,5.231473876953125,-0.012236965760588645,-0.001486329567618668,-0.012271443418925627
1771956786711437000,5.25143701171875,-0.013735679885745047,-0.012745061413198708,0.009884283420909195
1771956786731400000,5.27139990234375,0.00003974748849868774,0.0005235489500686526,0.00016769385025836527
1771956786751363000,5.291363037109375,-0.008039514070749283,-0.008875818764418363,0.001298606709484011
1771956786771326000,5.311325927734375,-0.020905425384640693,-0.005777962346933781,0.011791751876892522
1771956786791288800,5.331288818359375,-0.029287469282746312,0.003887326294742524,-0.005746526029054075
1771956786811252000,5.351251953125,-0.029287469282746312,0.008118862917274237,-0.017676727395411578
1771956786831214800,5.37121484375,-0.02165712053477764,0.0001650543686002493,0.010662501251790671
1771956786851178000,5.391177978515625,0.00064005146920681,-0.0037091932488605376,0.0024561427141539752
1771956786871140900,5.411140869140625,-0.015815408769249917,-0.00538362926710397,0.011274294740892947
1771956786891104000,5.43110400390625,-0.020306290447711945,0.011116583428531885,0.026096272026002405
1771956786911067100,5.451067138671875,-0.010725392153859137,-0.0054041971310973165,-0.0035162096937187016
1771956786931030000,5.471030029296875,-0.012377251014113426,0.007797777736745774,0.001397838433412835
1771956786950993000,5.490992919921875,-0.02898702503144741,0.005801818146556615,0.009278563479566945
1771956786970955800,5.510955810546875,-0.007737316253781318,-0.000655066375248134,-0.014247054340830071
1771956786990919000,5.5309189453125,-0.010134440523386001,-0.009879917773045598,0.0013600180405192077
1771956787010881800,5.5508818359375,0.0013899930536746979,-0.009213380155712365,0.010970096763083711
1771956787030845000,5.570844970703125,-0.007888122901320457,0.01288852500449866,-0.00001790098287165165
1771956787050808000,5.59080810546875,-0.02345218725800514,-0.00018558569997549057,-0.016281409712648017
1771956787070771000,5.61077099609375,-0.02329495086967945,-0.009883351839147507,0.007011449664644897
1771956787090734000,5.630734130859375,-0.01087912141084671,0.00030976006891578434,-0.010747238659486173
1771956787110697000,5.650697021484375,-0.0008522329151630402,-0.0028640476616099476,-0.012718849259708075
1771956787130659800,5.670659912109375,-0.01327507663667202,-0.0024138562086969614,-0.0058702437402680515
1771956787150622700,5.690622802734375,0.002447393152117729,-0.00014919921234250069,0.01831351832845248
1771956787170587000,5.7105869140625,-0.027777064719796178,0.017988734220340846,-0.0037240985570475456
1771956787190549800,5.7305498046875,-0.016102993538975714,0.012479944203607738,-0.0027423209780827163
1771956787210513000,5.750512939453125,-0.018646248281002045,0.0034258097302168606,0.005776720237918198
1771956787230475800,5.770475830078125,-0.017600538620352744,-0.009431041494384408,0.00003496171552687883
1771956787250439000,5.79043896484375,-0.014753917017579077,-0.020512078685499726,-0.0009827000275719911
1771956787270402000,5.810402099609375,-0.012510522004961966,-0.003917173443734646,0.00452886646813713
1771956787290365000,5.830364990234375,-0.007720365118980407,-0.006520560875162482,0.0008344141306821256
1771956787310328000,5.850328125,-0.021490531796216964,0.01767126576900482,-0.015611620692303404
1771956787330291000,5.870291015625,-0.015063713619112967,0.007630019954405725,0.0063205447910353535
1771956787350253800,5.89025390625,-0.020309797579050062,0.006301913155801594,-0.014103453752212225
1771956787370217000,5.910217041015625,-0.008937924215197563,-0.025100648584775623,-0.01425953022991307
1771956787390179800,5.930179931640625,-0.012521627920866012,0.004007883934490382,0.000569525249954313
1771956787410143000,5.95014306640625,-0.009079963034391403,0.004909764677658677,0.0024930132589768617
1771956787430105900,5.97010595703125,-0.00772854842543602,0.0019910642193630337,0.004740728253684937
1771956787450069000,5.990069091796875,-0.022387188374996186,0.009251702872104943,0.005162579528102651
1771956787470032000,6.010031982421875,0.002452069327235222,-0.016974479143880308,-0.015335388433653861
1771956787489995000,6.0299951171875,-0.024932196682691574,-0.011891184530220925,-0.006739975779503584
1771956787509958100,6.049958251953125,-0.008327098840475082,-0.016499153249710796,0.004592780283512547
1771956787529920800,6.069920654296875,-0.018799977537989614,0.011064853241294621,0.007761866173148155
1771956787549884000,6.0898837890625,-0.008773089042305946,0.011775887587480246,0.00688735749409534
1771956787569846800,6.1098466796875,0.0004974281281232833,0.012087035895884037,-0.0016805278323125093
1771956787589809700,6.1298095703125,-0.04035714482963085,0.001454728852957487,-0.0008805913599673658
1771956787609772800,6.149772705078125,-0.01611409945487976,-0.0016427622383460403,-0.01179501241305843
1771956787629735700,6.169735595703125,-0.007433949393033981,-0.009891571678221226,-0.0034626894081942737
1771956787649698800,6.18969873046875,-0.00563712910413742,-0.004996237384714186,-0.0007562525942455977
1771956787669661700,6.20966162109375,-0.023148820397257804,-0.008880714135244489,0.004520674028526991
1771956787689624800,6.229624755859375,-0.021059154641628264,-0.0008257102344185113,-0.007343028839724138
1771956787709587700,6.249587646484375,-0.016128712502121924,0.006255151404626667,-0.010263893855642527
1771956787729550800,6.26955078125,-0.018823358413577077,0.013226195993646979,-0.0031361700007226318
1771956787749514000,6.289513916015625,-0.009849778363108635,-0.006867913008108735,-0.007428031108900904
1771956787769476600,6.3094765625,-0.02855506335496902,-0.00045647506322711703,0.014063158274441956
1771956787789439700,6.329439697265625,-0.013292612293362616,0.0030962855149060486,0.007992734053265303
1771956787809402600,6.349402587890625,-0.005210428124666214,-0.006805990220420062,-0.01435113576981239
1771956787829365800,6.36936572265625,-0.006700958943367004,0.009903152518160641,0.012508594909356907
1771956787849328600,6.38932861328125,-0.010736498069763184,0.0062393327809870235,-0.015484761175932362
1771956787869291800,6.409291748046875,-0.0032552024036645887,-0.005778364205732941,0.0018723423436749725
1771956787889255000,6.4292548828125,-0.014473931032419203,-0.0028197701284661887,0.005800877431640401
1771956787909218800,6.44921875,-0.021064415338635442,-0.005377747515588998,-0.005876746546290814
1771956787929181700,6.469181640625,-0.009690788409113884,-0.022083200459741055,0.001449294626014307
1771956787949144800,6.489144775390625,-0.03334288215339184,-0.009487886248156429,-0.006537649007281288
1771956787969108000,6.50910791015625,-0.018971242451667786,0.004899243283644318,-0.006086224578507244
1771956787989070600,6.529070556640625,-0.016720248654484748,-0.0010738397765904665,0.010952378443302586
1771956788009033700,6.54903369140625,-0.019417817175388336,0.004103635926544666,-0.003925950405234471
1771956788028996600,6.56899658203125,-0.010298691174387932,0.00306800926849246,-0.001441065653786063
1771956788048959700,6.588959716796875,-0.02032733323574066,-0.01047298829536885,0.009957010730402543
1771956788068923000,6.6089228515625,-0.02527005033493042,-0.011701032252982259,0.0002738941710907966
1771956788088885800,6.6288857421875,-0.012853636354207991,-0.0038176585920155046,-0.018283059258107096
1771956788108849000,6.648848876953125,-0.029163550642132757,0.000320025734603405,0.00950195130612701
1771956788128811800,6.668811767578125,-0.010315642309188843,0.0029888430850580332,0.0038116033105645326
1771956788148775000,6.68877490234375,-0.031717326778173446,-0.01393741300292313,0.0019172226650174707
1771956788168737500,6.708737548828125,-0.004331891724467277,-0.00466196392904967,0.010200820290483534
1771956788188700700,6.72870068359375,-0.012714520144462584,-0.004715666877664625,0.01375655827699229
1771956788208663800,6.748663818359375,-0.017648469415307046,-0.0021464009115472436,0.010343516696803272
1771956788228626700,6.768626708984375,-0.010767477729916573,0.0016132073502987622,0.005237681457772851
1771956788248589800,6.78858984375,-0.026169629523158072,0.0010340557554736733,0.014271421597106381
1771956788268552700,6.808552734375,-0.02287935580611229,-0.01482745717782527,0.004078848545160144
1771956788288515800,6.828515869140625,-0.018542203384637832,-0.011337751898542046,-0.001266439739242196
1771956788308478700,6.848478759765625,-0.016748305705189703,-0.014614106688089669,-0.002786854239553213
1771956788328441900,6.86844189453125,-0.003277414235472679,-0.0004915098439902067,-0.0017622147663962095
1771956788348404700,6.88840478515625,-0.007609305959939956,0.0010202829584479332,0.014896768687525763
1771956788368367600,6.90836767578125,-0.0055061962008476255,0.0141761901948601,-0.00879867100813426
1771956788388330800,6.928330810546875,-0.021216975551843643,0.011137187825143337,-0.022677239096444098
1771956788408293600,6.948293701171875,-0.02869768669605255,0.003032864889875054,0.0039629396810661995
1771956788428256800,6.9682568359375,-0.02046586492359638,-0.01241447775196284,0.00601494030742906
1771956788448220000,6.988219970703125,-0.007438625568151474,-0.00826112093217671,0.010171219736663625
1771956788468182800,7.008182861328125,-0.007878770551085471,-0.004883972649276256,0.02784382807938382
1771956788488146000,7.02814599609375,-0.018355156379938124,0.0070011474663391705,-0.004679937977157533
1771956788508108800,7.04810888671875,-0.020756372302770613,0.002670022926852107,0.005022750932304188
1771956788528071700,7.06807177734375,-0.006243862825632095,0.008459054657071828,0.009733504172833635
1771956788548034600,7.08803466796875,-0.018959552013874052,-0.014640081379562615,0.0007924290193244815
1771956788567997200,7.1079970703125,-0.027334581649303434,0.0018908187152817844,-0.0028188111472409218
1771956788587960300,7.127960205078125,-0.03061784110367298,-0.012896708310954273,-0.0010651724129449576
1771956788607923200,7.147923095703125,-0.01475508606135845,-0.010280607528425752,0.010264295714441686
1771956788627886300,7.16788623046875,-0.008766659301519394,-0.008183708314411342,0.00805434631370008
1771956788647849200,7.18784912109375,-0.030322657549381255,0.0032944384355098008,-0.010425486758677289
1771956788667812400,7.207812255859375,-0.008318915534019469,-0.005524170248955488,0.011856551608256995
1771956788687775500,7.227775390625,-0.01625438470840454,-0.0038932811114937064,0.006192041306849569
1771956788707738400,7.24773828125,-0.01880290014743805,-0.01212499328609556,-0.0002693823927547783
1771956788727701200,7.267701171875,-0.006833060890436172,0.009164645643159747,-0.005379080956149846
1771956788747664100,7.2876640625,-0.002049333745241165,-0.008645626737736166,-0.0009280015651136636
1771956788767628300,7.307628173828125,-0.0259855051279068,-0.005729447030089796,0.0024190712399315088
1771956788787591200,7.327591064453125,-0.01940145056247711,0.008195216089114546,-0.002711743176728487
1771956788807554300,7.34755419921875,-0.004587327790260315,-0.012056567692384123,0.004009199108742177
1771956788827517200,7.36751708984375,-0.009227262550592422,-0.001867693568021059,0.010809426308656112
1771956788847480300,7.387480224609375,-0.0014426000237464905,-0.0035311698008328673,0.00400135372900404
1771956788867443200,7.407443115234375,-0.009526537758111953,0.003359612626209855,0.014348359290836377
1771956788887406300,7.42740625,-0.033168694630265234,0.002637107037939131,0.005139728375477716
1771956788907369500,7.447369384765625,-0.0289700738966465,0.005113872415013611,-0.00036612989865243434
1771956788927332400,7.467332275390625,-0.023280922344326972,0.003545125260949135,-0.00277792201442644
1771956788947295200,7.487295166015625,-0.010255436554551123,-0.019075652674213052,-0.006480639856727794
1771956788967258000,7.507258056640625,-0.01624035618305206,0.006678893242031335,-0.0002567877726629376
1771956788987221200,7.52722119140625,-0.0032230536997318268,-0.0165916538387537,0.001726330602262169
1771956789007184400,7.547184326171875,-0.02371580663025379,-0.01775934591125697,-0.02444961906382814
1771956789027147300,7.567147216796875,-0.006053308689594268,0.005291238275915384,0.01459572164802812
1771956789047110400,7.5871103515625,-0.0225128605812788,-0.009153905053436755,-0.012048923242045565
1771956789067073300,7.6070732421875,-0.015326163947582244,-0.01902030575778335,-0.008980420783208683
1771956789087036400,7.627036376953125,-0.01683306137919426,-0.010237133712880313,-0.006304169044969603
1771956789106999300,7.646999267578125,-0.020872107636928556,-0.0022583368534222245,0.017298331670230253
1771956789126962200,7.666962158203125,-0.012933715853095053,-0.0016689926581457256,-0.00995732125765644
1771956789146925300,7.68692529296875,-0.005009352594614029,0.0011949088729918003,0.006105605132412165
1771956789166888200,7.70688818359375,-0.014286299505829811,0.012589834318868814,0.005919708905182779
1771956789186851300,7.726851318359375,-0.016689853516221046,0.015520188682340084,-0.019244195907842366
1771956789206814200,7.746814208984375,-0.01953472155332565,-0.008330898232758045,-0.006080278894910589
1771956789226777300,7.76677734375,-0.005767477485537529,-0.010738324700668454,0.010669031457277014
1771956789246740200,7.786740234375,-0.015639467680454253,-0.00858827052731067,0.005478394878469408
1771956789266703400,7.806703369140625,-0.018476152411103248,-0.0017145123003050684,-0.010274296518648043
1771956789286666500,7.82666650390625,-0.017583587485551833,0.0003423836968839168,-0.015561242211936041
1771956789306629400,7.84662939453125,-0.021028174981474874,0.0213685859169811,0.004343043306143954
1771956789326592300,7.86659228515625,-0.01758767913877964,-0.009668795773014426,0.004508399068843573
1771956789346555100,7.88655517578125,-0.03524082472920417,-0.005373107873089611,0.004457719194376841
1771956789366518300,7.906518310546875,-0.011004793617129326,-0.017572993026301265,0.006927689504483714
1771956789386481400,7.9264814453125,0.004864975687861442,-0.008520612118579447,0.01992846097811125
1771956789406444300,7.9464443359375,-0.008750292688608169,0.010360175570659338,-0.004410610383329913
1771956789426407400,7.966407470703125,-0.014437690675258635,0.008988448826037347,-0.00859112007152289
1771956789446370300,7.986370361328125,-0.021625556352734564,0.0010716112868860363,-0.0040842279731761666
1771956789466333400,8.00633349609375,-0.01654723017513752,-0.011503865713067352,0.009181742908433078
1771956789486296300,8.02629638671875,-0.030018121644854543,-0.008022453338094055,0.00336538477987051
1771956789506259200,8.04625927734375,-0.004580313527584075,0.0002988733487203717,0.012507690727058797
1771956789526222300,8.066222412109376,-0.010116904866695404,-0.02063734903298318,-0.007428761761263013
1771956789546185200,8.086185302734375,-0.010118073910474777,0.0025288243578746915,0.008669062412250787
1771956789566148900,8.10614892578125,-0.02029167740046978,0.004495630918815731,0.01641623333976604
1771956789586111700,8.12611181640625,-0.015058452922105788,0.0020031199833378194,-0.016314225136861205
1771956789606075000,8.146074951171874,-0.01925298200249672,-0.001744213318824768,-0.004351126147899776
1771956789626037800,8.166037841796875,-0.01656418130993843,-0.01480119022540748,0.0033718145206570625
1771956789646001000,8.1860009765625,-0.00024725275933742524,0.00406308472044766,0.003251174682518467
1771956789665963800,8.2059638671875,-0.009067688074707984,0.003429499524645507,0.0038110553212929513
1771956789685927000,8.225927001953124,-0.011459551647305487,-0.007728913751617074,0.0001407601775601506
1771956789705889800,8.245889892578125,-0.017446809363365172,0.0075754767555743455,-0.001615481505775824
1771956789725852700,8.265852783203124,-0.022384850287437436,-0.014589849029667675,0.00005926503972150385
1771956789745816800,8.28581689453125,-0.0075718965590000145,-0.003421060489863157,-0.0028049013528972863
1771956789765779700,8.30577978515625,-0.010568740287423134,-0.010228365884535014,0.00598604300650768
1771956789785742800,8.325742919921876,-0.008178045758605004,-0.0022490210358053443,-0.0038823304592166094
1771956789805705700,8.345705810546875,-0.026436171504855156,0.006471424503810703,0.0016258659024722872
1771956789825668900,8.3656689453125,-0.013722235882282257,0.0008103300021961331,-0.010394771960005163
1771956789845631700,8.3856318359375,-0.02420037527680397,0.012147899237647652,-0.005628900131909176
1771956789865595000,8.405594970703126,-0.03601765432059765,-0.002359751401282847,-0.005455214932281524
1771956789885558000,8.42555810546875,-0.022549685460329056,-0.00700593323931098,-0.02131221608724445
1771956789905521000,8.44552099609375,-0.019850947895646093,-0.01028619701899588,0.009545635184226558
1771956789925483800,8.46548388671875,-0.007734393644332886,0.0021177958715707062,0.00048184696650132534
1771956789945446700,8.48544677734375,-0.0035457097828388213,0.003194777453318238,-0.000973950465535745
1771956789965409800,8.505409912109375,-0.0220990190833807,0.0010309870155528187,0.013000552277918903
1771956789985372700,8.52537255859375,-0.016717910566926,0.004116897266916931,0.006136950118746608
1771956790005335800,8.545335693359375,-0.01851180824637413,-0.006288651815429329,-0.005129773237043991
1771956790025299000,8.565298828125,-0.011328618744015693,0.00023877719193696973,0.007086798189487308
1771956790045261800,8.58526171875,-0.013275661158561707,-0.005366970393247902,0.0004220796032808721
1771956790065225000,8.605224853515624,-0.01956102503836155,-0.0016853227384388445,0.004583373134350404
1771956790085187800,8.625187744140625,-0.010146130961179733,0.0040437589654698965,-0.0016685177341103552
1771956790105150700,8.645150634765624,-0.02601063956916332,0.01446567466072738,0.001880169457104057
1771956790125113600,8.665113525390625,-0.016733108136057852,-0.003114259563013911,-0.004930423873197287
1771956790145076700,8.68507666015625,-0.019123218142986297,0.006708996119350195,0.0051052872497588395
1771956790165039900,8.705039794921875,-0.005961538752913474,-0.006169409349933266,0.005494387032045051
1771956790185002800,8.725002685546874,-0.005959785187244415,-0.008968392418697476,-0.0026026659122202543
1771956790204966000,8.7449658203125,-0.011200023928284645,0.007736622134037315,-0.0009634016720578074
1771956790224928800,8.7649287109375,-0.007163315758109092,-0.007023176635056734,0.022037525553954763
1771956790244892000,8.784891845703125,-0.0215150817155838,0.001386193661391735,-0.004891617099614814
1771956790264854800,8.804854736328124,-0.029745149922370907,0.004615238710492849,0.006108628206560388
1771956790284817700,8.824817626953125,-0.008345219019055366,0.0027406404776498675,-0.001608750370889902
1771956790304780800,8.84478076171875,-0.01253565644621849,-0.007489588570408523,0.003268701206054538
1771956790324743700,8.86474365234375,-0.006704466074705123,0.010754727846197784,-0.0022579258614685385
1771956790344706800,8.884706787109375,-0.014489128601551056,-0.007756422813050449,0.013018352796090767
1771956790364669700,8.904669677734375,-0.01538344709277153,0.009497530859336257,-0.0011734550930093974
1771956790384632800,8.9246328125,-0.018072832307219504,-0.006937946037016808,-0.0077519567004870615
1771956790404596000,8.944595947265626,-0.018221885389089584,-0.011618468536064028,0.0032511838156729935
1771956790424558800,8.964558837890625,-0.0016179565906524658,0.0058274640444666145,0.012302496144315228
1771956790444522000,8.98452197265625,-0.007306523621082306,-0.02564440007265657,0.003948262701742351
1771956790464484600,9.004484619140625,-0.006409867042303085,-0.012269370192848145,0.020826880255714057
1771956790484447700,9.02444775390625,-0.007001987716555595,0.00348791518099606,0.018816335017746315
1771956790504410600,9.04441064453125,-0.020015783068537712,0.010799699499085545,0.008303334372397511
1771956790524373800,9.064373779296876,-0.02465513330698013,-0.003956482540816068,-0.021442692332807926
1771956790544337000,9.0843369140625,-0.019421324306726453,-0.010046250783279538,0.0037070104249287395
1771956790564300000,9.104300048828126,-0.012836100697517394,-0.006172149296291172,-0.006369498499296605
1771956790584263200,9.12426318359375,-0.019717676904797553,-0.010498451530188321,0.003625579219171777
1771956790604226000,9.14422607421875,-0.022864742758870123,-0.004079707061685621,-0.0001025379258673638
1771956790624189000,9.16418896484375,-0.01148994678556919,0.0014520985044538975,0.011212700746767222
1771956790644151800,9.18415185546875,-0.041266076368093485,0.0013599632415920496,-0.0009502133969217538
1771956790664115000,9.204114990234375,-0.02225976260304451,-0.011984671499952674,0.0010512534854467959
1771956790684078000,9.224078125,-0.005652326673269271,-0.002522394617088139,-0.006805323500139638
1771956790704041000,9.244041015625,-0.00850011731982231,0.0019477000016719101,0.007758696968527511
1771956790724004000,9.264004150390624,-0.011950550034642219,-0.0006779723268002272,-0.010880308720935136
1771956790743967000,9.283967041015625,-0.019134908580780027,0.019132972352020442,-0.01119111910262145
1771956790763930000,9.30393017578125,-0.004027940341830253,0.00918634601831436,0.004783279620623216
1771956790783893000,9.32389306640625,-0.019894202515482903,0.004094247043691575,-0.001345925583085045
1771956790803856000,9.34385595703125,-0.01330547177493572,-0.009338102513924241,-0.0021613518855068833
1771956790823819000,9.363819091796875,-0.014508417823910713,0.0006694602267816662,-0.0005737995662726461
1771956790843782000,9.383781982421874,-0.0032832594543695448,-0.0072655340235680335,0.0044407589264214035
1771956790863745000,9.4037451171875,-0.013756722673773765,0.009267229234799742,0.003140946640539914
1771956790883708000,9.4237080078125,-0.021084873604774474,0.003824709387309849,-0.01021507714469917
1771956790903671000,9.443671142578125,-0.021680501410365104,0.002603533561900258,0.004121938768215477
1771956790923634200,9.46363427734375,-0.0007306523621082306,0.003184475255012512,-0.009485913486778736
1771956790943597000,9.48359716796875,-0.019139000234007834,0.0037094489771872757,-0.018585558469174427
1771956790963560200,9.503560302734375,-0.035298692396283145,-0.005214556310512125,-0.010353727563563734
1771956790983522800,9.523522705078125,-0.0020744681864976883,0.00034209143593907356,0.0025078181024640795
1771956791003486000,9.54348583984375,-0.011809680259227752,0.00804455557204783,-0.0018949560342822222
1771956791023448800,9.56344873046875,-0.023184476232528686,0.011702237829379738,0.009031968307355418
1771956791043412000,9.583411865234375,-0.005078910699486732,0.01142784133478999,-0.005063183407392352
1771956791063376000,9.6033759765625,-0.011357844838500022,-0.010111534571833908,0.02314444561623968
1771956791083339000,9.623339111328125,-0.017343933510780334,0.00337294703181833,-0.006177282129134982
1771956791103302000,9.643302001953124,-0.01809095248579979,0.016965236391499636,-0.0108248796061147
1771956791123265000,9.66326513671875,-0.022272622084617614,0.0034800241354852914,-0.016869356535281984
1771956791143228200,9.683228271484374,-0.010587444987893104,0.004098448294773698,0.0045701939923688765
1771956791163191000,9.70319091796875,-0.008344049975275993,-0.012575769260898232,-0.004703839442552998
1771956791183154200,9.723154296875,-0.013438158243894577,0.010447926919348538,0.0015629019351676105
1771956791203116800,9.74311669921875,-0.010590367597341537,0.0013137129470705985,0.0013197956279851495
1771956791223080000,9.763079833984374,-0.019265256962180136,-0.0032358035834506153,-0.016649457573750987
1771956791243043000,9.78304296875,-0.007588847693800926,-0.019013656821288166,0.013528987465659156
1771956791263006000,9.803005859375,-0.0036900866895914074,0.004337663878127933,0.0006987045875750482
1771956791282969000,9.822968994140625,-0.01730360150039196,0.01655621719919145,-0.0015098474405240267
1771956791302932000,9.842931884765624,-0.014316110122203827,-0.009719137720763682,-0.0005070544729940593
1771956791322895000,9.86289501953125,-0.029583237358927726,0.0032007688026875255,-0.01666326690339483
1771956791342858000,9.88285791015625,-0.016878069564700126,-0.005913059968687594,0.025206803239835426
1771956791362821000,9.902821044921875,-0.017331658551096914,-0.014041165638342498,-0.007622813895484432
1771956791382784300,9.9227841796875,-0.015092939713597297,0.000023709669150412082,-0.0023548012315295634
1771956791402747000,9.942746826171875,-0.018979425758123395,0.010366020789556205,-0.0015667926589958369
1771956791422710000,9.9627099609375,-0.017622750452160833,-0.0016385244546458125,0.014338997807446867
1771956791442673000,9.9826728515625,-0.019122633621096608,0.001451440917328,0.0047973720780573785
1771956791462636000,10.002635986328125,-0.0074538231372833245,-0.003283734378404915,0.010259975732350721
1771956791482599000,10.022598876953126,-0.011343231791257858,-0.0015677973059937357,-0.0026340108985546977
1771956791502562000,10.04256201171875,-0.016721417698264122,-0.015429514724202453,0.0036027828654740003
1771956791522525200,10.062525146484376,-0.01028349360525608,0.0047216216944158075,-0.012224462472042069
1771956791542488000,10.082488037109375,-0.01985854668021202,-0.0026307138297706843,-0.0003520100417546928
1771956791562450400,10.102450439453126,-0.029434768798947332,0.00734199679326266,-0.0006893613704945892
1771956791582413300,10.122413330078125,-0.038408348849415776,-0.0017872487429529428,-0.0030665022979956117
1771956791602376400,10.14237646484375,-0.021803251007199285,-0.006559614243917167,0.009113362980494276
1771956791622339600,10.162339599609375,-0.006840659675002097,0.0023295389261096715,0.004360588095989078
1771956791642302500,10.182302490234376,-0.006093640699982643,-0.002940254702977836,0.006228245131392031
1771956791662265600,10.202265625,-0.014319617253541946,0.010158186725154518,0.01669024624186568
1771956791682228500,10.222228515625,-0.01146598138809204,0.01676847171038389,0.013445729628996922
1771956791702191600,10.242191650390625,-0.01954348938167095,0.004696779514104127,-0.018239238382689652
1771956791722154500,10.262154541015626,-0.018193828338384628,0.007493570625782013,0.0006888042480684817
1771956791742117400,10.282117431640625,-0.007407645907998085,-0.014163257648050783,0.005799516591615974
1771956791762080500,10.30208056640625,-0.019373393511772155,-0.00469875227548182,-0.00614330679429695
1771956791782043400,10.32204345703125,-0.010392799198627472,0.0021243717428296805,-0.004075368813285604
1771956791802006500,10.342006591796874,-0.007096680262684822,0.009887735753320156,-0.009736143654491752
1771956791821969400,10.361969482421875,-0.01772328821718693,0.010112009495869278,0.0026831655362155285
1771956791841932500,10.3819326171875,-0.017728548914194106,-0.012605068420618771,0.01204946209816262
1771956791861895700,10.401895751953125,-0.003063479223847389,-0.002651062498055398,-0.004740892650466412
1771956791881858600,10.421858642578124,-0.016227496701478956,-0.0004942863229662179,-0.0006310644451528787
1771956791901821700,10.44182177734375,-0.012342764222621917,-0.003740830496139824,0.014859971207939087
1771956791921784300,10.461784423828124,-0.0006669394761323928,0.0014035466549918055,-0.005578603849932551
1771956791941747500,10.48174755859375,-0.010092939469218253,-0.006916610988043248,0.010934760588221251
1771956791961710300,10.50171044921875,-0.024454642298817632,0.005870499468594789,-0.02157470294833183
1771956791981673500,10.521673583984375,-0.02849719568789005,-0.0010997048702090979,-0.005565141580160707
1771956792001636600,10.54163671875,-0.1174397999882698,0.010112776680849492,-0.02216697888621129
1771956792021599500,10.561599609375,0.38773850387036796,0.15444646534621714,-0.12473409431544132
1771956792041562600,10.581562744140625,-0.3289262494176626,-0.06207534790188074,-0.018893866366520524
1771956792061525500,10.601525390625,0.18754151021838186,-0.3530032175105065,0.31967984377518294
1771956792081488600,10.621488525390625,-0.2774959219098091,0.09848905233535915,-0.04603298937580548
1771956792101451500,10.641451416015625,-0.012919687327742575,0.1873073726689443,-0.0483086883559823
1771956792121414400,10.661414306640625,0.4008347168087959,-0.09328750163689255,-0.09291008315924555
