time,seconds_elapsed,z,y,x
1771956754546518000,0.07451806640625,-0.0008100317791104317,-0.0002660122700035572,0.005982952658087015
1771956754566481000,0.09448095703125,-0.0009370604529976845,0.010702600702643394,0.0016531370347365737
1771956754586443800,0.11444384765625,0.001303129130974412,-0.011700665578246117,-0.007732121739536524
1771956754606407000,0.134406982421875,-0.0028120256029069424,0.0005555353127419949,0.007430738769471645
1771956754626370000,0.1543701171875,-0.00025094300508499146,-0.006193578243255615,-0.008435537107288837
1771956754646333000,0.1743330078125,0.0005360604263842106,0.0048289112746715546,0.0031517241150140762
1771956754666296000,0.194296142578125,0.0009648457635194063,0.0036181467585265636,0.004720539785921574
1771956754686259000,0.214259033203125,-0.0008245930075645447,0.002981810364872217,0.004780665971338749
1771956754706222000,0.23422216796875,0.0009329267777502537,0.005029403604567051,0.009229336865246296
1771956754726186000,0.25418603515625,0.0006256590131670237,-0.003837368218228221,-0.0022608586587011814
1771956754746149000,0.274149169921875,-0.0006266217678785324,-0.00407487852498889,-0.006546963471919298
1771956754766112000,0.294112060546875,-0.0026612402871251106,-0.0036015533842146397,-0.0034540721680969
1771956754786075000,0.314074951171875,-0.000632754061371088,0.0014787609688937664,-0.0038283595349639654
1771956754806038000,0.3340380859375,-0.0013291127979755402,0.003582082223147154,-0.00014732551062479615
1771956754826001000,0.3540009765625,0.0005141603760421276,-0.0005890722386538982,0.003394805360585451
1771956754845964000,0.373964111328125,0.0001815282739698887,-0.00025937287136912346,0.0046001519076526165
1771956754865927000,0.393927001953125,-0.0011159875430166721,0.0020663407631218433,0.0006206909893080592
1771956754885890000,0.41389013671875,-0.0023114816285669804,-0.0022354633547365665,0.00029764953069388866
1771956754905853000,0.43385302734375,-0.00044925836846232414,0.000676523894071579,-0.0033578313887119293
1771956754925817000,0.453817138671875,0.0016744676977396011,-0.0002593980170786381,0.00007820507744327188
1771956754945780000,0.473780029296875,-0.002369603142142296,0.003071312792599201,0.002015327103435993
1771956754965743000,0.4937431640625,0.0008257371373474598,0.0032623913139104843,0.0015625505475327373
1771956754985706000,0.5137060546875,0.0026496315840631723,0.00001173047348856926,-0.00018402852583676577
1771956755005668900,0.5336689453125,0.0014850515872240067,-0.0033914982341229916,-0.0016382152680307627
1771956755025632000,0.553632080078125,0.0001284359022974968,-0.0025675161741673946,-0.0018621871713548899
1771956755045595000,0.573594970703125,0.0011033350601792336,-0.0014874679036438465,-0.0014722610358148813
1771956755065558000,0.59355810546875,0.002928641624748707,-0.00040495116263628006,-0.0004421468183863908
1771956755085521000,0.61352099609375,-0.0009414851665496826,0.0005113831721246243,0.003880741074681282
1771956755105485000,0.633485107421875,0.0005735638551414013,-0.00319808442145586,0.0022160641383379698
1771956755125448000,0.653447998046875,0.0004553273320198059,-0.0001858258619904518,0.002572141820564866
1771956755145411000,0.6734111328125,0.00007652211934328079,-0.00022408273071050644,0.0015090600354596972
1771956755165374000,0.6933740234375,-0.000559710431843996,0.0011875228956341743,0.000637102173641324
1771956755185337000,0.713337158203125,-0.002263733185827732,0.003813040442764759,-0.000557910418137908
1771956755205300000,0.733300048828125,-0.000879168976098299,0.0023874128237366676,-0.0009397165267728269
1771956755225262800,0.753262939453125,0.0005085419397801161,-0.00018142908811569214,-0.002276902785524726
1771956755245226000,0.77322607421875,0.004533711355179548,-0.0017721597105264664,0.001516338437795639
1771956755265188900,0.79318896484375,-0.000145722646266222,-0.0028538000769913197,-0.0004346544446889311
1771956755285153000,0.813153076171875,0.00063299760222435,-0.00366968079470098,-0.002237208653241396
1771956755305116000,0.833115966796875,-0.0006703585386276245,0.001444789581000805,-0.0030124157201498747
1771956755325079000,0.8530791015625,-0.0022011548280715942,0.0015237187035381794,-0.004250535741448402
1771956755345042000,0.8730419921875,-0.0009435052052140236,-0.0009027058258652687,-0.0014508423628285527
1771956755365005000,0.893005126953125,0.00025804946199059486,-0.001255351584404707,-0.00026199419517070055
1771956755384968000,0.912968017578125,0.0015196588356047869,-0.0028174943290650845,0.002551788231357932
1771956755404931000,0.93293115234375,-0.0005027647130191326,-0.0016930154524743557,0.001654621446505189
1771956755424894000,0.95289404296875,-0.000994065310806036,-0.00010022707283496857,0.0036671070847660303
1771956755444856800,0.97285693359375,-0.0011593564413487911,0.0036146841011941433,0.0009215407771989703
1771956755464820000,0.992820068359375,-0.000043079257011413574,0.00025806063786149025,-0.0027633095160126686
1771956755484783900,1.012783935546875,0.00037156534381210804,-0.0016275686211884022,-0.0034145922400057316
1771956755504747000,1.0327470703125,-0.0010477197356522083,-0.0007115486077964306,-0.001155494013801217
1771956755524710000,1.0527099609375,0.0013489641714841127,-0.0006508203223347664,0.0002693976857699454
1771956755544673000,1.072673095703125,-0.001919435802847147,-0.0007050423882901669,-0.0002025238936766982
1771956755564636000,1.092635986328125,-0.0006480114534497261,0.001739806029945612,-0.0004913466400466859
1771956755584599000,1.11259912109375,0.00028268713504076004,0.0022825528867542744,0.001372629776597023
1771956755604562000,1.13256201171875,0.0002888545859605074,0.0018671047873795033,0.00012497458374127746
1771956755624525000,1.152525146484375,-0.002153604757040739,0.002310582436621189,0.0006880107102915645
1771956755644488200,1.17248828125,0.0003566076047718525,-0.0005052830092608929,0.0007962553645484149
1771956755664451000,1.192451171875,-0.0010433630086481571,-0.0012669838033616543,0.0024533120449632406
1771956755684415000,1.2124150390625,0.0014010113663971424,-0.0005500917322933674,0.001202865270897746
1771956755704378000,1.232378173828125,-0.0020362273789942265,0.0019671153277158737,0.002180022420361638
1771956755724341200,1.25234130859375,-0.00013709953054785728,0.0008153808303177357,0.0006081468891352415
1771956755744303900,1.272303955078125,0.00032813940197229385,-0.002523998264223337,-0.002638686913996935
1771956755764267000,1.29226708984375,-0.0007448592223227024,-0.00045875972136855125,-0.0007052776054479182
1771956755784230000,1.31222998046875,0.0004754385445266962,-0.001514908391982317,-0.00038558506639674306
1771956755804193000,1.332193115234375,0.00038386275991797447,-0.0018276204355061054,0.0014619381399825215
1771956755824156200,1.35215625,-0.0002638637088239193,-0.001866016536951065,-0.002080590697005391
1771956755844119000,1.372119140625,-0.0011000828817486763,0.0034402674064040184,-0.0006387918256223202
1771956755864083000,1.3920830078125,-0.0004650871269404888,0.0007804930210113525,0.0001349099911749363
1771956755884046000,1.412046142578125,-0.0018180911429226398,0.002856727223843336,-0.0013533253222703934
1771956755904009200,1.43200927734375,0.0008396985940635204,-0.0015145465731620789,0.002141851931810379
1771956755923972000,1.45197216796875,-0.0010637687519192696,-0.001581297256052494,0.00003492756513878703
1771956755943935200,1.471935302734375,0.0018058449495583773,-0.0016977484337985516,0.002349753864109516
1771956755963897900,1.49189794921875,-0.0005393535830080509,-0.00010359100997447968,-0.0021776161156594753
1771956755983861000,1.511861083984375,-0.0021768626756966114,0.0028504752553999424,-0.0008769097039476037
1771956756003823900,1.531823974609375,-0.0003659767098724842,0.0034238197840750217,-0.000385672872653231
1771956756023787000,1.551787109375,-0.00043359212577342987,-0.002289155963808298,0.00025690312031656504
1771956756043751000,1.5717509765625,0.0015387539751827717,-0.0023659896105527878,0.001205979846417904
1771956756063714000,1.591714111328125,-0.0004981295205652714,-0.0007210043258965015,-0.0000036186538636684418
1771956756083677000,1.611677001953125,0.0005514523945748806,-0.001293332315981388,0.0016741885337978601
1771956756103640000,1.63164013671875,-0.0006475644186139107,0.0015747998841106892,0.000011206080671399832
1771956756123603200,1.651603271484375,-0.0014175348915159702,0.002965338993817568,0.0010042523499578238
1771956756143566000,1.671566162109375,-0.0007206695154309273,0.003395496867597103,0.0014911061152815819
1771956756163529200,1.691529296875,-0.0001852051354944706,-0.000792406965047121,-0.00029322266345843673
1771956756183491800,1.711491943359375,0.0007210567127913237,-0.00332224415615201,-0.0003901445015799254
1771956756203455000,1.731455078125,-0.0015801186673343182,-0.001102010253816843,-0.001107627060264349
1771956756223418000,1.751418212890625,-0.00003786617890000343,-0.0018688454292714596,-0.001015576533973217
1771956756243382000,1.771382080078125,-0.0018133874982595444,0.003096680622547865,-0.00103012565523386
1771956756263345000,1.791344970703125,-0.0008250572718679905,-0.00032350094988942146,-0.0020287407096475363
1771956756283308000,1.81130810546875,0.0012304647825658321,-0.0005206516943871975,-0.001323263393715024
1771956756303271200,1.831271240234375,-0.0012323502451181412,-0.0027069956995546818,0.00005221995525062084
1771956756323234000,1.851234130859375,-0.000019785016775131226,-0.001620153896510601,0.00017827103147283196
1771956756343197200,1.871197265625,-0.00018121441826224327,-0.0022105956450104713,0.0012469266075640917
1771956756363160000,1.89116015625,-0.000376939307898283,0.00018499931320548058,-0.002137766918167472
1771956756383123200,1.911123291015625,0.0003172855358570814,0.002313582692295313,-0.000976049923337996
1771956756403085800,1.9310859375,0.002389318775385618,-0.0010422971099615097,0.0011421216186136007
1771956756423050200,1.95105029296875,-0.0011488315649330616,-0.0016611907631158829,0.0016744378954172134
1771956756443012900,1.971012939453125,0.0006759115494787693,-0.0036450722254812717,0.00030605681240558624
1771956756462976000,1.99097607421875,0.0001560836099088192,-0.00042552733793854713,0.0005672296974807978
1771956756482939000,2.01093896484375,-0.0002158740535378456,-0.0014707748778164387,-0.0006237909547053277
1771956756502902000,2.030902099609375,0.0015995027497410774,0.0004918687045574188,0.0008142972365021706
1771956756522865200,2.050865234375,-0.00013975892215967178,0.0013304301537573338,0.0010315589606761932
1771956756542828300,2.070828369140625,-0.0019889958202838898,0.0023327432572841644,-0.00032019929494708776
1771956756562791400,2.09079150390625,0.0006871179211884737,0.0012276037596166134,0.0002929454203695059
1771956756582754300,2.11075439453125,0.0012500183656811714,-0.0010456470772624016,0.003912508953362703
1771956756602718500,2.130718505859375,0.00009751319885253906,-0.0023037903010845184,0.000855529448017478
1771956756622681300,2.150681396484375,0.00019612442702054977,0.0014050141908228397,0.0006645282846875489
1771956756642644500,2.17064453125,0.0016340515576303005,-0.00024105794727802277,-0.0008176958654075861
1771956756662607000,2.190607177734375,0.0006285854615271091,-0.0006086383946239948,0.0018693165620788932
1771956756682570200,2.2105703125,0.00016735447570681572,0.002255063969641924,-0.0008572912774980068
1771956756702533000,2.230533203125,0.0006892448291182518,-0.0024122772738337517,-0.0017440537922084332
1771956756722496300,2.250496337890625,-0.0005718842148780823,-0.00030672643333673477,-0.0022611564490944147
1771956756742459400,2.27045947265625,-0.002211468294262886,-0.0023869406431913376,-0.000743611715734005
1771956756762422300,2.29042236328125,-0.0007144813425838947,-0.0020013912580907345,0.0002591164084151387
1771956756782385400,2.310385498046875,0.0006397617980837822,0.000583115965127945,-0.00016285316087305546
1771956756802349300,2.330349365234375,0.002256279345601797,-0.000014903489500284195,0.00499841570854187
1771956756822312400,2.3503125,0.001069188816472888,-0.0011690454557538033,0.000015778408851474524
1771956756842275300,2.370275390625,0.0022504280786961317,-0.0032044267281889915,0.0007962649688124657
1771956756862238500,2.390238525390625,0.0005065160803496838,-0.002735065296292305,0.0004896955797448754
1771956756882201000,2.410201171875,0.0024049810599535704,-0.0008443715050816536,-0.000846471288241446
1771956756902164200,2.430164306640625,-0.0013777748681604862,0.004367053974419832,-0.000919402576982975
1771956756922127400,2.45012744140625,-0.0010321051813662052,0.001871597021818161,-0.002281760098412633
1771956756942090200,2.47009033203125,-0.0015332503244280815,0.0027861660346388817,0.00018133578123524785
1771956756962053400,2.490053466796875,-0.00004030624404549599,0.0000688871368765831,0.00014864595141261816
1771956756982017300,2.510017333984375,-0.0008092205971479416,-0.0048302398063242435,0.0028209942393004894
1771956757001980400,2.52998046875,0.0006697811186313629,0.00020716246217489243,-0.0004304804024286568
1771956757021943300,2.549943359375,-0.0011094175279140472,0.0012337882071733475,-0.001915403176099062
1771956757041906400,2.569906494140625,-0.0007489542476832867,0.002329673618078232,-0.001381272217258811
1771956757061869300,2.589869384765625,-0.0034713936038315296,0.0018000113777816296,-0.000042071857023984194
1771956757081832400,2.60983251953125,0.0003790799528360367,-0.00042380066588521004,0.00020196789409965277
1771956757101795000,2.629795166015625,-0.0006246720440685749,0.0011458857916295528,-0.0017873221077024937
1771956757121758200,2.64975830078125,0.000985428225249052,-0.0017858906649053097,0.0009142808266915381
1771956757141721300,2.669721435546875,-0.001355332788079977,-0.00251738540828228,0.0008638426661491394
1771956757161685200,2.689685302734375,-0.0019095148891210556,-0.0001823059283196926,0.0016655181534588337
1771956757181648100,2.709648193359375,-0.001309376209974289,0.002798480913043022,-0.001377980806864798
1771956757201611300,2.729611328125,0.001568143256008625,0.002310406882315874,-0.0022969129495322704
1771956757221574400,2.749574462890625,0.002250016201287508,0.001539052464067936,-0.0009502451284788549
1771956757241537300,2.769537353515625,-0.0005398839712142944,0.00012512179091572762,0.0006868393975310028
1771956757261500400,2.78950048828125,0.00021361419931054115,-0.0009640194475650787,0.0015409085899591446
1771956757281463300,2.80946337890625,-0.0007436671294271946,0.0020579001866281033,-0.00036274141166359186
1771956757301426400,2.829426513671875,0.0015583087224513292,0.0005468646995723248,-0.0019256192026659846
1771956757321389300,2.849389404296875,0.00008188746869564056,0.0023239953443408012,-0.0016511311987414956
1771956757341353500,2.869353515625,-0.001112965401262045,0.0023584095761179924,-0.0004951968439854681
1771956757361316000,2.889316162109375,0.0010004653595387936,0.0021281857043504715,0.000324852648191154
1771956757381279200,2.909279296875,-0.00031353067606687546,-0.004318540450185537,0.0014163409359753132
1771956757401242400,2.929242431640625,-0.0006845849566161633,-0.0012127496302127838,-0.00034325086744502187
1771956757421205200,2.949205322265625,0.001319339033216238,0.0001609218306839466,0.00017622573068365455
1771956757441168400,2.96916845703125,-0.0005763988010585308,0.002189791761338711,0.0002140258438885212
1771956757461131300,2.98913134765625,0.0005862992256879807,0.0006426624022424221,-0.002336181001737714
1771956757481094400,3.009094482421875,0.001348188379779458,-0.0022702100686728954,0.00021180883049964905
1771956757501057300,3.029057373046875,-0.001192411407828331,-0.0009049125947058201,0.0007261399878188968
1771956757521021400,3.049021484375,-0.0005079214461147785,-0.001621259842067957,0.0026431409642100334
1771956757540984300,3.068984375,0.0008510523475706577,-0.0007357588037848473,0.0003972104750573635
1771956757560947500,3.088947509765625,-0.0015056803822517395,-0.0016575413756072521,0.00041552179027348757
1771956757580910000,3.10891015625,0.002112887566909194,0.00299535458907485,0.0005340223433449864
1771956757600873200,3.128873291015625,0.001088990131393075,0.002042562235146761,-0.00183292874135077
1771956757620836400,3.14883642578125,0.0005352017469704151,-0.0014936020597815514,-0.0008474742062389851
1771956757640799200,3.16879931640625,-0.0025766855105757713,-0.0010502589866518974,0.002728021005168557
1771956757660762400,3.188762451171875,-0.0010218573734164238,-0.003407534211874008,0.0005340093048289418
1771956757680725200,3.208725341796875,0.001642358023673296,-0.0009021442383527756,0.00015133176930248737
1771956757700689400,3.228689453125,-0.00239388644695282,-0.0009921342134475708,-0.0007460754131898284
1771956757720652300,3.24865234375,-0.0011102831922471523,0.001971765421330929,0.00017952569760382175
1771956757740615400,3.268615478515625,-0.0010183877311646938,-0.0004029562696814537,0.002493819687515497
1771956757760578300,3.288578369140625,-0.0004946384578943253,-0.0016516149044036865,-0.0014473425690084696
1771956757780541400,3.30854150390625,-0.0010710363276302814,-0.0021257982589304447,-0.00008083239663392305
1771956757800504300,3.32850439453125,0.0004290933720767498,-0.0008232221007347107,0.00034766283351927996
1771956757820467200,3.34846728515625,-0.0010698302648961544,-0.0011474592611193657,-0.0010088719427585602
1771956757840430300,3.368430419921875,0.0005896356888115406,0.002991403453052044,-0.00033428455935791135
1771956757860393200,3.388393310546875,-0.0014950009062886238,0.0019945576786994934,-0.0005711858393624425
1771956757880357400,3.408357421875,-0.0010508615523576736,-0.001029463019222021,-0.0014284359058365226
1771956757900320300,3.4283203125,0.0002162046730518341,-0.0006575044244527817,0.0016851673135533929
1771956757920283400,3.448283447265625,-0.00000459328293800354,-0.001798730343580246,-0.0008444468840025365
1771956757940246300,3.468246337890625,0.0007873086724430323,-0.0017669470980763435,0.0003909991355612874
1771956757960209400,3.48820947265625,-0.00031434744596481323,-0.0023038405925035477,0.000467373407445848
1771956757980172300,3.50817236328125,-0.0003955070860683918,0.00009767105802893639,-0.0010394228156656027
1771956758000135400,3.528135498046875,0.00048504373989999294,0.00031219981610774994,-0.0005277570453472435
1771956758020098300,3.548098388671875,0.00045572430826723576,-0.0010855835862457752,0.0007119261426851153
1771956758040061200,3.568061279296875,-0.0005075563676655293,-0.0012185648083686829,0.00043558678589761257
1771956758060024300,3.5880244140625,0.000014067627489566803,-0.0016436884179711342,-0.0010534162865951657
1771956758079988200,3.60798828125,0.0011332593858242035,-0.0012161489576101303,-0.0004526259144768119
1771956758099951400,3.627951416015625,-0.0005419696681201458,0.000976573210209608,0.002536043059080839
1771956758119914200,3.647914306640625,-0.001119100023061037,0.00046815117821097374,-0.0006899124127812684
1771956758139877400,3.66787744140625,0.0036389159504324198,-0.0013814503327012062,-0.0009641920914873481
1771956758159840300,3.68784033203125,-0.001144755631685257,0.001480107195675373,-0.0013438870664685965
1771956758179803400,3.707803466796875,-0.0010578376241028309,-0.0009518102742731571,0.0005907556042075157
1771956758199766300,3.727766357421875,-0.0000018319115042686462,-0.0015569073148071766,-0.0023507410660386086
1771956758219729400,3.7477294921875,0.0022799952421337366,-0.0009395582601428032,0.0015181427588686347
1771956758239692300,3.7676923828125,-0.00010643014684319496,0.0008508618921041489,-0.0015269803116098046
1771956758259656200,3.78765625,-0.0004206085577607155,0.0019393283873796463,0.0003895395202562213
1771956758279619300,3.807619384765625,-0.00014227675274014473,-0.0027541127055883408,0.002159378957003355
1771956758299582200,3.827582275390625,-0.0005307537503540516,-0.0010831118561327457,0.00044445483945310116
1771956758319545300,3.84754541015625,-0.000994300004094839,-0.0022354531101882458,-0.0008820646908134222
1771956758339508200,3.86750830078125,-0.0006177299655973911,-0.0006556510925292969,-0.0004465729580260813
1771956758359471400,3.887471435546875,0.0006575495935976505,0.0011918400414288044,-0.0008776446338742971
1771956758379434200,3.907434326171875,0.0015995516441762447,0.00161722581833601,-0.0025752298533916473
1771956758399397400,3.9273974609375,0.0006809874903410673,0.0017718584276735783,0.00032663263846188784
1771956758419360500,3.947360595703125,0.0003990195691585541,-0.0008649546653032303,0.0017703796038404107
1771956758439324400,3.967324462890625,-0.0011168811470270157,-0.00042744819074869156,-0.0004151847679167986
1771956758459287300,3.987287353515625,0.001268498133867979,-0.0027384310960769653,0.002499882597476244
1771956758479250200,4.007250244140625,-0.0016090432181954384,-0.002040090039372444,-0.0012152233393862844
1771956758499213300,4.02721337890625,-0.0006435355171561241,-0.0005083596333861351,-0.0007871905108913779
1771956758519176200,4.04717626953125,-0.0014107730239629745,0.0014065648429095745,-0.0014809679705649614
1771956758539139800,4.067139892578125,-0.0021790475584566593,-0.0010294616222381592,0.00043746549636125565
1771956758559102700,4.087102783203125,0.0005545718595385551,-0.0016420893371105194,0.00015688349958509207
1771956758579065900,4.10706591796875,0.001896570436656475,-0.0020959246903657913,-0.0007556261261925101
1771956758599028500,4.127028564453125,-0.0008475505746901035,-0.0003260467201471329,0.0004516257904469967
1771956758618991600,4.14699169921875,-0.0003220420330762863,0.00207200413569808,0.0004576529609039426
1771956758638955500,4.16695556640625,0.00032458920031785965,0.0021861339919269085,0.00000447442289441824
1771956758658918700,4.186918701171875,0.0002680090256035328,-0.0006310711614787579,-0.00016456778394058347
1771956758678881500,4.206881591796875,-0.001280561089515686,0.0010242611169815063,-0.0014266952639445662
1771956758698844700,4.2268447265625,0.0006395154632627964,-0.0009614014998078346,0.00019240949768573046
1771956758718807800,4.246807861328125,-8.335337042808533e-8,0.0001498446799814701,0.000948055530898273
1771956758738770700,4.266770751953125,0.00042398925870656967,-0.00009091990068554878,0.0031698846723884344
1771956758758733800,4.28673388671875,0.0009955954737961292,-0.00009303726255893707,-0.0015816132072359324
1771956758778696700,4.30669677734375,0.00004382990300655365,0.0024561258032917976,-0.00211541261523962
1771956758798659600,4.32665966796875,0.0010811409447342157,0.0013605128042399883,0.0008752386784180999
1771956758818623700,4.346623779296875,-0.00017432589083909988,0.0006662248633801937,-0.002127230167388916
1771956758838586600,4.366586669921875,0.0013511276338249445,-0.003517691045999527,-0.000021926360204815865
1771956758858549500,4.386549560546875,0.0019056268502026796,-0.0024707913398742676,0.0015430316561833024
1771956758878512600,4.4065126953125,-0.0007341252639889717,-0.0012227478437125683,0.0005999343702569604
1771956758898475500,4.4264755859375,-0.0004890910349786282,0.0022834003902971745,-0.0030541550368070602
1771956758918438700,4.446438720703125,0.0003916893620043993,0.00016279006376862526,-0.00360545190051198
1771956758938401800,4.46640185546875,0.0019341481383889914,0.0004142438992857933,-0.0011629071086645126
1771956758958364700,4.48636474609375,0.0006607722025364637,-0.0031503853388130665,0.0010685620363801718
1771956758978327800,4.506327880859375,-0.0006275409832596779,-0.0010932870209217072,-0.0000512606929987669
1771956758998290700,4.526290771484375,-0.0013356632553040981,-0.0014693471603095531,0.0003329768078401685
1771956759018254800,4.5462548828125,0.0010590562596917152,0.0008362489752471447,-0.0009686243138276041
1771956759038217700,4.5662177734375,0.0012836516834795475,0.0001184726133942604,-0.003439743770286441
1771956759058180600,4.5861806640625,-0.00020717503502964973,-0.001688971184194088,-0.0025540869683027267
1771956759078143500,4.6061435546875,0.001877426402643323,-0.0011265859939157963,-0.00016498839249834418
1771956759098106600,4.626106689453125,-0.0007284115999937057,-0.0019577578641474247,-0.00030051550129428506
1771956759118069800,4.64606982421875,0.0003186007961630821,-0.003581006545573473,-0.001835271599702537
1771956759138032600,4.66603271484375,0.001369884004816413,0.000009961891919374466,0.0026026847772300243
1771956759157995800,4.685995849609375,-0.0009677759371697903,0.0014070267789065838,-0.002381592057645321
1771956759177958700,4.705958740234375,0.0024159341119229794,0.0028077382594347,0.00040156173054128885
1771956759197922800,4.7259228515625,-0.0009273705072700977,0.0017928672023117542,-0.0004178411909379065
1771956759217885700,4.7458857421875,0.0004881143104285002,-0.0009299442172050476,-0.0016005955403670669
1771956759237848800,4.765848876953125,0.0012794479262083769,-0.0019417512230575085,0.0021313142497092485
1771956759257811700,4.785811767578125,0.0007090042345225811,-0.002428910229355097,-0.0009677009657025337
1771956759277774600,4.805774658203125,0.0016297055408358574,-0.0000659031793475151,-0.00031140114879235625
1771956759297737500,4.825737548828125,-0.0009248871356248856,-0.00002850126475095749,-0.0018142559565603733
1771956759317700600,4.84570068359375,0.002295246347784996,0.0009516552090644836,-0.001574918394908309
1771956759337663700,4.865663818359375,0.0008586614858359098,-0.0015222295187413692,0.00028417952125892043
1771956759357626600,4.885626708984375,0.0007777889259159565,0.00047534238547086716,0.0020386131945997477
1771956759377590800,4.9055908203125,-0.00025869719684123993,-0.0019840430468320847,-0.0016915400046855211
1771956759397553700,4.9255537109375,0.0012061262968927622,-0.0017138971015810966,0.0028112437576055527
1771956759417516800,4.945516845703125,-0.002520530018955469,0.0013329987414181232,0.001551566761918366
1771956759437479700,4.965479736328125,-0.000371572095900774,0.0017176968976855278,0.000023140106350183487
1771956759457442800,4.98544287109375,0.0023115540388971567,0.0026016533374786377,-0.0019583345856517553
1771956759477405700,5.00540576171875,-0.0008713859133422375,-0.0005479133687913418,-0.0026987912133336067
1771956759497368600,5.02536865234375,0.0015674943570047617,-0.0027504898607730865,-0.00032006273977458477
1771956759517331700,5.045331787109375,0.00216933386400342,-0.002803319599479437,0.0010534776374697685
1771956759537294300,5.06529443359375,0.0011702445335686207,0.0005210763774812222,0.00004436972085386515
1771956759557257500,5.085257568359375,-0.000776573084294796,0.001698722131550312,0.0005342785152606666
1771956759577221400,5.105221435546875,-0.002078239805996418,-0.00011792173609137535,0.0001920509384945035
1771956759597184500,5.1251845703125,0.00025493092834949493,0.000678513664752245,-0.0009738343069329858
1771956759617147100,5.145147216796875,0.000671022105962038,-0.000760271679610014,0.0017580061685293913
1771956759637110300,5.1651103515625,0.001191689632833004,-0.0032333992421627045,0.0017022390384227037
1771956759657073200,5.1850732421875,-0.001142384484410286,-0.0018973499536514282,0.0017211241647601128
1771956759677036300,5.205036376953125,-0.0008425605483353138,0.0005622589960694313,0.0010060283821076155
1771956759696999400,5.22499951171875,0.000973834190517664,-0.0005713310092687607,0.0005326187238097191
1771956759716962300,5.24496240234375,0.00020213471725583076,0.00449855113402009,-0.0008764297235757113
1771956759736925400,5.264925537109375,0.00015213433653116226,0.0005379007197916508,-0.0006723663536831737
1771956759756888300,5.284888427734375,-0.0017006481066346169,-0.00027987873181700706,0.0014332302380353212
1771956759776852500,5.3048525390625,0.002167793456465006,-0.0017270268872380257,-0.0013739201240241528
1771956759796815400,5.3248154296875,-0.0013338453136384487,0.0006350968033075333,-0.0021321603562682867
1771956759816778500,5.344778564453125,0.00041190185584127903,0.002028228249400854,0.00105695566162467
1771956759836741000,5.3647412109375,0.002152294386178255,0.0003408542834222317,-0.0004290675278753042
1771956759856704300,5.384704345703125,-0.0007350160740315914,0.001617256086319685,-0.00022941583301872015
1771956759876667100,5.404667236328125,0.001269572414457798,0.0007472150027751923,-0.0016414267010986805
1771956759896630300,5.42463037109375,0.0013967163395136595,-0.0052585359662771225,0.002301192842423916
1771956759916593400,5.444593505859375,0.0010253479704260826,-0.0016391715034842491,0.000011428026482462883
1771956759936556300,5.464556396484375,-0.002411442343145609,0.0018494417890906334,0.0006211636937223375
1771956759956519400,5.48451953125,-0.0008033337071537971,0.0014573708176612854,-0.0013753686798736453
1771956759976483300,5.5044833984375,0.0019650838803499937,-0.0004672640934586525,-0.0025713485665619373
1771956759996446500,5.524446533203125,-0.0002181590534746647,-0.0005117063410580158,-0.0022520951461046934
1771956760016409300,5.544409423828125,-0.0011291936971247196,0.0004579448141157627,0.0007335991831496358
1771956760036372500,5.56437255859375,0.0012519836891442537,0.002209366299211979,0.0021895277313888073
1771956760056335000,5.584335205078125,0.0005444649141281843,-0.0026888959109783173,0.0015660759527236223
1771956760076298200,5.60429833984375,0.0003446871414780617,-0.001199494581669569,-0.001160359475761652
1771956760096261400,5.624261474609375,0.0009929512161761522,-0.00043363263830542564,-0.0014158778358250856
1771956760116224300,5.644224365234375,0.00007554097101092339,0.000460146926343441,-0.000942193262744695
1771956760136187400,5.6641875,0.0008851173333823681,0.00043570995330810547,-0.0013801975874230266
1771956760156151300,5.6841513671875,-0.0011207880452275276,-0.0005485960282385349,-0.00010157626820728183
1771956760176114400,5.704114501953125,-0.0003622942604124546,-0.00146029656752944,-0.00031408638460561633
1771956760196077300,5.724077392578125,0.00016770092770457268,-0.001027998048812151,-0.0025916919112205505
1771956760216040400,5.74404052734375,0.0016603805124759674,-0.0005540270358324051,-0.00009752920595929027
1771956760236003300,5.76400341796875,0.00012501981109380722,0.001487020868808031,-0.00041882082587108016
1771956760255966200,5.78396630859375,-0.0008187051862478256,0.0009552901610732079,0.0006803602445870638
1771956760275929000,5.80392919921875,0.002560346620157361,0.0006668930873274803,0.0011627640342339873
1771956760295892200,5.823892333984375,-0.0005439002998173237,-0.0020111449994146824,0.0018622386269271374
1771956760315855400,5.84385546875,-0.00010649440810084343,-0.001978559885174036,0.0006065540947020054
1771956760335818200,5.863818359375,0.0009192172437906265,0.0001850249245762825,0.0016899345209822059
1771956760355781400,5.883781494140625,0.0007318705320358276,-0.0013158228248357773,0.00008827564306557178
1771956760375745300,5.903745361328125,-0.00025327829644083977,0.0025419644080102444,-0.0003625705139711499
1771956760395708400,5.92370849609375,-0.0002127690240740776,0.00010452698916196823,0.00026803778018802404
1771956760415671300,5.94367138671875,0.0004392105620354414,0.0013816948048770428,0.0008755688322708011
1771956760435634400,5.963634521484375,-0.0010536168701946735,-0.0008603343740105629,0.0011787330731749535
1771956760455597300,5.983597412109375,0.001745367655530572,-0.0033602886833250523,0.0013223736314103007
1771956760475560200,6.003560302734375,-0.000557855237275362,0.0012515406124293804,0.002553722122684121
1771956760495523300,6.0235234375,0.0015556295402348042,0.0010604718700051308,-0.0015052072703838348
1771956760515486200,6.043486328125,0.00006169918924570084,0.0003273827023804188,0.00045581255108118057
1771956760535449600,6.06344970703125,0.0000976058654487133,0.00005383417010307312,0.0014970556367188692
1771956760555413500,6.08341357421875,-0.001512034796178341,-0.004793500527739525,0.0005634644767269492
1771956760575376400,6.10337646484375,5.569308996200562e-7,-0.002372193615883589,0.0015058934222906828
1771956760595339500,6.123339599609375,-0.0018609212711453438,-0.0016287243925035,-0.0036822957918047905
1771956760615302700,6.143302734375,-0.0008004754781723022,0.000011191237717866898,-0.0003366558812558651
1771956760635265500,6.163265625,0.0004940389189869165,0.0004942789673805237,-0.0008108947076834738
1771956760655228400,6.183228515625,0.0005158667918294668,0.000335929449647665,0.00046462740283459425
1771956760675191300,6.20319140625,0.00006257090717554092,-0.00020591076463460922,-0.00100767205003649
1771956760695154400,6.223154541015625,-0.0014443127438426018,-0.001907565165311098,0.0006865111645311117
1771956760715117600,6.24311767578125,-0.0008617127314209938,0.0021458808332681656,-0.0015472500817850232
1771956760735080400,6.26308056640625,-0.0005767494440078735,-0.0005523767322301865,0.000932281487621367
1771956760755044400,6.28304443359375,0.002599249593913555,0.0009270906448364258,0.0014916920335963368
1771956760775007500,6.303007568359375,-0.0012000566348433495,0.002455606125295162,-0.002486942335963249
1771956760794970600,6.322970703125,0.0004349113442003727,0.002209372352808714,-0.0024621556513011456
1771956760814933500,6.34293359375,0.0013913980219513178,0.00020062876865267754,-0.000396224029827863
1771956760834896600,6.362896728515625,0.0006932164542376995,-0.0012458162382245064,0.00019538449123501778
1771956760854859500,6.382859619140625,-0.0014193453826010227,-0.0036382798571139574,0.0018477165140211582
1771956760874822400,6.402822509765625,-0.0013581998646259308,0.0022416082210838795,0.00031142449006438255
1771956760894785300,6.422785400390625,0.0011081155389547348,0.0020112288184463978,-0.004264479037374258
1771956760914748400,6.44274853515625,-0.0007170015014708042,0.003323469776660204,-0.0014146342873573303
1771956760934711600,6.462711669921875,-0.00026972172781825066,0.0001944596879184246,0.0021297072526067495
1771956760954674400,6.48267431640625,0.0007875969167798758,-0.0009505217894911766,0.0022950570564717054
1771956760974638300,6.502638427734375,0.0008047882001847029,-0.000044961459934711456,0.0017039227532222867
1771956760994601500,6.5226015625,0.0007883929647505283,0.000708545558154583,0.001004152582027018
1771956761014564600,6.542564697265625,-0.00019184965640306473,0.000025027897208929062,0.0006757000228390098
1771956761034527500,6.562527587890625,0.0005566056352108717,0.0025184727273881435,-0.0028038062155246735
1771956761054490600,6.58249072265625,-0.0014444910921156406,0.0015734219923615456,-0.0025381692685186863
1771956761074453200,6.602453369140625,0.0001553678885102272,-0.0010777940042316914,0.0009989561513066292
1771956761094416400,6.62241650390625,0.00037272414192557335,-0.003959880210459232,0.0004341250751167536
1771956761114379500,6.642379638671875,-0.0008855788037180901,-0.0021274546161293983,-0.0008060657419264317
1771956761134342400,6.66234228515625,0.00016973353922367096,-0.0016188337467610836,0.0001704144524410367
1771956761154305500,6.682305419921875,0.0003950588870793581,0.001879141665995121,0.0005226196954026818
1771956761174269400,6.70226953125,-0.000338070560246706,0.0038845702074468136,0.0014684800989925861
1771956761194232600,6.722232666015625,0.0004595948848873377,0.0004310845397412777,-0.00011888548033311963
1771956761214195500,6.742195556640625,-0.00025874748826026917,-0.0005112583748996258,0.0004777435678988695
1771956761234158600,6.76215869140625,0.0005562268197536469,-0.003682770300656557,-0.0014407145790755749
1771956761254121500,6.78212158203125,-0.0011901943944394588,-0.0018908982165157795,-0.000020880892407149076
1771956761274084600,6.802084716796875,-0.0011990019120275974,0.00034250086173415184,-0.0007041723583824933
1771956761294047200,6.822047119140625,-0.0013740784488618374,-0.0002684369683265686,-0.0005699957837350667
1771956761314010400,6.84201025390625,0.0006933240219950676,-0.00046635977923870087,0.00022676761727780104
1771956761333973500,6.861973388671875,-0.0005251024849712849,-0.0011528534814715385,0.0006563989445567131
1771956761353936400,6.881936279296875,-0.000588699709624052,-0.001336757093667984,-0.0016272268258035183
1771956761373900300,6.901900390625,0.002484947443008423,-0.001677858643233776,0.00021477823611348867
1771956761393863400,6.921863525390625,0.0013474600855261087,-0.0027350671589374542,-0.000426066922955215
1771956761413826600,6.94182666015625,0.0020586196333169937,0.0025144112296402454,0.0003181720385327935
1771956761433789400,6.96178955078125,-0.00027176178991794586,0.0035876217298209667,-0.0014149340568110347
1771956761453752600,6.981752685546875,0.0005033868364989758,0.0008291355334222317,-0.00023722357582300901
1771956761473715500,7.001715576171875,0.0010552089661359787,-0.0016208556480705738,0.0005763388471677899
1771956761493678600,7.0216787109375,0.00019738264381885529,-0.0012153461575508118,-0.0014133404474705458
1771956761513641500,7.041641357421875,-0.0023925835266709328,-0.0023257131688296795,0.0007802898762747645
1771956761533604900,7.06160498046875,0.0000912216491997242,0.0004740995354950428,-0.0021420172415673733
1771956761553568000,7.081568115234375,0.0003939894959330559,0.0032268883660435677,-0.002617552177980542
1771956761573531000,7.10153076171875,-0.0004338417202234268,0.00105955358594656,-0.000880445702932775
1771956761593494800,7.121494873046875,0.00019670231267809868,0.002158540766686201,-0.0032376206945627928
1771956761613458000,7.1414580078125,0.00001514330506324768,-0.0007292726077139378,0.00013488199329003692
1771956761633420800,7.1614208984375,0.000351952388882637,-0.000019203871488571167,0.0012413478689268231
1771956761653383700,7.1813837890625,-0.000024199020117521286,-0.0007627899758517742,-0.0029103108681738377
1771956761673346800,7.201346923828125,0.0007736789993941784,0.000019031576812267303,-0.00032379140611737967
1771956761693309700,7.221309814453125,0.0010270723141729832,0.0008461493998765945,-0.00041493948083370924
1771956761713272800,7.24127294921875,-0.0028114784508943558,0.00016313837841153145,0.0023766891099512577
1771956761733235700,7.261235595703125,0.0015157901216298342,-0.0020099603570997715,-0.00014676200225949287
1771956761753198800,7.28119873046875,0.0015160476323217154,-0.005401900969445705,0.0003733562189154327
1771956761773162000,7.301161865234375,-0.0005303756333887577,-0.0019344678148627281,0.004764069337397814
1771956761793124900,7.321124755859375,0.0015652994625270367,-0.001938625704497099,0.0003561943885870278
1771956761813088800,7.3410888671875,0.0025312125217169523,0.0013983934186398983,0.00022165360860526562
1771956761833052000,7.361052001953125,0.0015212416183203459,-0.0005796235054731369,-0.0013840742176398635
1771956761853014800,7.381014892578125,0.0013876580633223057,0.00262373685836792,0.0007783768232911825
1771956761872977700,7.400977783203125,0.001101962523534894,-0.0004969821311533451,-0.0002653176197782159
1771956761892940800,7.42094091796875,-0.002105490304529667,-0.001416968647390604,-0.001018317649140954
1771956761912903700,7.440903564453125,-0.00009814929217100143,-0.004102975130081177,-0.00013611814938485622
1771956761932866800,7.46086669921875,-0.0004421574994921684,-0.0011510103940963745,0.001458423095755279
1771956761952830000,7.480829833984375,-0.0016286633908748627,0.002062962856143713,0.0006866103503853083
1771956761972792800,7.500792724609375,0.0000074640847742557526,0.003381826914846897,-0.001026546466164291
1771956761992756000,7.520755859375,-0.002330050803720951,0.0012002065777778625,-0.0004520799848251045
1771956762012719900,7.540719970703125,-0.0003878120332956314,-0.0009974539279937744,0.00007479730993509293
1771956762032683000,7.56068310546875,0.001214123098179698,-0.0016183755360543728,0.0013731801882386208
1771956762052646000,7.58064599609375,0.0011420699302107096,0.00031898636370897293,0.0014828075654804707
1771956762072608800,7.60060888671875,0.00029602041468024254,0.00016259774565696716,-0.003600191790610552
1771956762092571600,7.620571533203125,-0.00019990932196378708,0.000798102468252182,-0.002444357145577669
1771956762112534800,7.64053466796875,-0.001667119562625885,0.0023305602371692657,-0.0022624824196100235
1771956762132497700,7.66049755859375,-0.002146989107131958,0.000650480855256319,0.0005561256548389792
1771956762152460800,7.680460693359375,-0.00026439595967531204,-0.0017837625928223133,0.00030709232669323683
1771956762172424000,7.700423828125,0.0005535597447305918,-0.00024052290245890617,-0.002143440768122673
1771956762192386800,7.72038671875,0.0009350134059786797,-0.0011996920220553875,-0.0023349151015281677
1771956762212350000,7.740349853515625,0.00009411154314875603,-0.0015587741509079933,-0.0007074314635246992
1771956762232313900,7.76031396484375,-0.0011691576801240444,0.0008336585015058517,-0.000297520135063678
1771956762252277000,7.780277099609375,0.0008983281441032887,-0.0015690461732447147,-0.0012706697452813387
1771956762272239900,7.800239990234375,-0.00036784540861845016,-0.00008824653923511505,-0.0024518915452063084
1771956762292202800,7.82020263671875,0.0009147932287305593,-0.0008564488962292671,-0.0015553247649222612
1771956762312165600,7.84016552734375,-0.0013226023875176907,0.00018312828615307808,-0.0012112702243030071
1771956762332128800,7.860128662109375,0.0005863513797521591,-0.00299428915604949,-0.0007771749515086412
1771956762352092000,7.880091796875,-0.003302538301795721,0.0012562945485115051,-0.0011451978934928775
1771956762372054800,7.9000546875,-0.001261877827346325,0.0051751830615103245,0.0006908528739586473
1771956762392018000,7.920017822265625,-0.0009799706749618053,0.002007583621889353,-0.0014075256185606122
1771956762411980800,7.939980712890625,0.00004176003858447075,-0.0027066636830568314,-0.0014959262916818261
1771956762431944000,7.95994384765625,-0.001039234921336174,-0.002062086481601,0.0003283990081399679
1771956762451906800,7.97990673828125,0.0003928788937628269,-0.0013926108367741108,0.0004274029051885009
1771956762471871000,7.99987109375,-0.0008428017608821392,0.001443773042410612,-0.0017083000857383013
1771956762491833600,8.01983349609375,0.0008241676259785891,0.002336567733436823,-0.000624624197371304
1771956762511796700,8.039796630859374,0.00019310461357235909,0.0041544800624251366,-0.000263844383880496
1771956762531760000,8.059760009765625,0.00038068462163209915,-0.00014133471995592117,-0.00020687637152150273
1771956762551723300,8.07972314453125,-0.0002651140093803406,-0.0032510231249034405,-0.00006808317266404629
1771956762571686100,8.09968603515625,-0.0010098605416715145,-0.001402321271598339,0.0007342435419559479
1771956762591649300,8.119649169921875,-0.0009785108268260956,-0.0029266285710036755,-0.0015009987400844693
1771956762611612400,8.1396123046875,0.0014229435473680496,0.0004084561951458454,-0.0009361329139210284
1771956762631575000,8.159574951171875,-0.0009736139327287674,0.0023981761187314987,-0.0017652211245149374
1771956762651538200,8.1795380859375,0.0025708014145493507,0.00040800590068101883,-0.0005504370201379061
1771956762671501000,8.1995009765625,-0.0023463242687284946,0.00007202615961432457,-0.0007203462300822139
1771956762691465200,8.21946533203125,-0.00048661278560757637,-0.00251168105751276,0.002047579735517502
1771956762711428000,8.239427978515625,0.0014676034916192293,-0.0038002736400812864,-0.0013565467670559883
1771956762731391200,8.25939111328125,0.002622334286570549,-0.00020982371643185616,-0.0011932372581213713
1771956762751354000,8.27935400390625,0.0002443757839500904,-0.0005864151753485203,-0.0008758929325267673
1771956762771317200,8.299317138671874,-0.00029042409732937813,0.0019306219182908535,0.00027533259708434343
1771956762791280400,8.3192802734375,-0.0027795573696494102,0.0006608744151890278,-0.0018894737586379051
1771956762811243300,8.3392431640625,0.0003055310808122158,0.0006398153491318226,-0.0014113934012129903
1771956762831206400,8.359206298828125,-0.00046961940824985504,0.0013746251352131367,-0.0019483029609546065
1771956762851169000,8.3791689453125,-0.0009377794340252876,-0.0014782198704779148,-0.0013971389271318913
1771956762871132200,8.399132080078125,0.00018883030861616135,0.000004741828888654709,-0.0014756181044504046
1771956762891095000,8.419094970703124,-0.00039010681211948395,0.0029236311092972755,-0.0004978818469680846
1771956762911059200,8.43905908203125,-0.00017736060544848442,0.0016981526277959347,0.0013100634096190333
1771956762931022000,8.45902197265625,0.0009776295628398657,0.0013772216625511646,-0.0007576586212962866
1771956762950985200,8.478985107421876,0.001117847627028823,-0.0027443780563771725,0.001997563987970352
1771956762970948000,8.498947998046875,0.0002593938261270523,-0.0020534624345600605,-0.000054377305787056684
1771956762990911200,8.5189111328125,-0.00018948456272482872,-0.000777208711951971,-0.000572249642573297
1771956763010874400,8.538874267578125,-0.0002986043691635132,0.0027829050086438656,-0.00042854069033637643
1771956763030837200,8.558837158203126,0.0016460497863590717,0.0005424516275525093,-0.000187720637768507
1771956763050800400,8.57880029296875,0.00032985303550958633,0.0013774670660495758,0.00016682164277881384
1771956763070763000,8.598762939453126,-0.0005133911035954952,0.0011277948506176472,0.002520230133086443
1771956763090726100,8.61872607421875,-0.0005163773894309998,-0.003926308825612068,0.0025717958342283964
1771956763110689300,8.638689208984376,0.0005159801803529263,-0.0009143613278865814,0.00036893843207508326
1771956763130652200,8.658652099609375,-0.00008090725168585777,0.00020731473341584206,-0.0009990747785195708
1771956763150616000,8.678615966796874,-0.001953407656401396,0.0030796262435615063,-0.0016846470534801483
1771956763170579200,8.6985791015625,0.0014393883757293224,0.001496884971857071,0.0006535963620990515
1771956763190542300,8.718542236328124,0.0017757336609065533,0.0007402137853205204,0.0003350104670971632
1771956763210505200,8.738505126953125,0.0005751417484134436,-0.0006997310556471348,-0.00010692514479160309
1771956763230468400,8.75846826171875,-0.0009707529097795486,-0.0008742124773561954,0.00022088864352554083
1771956763250431200,8.77843115234375,0.001516041113063693,-0.0030985549092292786,0.00026847701519727707
1771956763270394400,8.798394287109375,-0.0013287412002682686,-0.0006990628316998482,0.00286636920645833
1771956763290357000,8.81835693359375,-0.000039443839341402054,0.0008084648288786411,0.0008727163076400757
1771956763310320000,8.838320068359375,-0.0012129205279052258,0.0023581767454743385,-0.0018648356199264526
1771956763330283300,8.858283203125,-0.0005946462042629719,0.0024191956035792828,-0.00045739172492176294
1771956763350246100,8.87824609375,-0.0007800739258527756,-0.0011944742873311043,0.0004179534735158086
1771956763370210000,8.8982099609375,-0.0004156692884862423,-0.0023985528387129307,-0.0023580114357173443
1771956763390173200,8.918173095703125,-0.0023306170478463173,-0.0026693358086049557,-0.0011003644904121757
1771956763410136300,8.93813623046875,0.0004130224697291851,0.0020504831336438656,-0.0019477306632325053
1771956763430099200,8.95809912109375,0.0006470023654401302,0.0005705882795155048,-0.000617534969933331
1771956763450062300,8.978062255859374,0.00012850994244217873,-0.00010453537106513977,0.001040858682245016
1771956763470025200,8.998025146484375,0.0007435169536620378,-0.00015310710296034813,0.002308858558535576
1771956763489988400,9.01798828125,0.00003353506326675415,-0.0035984087735414505,-0.004119619261473417
1771956763509951200,9.037951171875,0.00021841144189238548,-0.005645889788866043,0.0008322176290675998
1771956763529912800,9.057912841796876,0.0008000226225703955,0.00012783752754330635,-0.00008637062273919582
1771956763549876000,9.0778759765625,-0.0012072138488292694,0.0009406236931681633,0.003014072310179472
1771956763569839000,9.097839111328126,-0.0005583534948527813,0.004268945194780827,-0.0023646452464163303
1771956763589802000,9.117802001953125,-0.000933229923248291,-0.0018808143213391304,0.002175874076783657
1771956763609765000,9.13776513671875,-0.0007547908462584019,-0.0008536842651665211,-0.0017116223461925983
1771956763629729000,9.15772900390625,-0.0015668044798076153,0.00020422134548425674,-0.0021786335855722427
1771956763649692200,9.177692138671874,0.0022346379701048136,-0.0007576360367238522,0.00034351623617112637
1771956763669655000,9.197655029296875,-0.0012890947982668877,0.0015034605748951435,-0.002071237191557884
1771956763689618000,9.217617919921874,0.0013666343875229359,0.0001450730487704277,-0.0014536933740600944
1771956763709580800,9.237580810546875,0.001720599364489317,0.0015479028224945068,-0.0017391873989254236
1771956763729544000,9.2575439453125,-0.000261443667113781,0.00018585380166769028,-0.0003354914369992912
1771956763749507000,9.277507080078125,0.0014347105752676725,-0.0008941097185015678,0.000371266040019691
1771956763769470000,9.297469970703125,0.0012501836754381657,-0.003145831637084484,0.0012489984510466456
1771956763789433000,9.31743310546875,-0.0011390079744160175,-0.0015912442468106747,0.00013382930774241686
1771956763809396000,9.33739599609375,0.001436642138287425,0.0015328670851886272,0.0013428719248622656
1771956763829359000,9.357359130859376,-0.0011544805020093918,0.003470117226243019,-0.0009278184734284878
1771956763849322000,9.377322021484375,-0.00035133492201566696,0.0019566654227674007,-0.0015463384333997965
1771956763869286100,9.3972861328125,0.0005126683972775936,-0.0037866150960326195,0.0005984653253108263
1771956763889249000,9.4172490234375,-0.00022171298041939735,-0.001828750129789114,-0.0026435828767716885
1771956763909212000,9.4372119140625,-0.0004919189959764481,-0.0009150267578661442,0.00023547629825770855
1771956763929174800,9.4571748046875,-0.002493135631084442,0.001309992279857397,-0.0009328348678536713
1771956763949138000,9.477137939453126,0.0012178535107523203,0.0003056647256016731,-0.003500622231513262
1771956763969101000,9.49710107421875,0.000722742173820734,-0.00041486741974949837,-0.0009096987778320909
1771956763989064000,9.51706396484375,-0.00018637161701917648,0.003431078977882862,-0.0014366962714120746
1771956764009027000,9.537027099609375,0.000025055836886167526,-0.003504460211843252,-0.00018860568525269628
1771956764028990000,9.556989990234374,-0.0006704777479171753,-0.0014587738551199436,-0.0020064739510416985
1771956764048953000,9.576953125,0.0004919765051454306,-0.0034001185558736324,0.001488701906055212
1771956764068916000,9.596916015625,-0.00019354699179530144,0.000032430049031972885,-0.0018667536787688732
1771956764088878800,9.61687890625,-0.0002868412993848324,0.001035087276250124,-0.0025742496363818645
1771956764108843000,9.636843017578125,0.000993872294202447,0.0010990030132234097,-0.0008204170153476298
1771956764128806000,9.656805908203125,0.00023943884298205376,0.00006747012957930565,0.0023156902752816677
1771956764148769000,9.67676904296875,0.0007766797207295895,0.00021412456408143044,-0.0005282299825921655
1771956764168732000,9.69673193359375,-0.0004336163401603699,-0.003189215436577797,-0.00008941732812672853
1771956764188695000,9.716695068359375,0.0007761360611766577,-0.002346568740904331,0.0008611462544649839
1771956764208658000,9.736657958984376,-0.0007154890336096287,0.0006807781755924225,-0.00045643100747838616
1771956764228621000,9.75662109375,-0.00021905964240431786,0.0011634989641606808,-0.0027006822638213634
1771956764248584000,9.776583984375,0.0005345894023776054,0.0000789049081504345,0.00027191336266696453
1771956764268547000,9.796547119140625,0.0011478199157863855,-0.0033150636591017246,-0.00011490972246974707
1771956764288510200,9.81651025390625,0.00013786647468805313,-0.0006522978655993938,0.000478623085655272
1771956764308472800,9.836472900390625,-0.0005200384184718132,-0.0018456564284861088,0.00012673309538513422
1771956764328436000,9.85643603515625,0.0015765405260026455,-0.0010370314121246338,0.0005465248832479119
1771956764348398800,9.87639892578125,0.0003018365241587162,0.00035746581852436066,-0.0008630587253719568
1771956764368363000,9.896363037109374,-0.00024783890694379807,0.0004688706248998642,0.00027181964833289385
1771956764388326000,9.916325927734375,0.0014250681269913912,0.001302163116633892,-0.00040037924190983176
1771956764408289000,9.9362890625,-0.0014093248173594475,-0.0002016075886785984,-0.0005196316633373499
1771956764428252000,9.956251953125,0.0008409474976360798,-0.0026507009752094746,0.0035780048929154873
1771956764448215000,9.976215087890624,-0.0013718605041503906,-0.002706779632717371,-0.0009059263975359499
1771956764468178000,9.996177978515625,0.000026902183890342712,-0.0009300792589783669,-0.002146853366866708
1771956764488141000,10.01614111328125,-0.001855313777923584,0.0011371215805411339,-0.0031971456483006477
1771956764508104200,10.036104248046875,-0.000469923485070467,0.0005733249709010124,-0.0021528988145291805
1771956764528066800,10.05606689453125,-0.000559875275939703,-0.0010070642456412315,0.002378101460635662
1771956764548030700,10.07603076171875,0.0003200685605406761,-0.0028917170129716396,-0.0010858202585950494
1771956764567993600,10.09599365234375,-0.001388572622090578,-0.001290373969823122,0.0015336263459175825
1771956764587956700,10.115956787109376,0.0010924532543867826,-0.0009779958054423332,0.0012786778388544917
1771956764607920600,10.135920654296875,0.0003664728719741106,0.0009551411494612694,-0.0005474130157381296
1771956764627883800,10.1558837890625,-0.0014878306537866592,0.003458017483353615,-0.001817894633859396
1771956764647846700,10.1758466796875,0.0007507540285587311,0.0016131047159433365,-0.002485926728695631
1771956764667809800,10.195809814453124,0.001321996096521616,-0.003129643853753805,0.003746340051293373
1771956764687772700,10.215772705078125,-0.0008784146048128605,-0.0034804376773536205,0.0019068357069045305
1771956764707735800,10.23573583984375,-0.00036506401374936104,-0.0010428116656839848,-0.000008443021215498447
1771956764727698700,10.25569873046875,-0.00018546218052506447,-0.0015553999692201614,-0.000535135215613991
1771956764747661600,10.27566162109375,0.001581371296197176,0.0006311703473329544,-0.003537740558385849
1771956764767624700,10.295624755859375,-0.0005911742337048054,0.002385720144957304,-0.0023812735453248024
1771956764787587600,10.315587646484374,0.0007492152508348227,-0.00011484744027256966,0.0004382407059893012
1771956764807550700,10.33555078125,-0.0001481594517827034,-0.0019016056321561337,0.0012825180310755968
1771956764827513600,10.355513671875,-0.00022791186347603798,-0.004746818915009499,0.0003913391847163439
1771956764847476700,10.375476806640625,-0.00027718907222151756,-0.0029635657556355,-0.0011805904796347022
1771956764867440600,10.395440673828125,-0.001422780565917492,-0.0013223038986325264,0.000476455083116889
1771956764887403800,10.41540380859375,0.000013047829270362854,0.00388850225135684,-0.0008665127097629011
1771956764907366700,10.43536669921875,0.000651300186291337,-0.0005948417820036411,-0.0007882526842877269
1771956764927329800,10.455329833984376,0.0005116532556712627,-0.0024916096590459347,0.001028233440592885
1771956764947292700,10.475292724609375,0.000264809001237154,-0.0032937098294496536,0.00182909716386348
1771956764967255600,10.495255615234376,-0.0006767748855054379,-0.002357497811317444,0.00019397097639739513
1771956764987218700,10.51521875,-0.0019980641081929207,-0.0005993051454424858,0.0003844466991722584
1771956765007181600,10.535181640625,-0.00024908222258090973,0.0025472156703472137,-0.002207258716225624
1771956765027144700,10.555144775390625,-0.001080804504454136,-0.00021837884560227394,-0.0007383936317637563
1771956765047107600,10.575107666015626,0.0013136309571564198,0.0006744517013430595,0.0013797415886074305
1771956765067070700,10.59507080078125,-0.001019028015434742,-0.0022028484381735325,0.0026274891570210457
1771956765087033900,10.615033935546874,-0.001240624114871025,-0.002638990990817547,-0.0013721282593905926
1771956765106996700,10.634996826171875,-0.0009318231604993343,-0.0012940946035087109,-0.0014207536587491632
1771956765126959600,10.654959716796874,0.0014461802784353495,-0.0016042222268879414,0.0014707680093124509
1771956765146923800,10.674923828125,0.0006615056190639734,0.0030268714763224125,0.00031331798527389765
1771956765166886700,10.69488671875,0.0002558371052145958,0.002378496341407299,-0.00014639541041105986
1771956765186849500,10.714849609375,0.0016300606075674295,-0.0001493566669523716,0.00029153539799153805
1771956765206812700,10.734812744140624,0.0002873125486075878,-0.0031019779853522778,-0.0003836026880890131
1771956765226775600,10.754775634765625,-0.0005716299638152122,-0.0038165217265486717,0.002274732571095228
1771956765246738700,10.77473876953125,-0.00011802464723587036,-0.002521961461752653,0.0011390611762180924
1771956765266701800,10.794701904296875,-0.0020817257463932037,-0.001288998406380415,-0.0011440914822742343
1771956765286664700,10.814664794921875,-0.00023653032258152962,0.0007787616923451424,-0.0014002881944179535
1771956765306627800,10.8346279296875,0.0017996551468968391,0.0009295716881752014,-0.0006669812137261033
1771956765326590700,10.8545908203125,-0.0007808203808963299,-0.00018851598724722862,0.00007628533057868481
1771956765346553600,10.8745537109375,0.002142885234206915,-0.002720390912145376,0.0010038262698799372
1771956765366516500,10.8945166015625,0.00011323671787977219,-0.002006156835705042,0.00005192123353481293
1771956765386479600,10.914479736328126,0.00044088298454880714,0.002015603706240654,-0.002348228357732296
1771956765406443500,10.934443603515625,-0.001054590567946434,0.001555552240461111,-0.0020236209966242313
1771956765426406700,10.95440673828125,-0.0008422569371759892,0.0027336133643984795,-0.002659592078998685
1771956765446369500,10.97436962890625,0.0012454672250896692,-0.00026182224974036217,-0.00010366941569373012
1771956765466332700,10.994332763671874,0.001295670634135604,0.013633742928504944,0.015901941806077957
1771956765486295800,11.0142958984375,-0.0032104398123919964,0.07043921947479248,0.10480410605669022
1771956765506258700,11.0342587890625,0.0003095152787864208,0.02050611935555935,0.024543151259422302
1771956765526221800,11.054221923828125,0.0005404509138315916,-0.054725583642721176,-0.08108089864253998
1771956765546184000,11.074183837890626,0.001647793222218752,-0.07261376827955246,-0.10201440751552582
1771956765566147000,11.09414697265625,0.0017139187548309565,0.007594913709908724,0.007609250023961067
