time,seconds_elapsed,z,y,x
1771956767781768000,0.087767822265625,-0.0018558569997549055,-0.01758241844177246,0.010205167672038077
1771956767801730800,0.107730712890625,0.01056757124364376,0.004777626197971403,0.005080828661937266
1771956767821694000,0.12769384765625,0.02715922508239746,0.03413863564096391,-0.022444425854412836
1771956767841656800,0.14765673828125,0.03237666746973991,-0.006344400590658187,0.006856843624822795
1771956767861619700,0.16761962890625,-0.041733693879842756,0.02528254449032247,-0.02039089085808955
1771956767881582800,0.187582763671875,-0.05926292082965374,-0.05356708380822092,0.029713914533890783
1771956767901545700,0.207545654296875,-0.06478782173097133,-0.09230769681930541,0.0652159657488577
1771956767921508900,0.2275087890625,-0.11084522402882575,-0.0204329125020653,-0.005837757109617814
1771956767941471700,0.2474716796875,0.031181904727220534,-0.0043662323854863645,0.027464866098621858
1771956767961435000,0.267434814453125,0.039272272202372546,0.007595167836733162,-0.006901011560112237
1771956767981397800,0.287397705078125,-0.015341361516714095,0.023183380253985524,-0.006173190475907177
1771956768001361000,0.30736083984375,-0.013399579799175262,-0.00581332592125982,0.003436458988394588
1771956768021324000,0.327323974609375,-0.0030821839243173597,-0.029198220096714793,0.0005177402637898922
1771956768041288000,0.347287841796875,-0.0372048182785511,-0.00015424071364104747,-0.005088189984485507
1771956768061250800,0.367250732421875,0.017855974686145783,-0.035204840100370345,0.005706057021347805
1771956768081213700,0.387213623046875,-0.02031914992928505,0.0009739230660721659,-0.02225004492662847
1771956768101176800,0.4071767578125,0.01737842030227184,0.0012806143950670956,0.01832298027654178
1771956768121139700,0.4271396484375,-0.015709025785326958,-0.0026747721672058106,0.0006031900575384497
1771956768141102800,0.447102783203125,-0.05282967291176319,-0.02915204286742955,0.0025316465026233343
1771956768161065700,0.467065673828125,-0.062244566988945,-0.03514094455130398,0.03345256220609881
1771956768181028900,0.48702880859375,-0.034091070172190666,-0.027420104508288204,-0.004470222482923418
1771956768200991700,0.50699169921875,0.023244681987166404,-0.00753371997307986,0.017076259017921983
1771956768220955000,0.526954833984375,0.009196282890439033,-0.0032035087490454315,-0.0118992856382858
1771956768240918000,0.54691796875,-0.0012689970225095747,0.0033899346992373462,0.02824117510020733
1771956768260880600,0.566880615234375,-0.009196867412328719,-0.012356098628230392,-0.006756251060869544
1771956768280843800,0.58684375,-0.012193711140751838,0.009043138155341147,-0.008176977179525419
1771956768300806700,0.606806640625,-0.005768646529316902,0.002445968380011618,-0.003244544012332335
1771956768320769800,0.626769775390625,-0.0008387889117002486,0.0032526816530153153,-0.01372398031479679
1771956768340733700,0.646733642578125,-0.005342530071735381,-0.003993234354630113,0.015964927642000838
1771956768360696800,0.66669677734375,-0.013736264407634735,-0.012080861883424221,0.0022186898296233265
1771956768380659700,0.68665966796875,-0.02466740826666355,-0.04137001166660338,0.01391584962508641
1771956768400622800,0.706622802734375,-0.04307049544155597,-0.0008840528255328535,0.022057408431358633
1771956768420586000,0.7265859375,-0.039919922456145285,-0.015136705790087579,0.009691144602140411
1771956768440548900,0.746548828125,-0.023597148686647414,-0.01979326289165765,-0.021004045187216252
1771956768460512000,0.766511962890625,-0.005630114841461181,-0.010197276626527309,0.005597345083020627
1771956768480474600,0.786474609375,-0.002336333993077278,-0.012105119541846215,-0.0003605952070094645
1771956768500437800,0.806437744140625,-0.007265022566914558,-0.009417634023539722,0.011055354760587215
1771956768520400600,0.826400634765625,0.0038099136769771573,-0.0035336905514821407,-0.00003316248408518731
1771956768540364000,0.846364013671875,-0.0024818799436092374,0.0013409662801772354,0.014988365094270557
1771956768560327200,0.8663271484375,-0.018500117808580397,-0.0018588892070576547,-0.016041618740558622
1771956768580290000,0.8862900390625,-0.01656242774426937,-0.021933745519071818,0.010467407937953248
1771956768600253200,0.906253173828125,-0.023306056785583496,-0.01332713561747223,0.016233067925740034
1771956768620217000,0.926217041015625,-0.006858195331692695,-0.02237199080586433,0.01316093047140166
1771956768640180000,0.946179931640625,-0.027663082951307295,-0.00985164152663201,0.010139482024684548
1771956768660142800,0.966142822265625,-0.03379647113978863,-0.007816884296014905,0.015870244229026137
1771956768680106000,0.98610595703125,-0.0092412910759449,-0.0016788199324160814,0.007803540757251903
1771956768700068900,1.00606884765625,0.009022095367312431,-0.02542440064642578,0.0023171178359538314
1771956768720032000,1.026031982421875,-0.0212058696359396,-0.012411737805604934,-0.015079276514425873
1771956768739995000,1.045994873046875,0.001391162097454071,-0.010315788439661263,0.0013270564858336
1771956768759958000,1.0659580078125,-0.006840659675002097,-0.0171330672390759,0.019835741193359718
1771956768779921200,1.085921142578125,-0.0018979425758123398,-0.008268829314596951,-0.0043218817871063945
1771956768799884000,1.105884033203125,-0.01671323439180851,0.0010422390619292854,0.0045196145826019345
1771956768819847200,1.12584716796875,-0.014624737679958342,0.0005163885569199919,-0.010809572439128532
1771956768839809800,1.145809814453125,-0.01641571274995804,-0.022924692785181104,-0.004363446773355826
1771956768859773000,1.16577294921875,-0.0060977323532104485,-0.027173765064403412,-0.008758211133582517
1771956768879736000,1.185736083984375,-0.023612346255779265,-0.02874832090474665,0.00959358424548991
1771956768899699000,1.205698974609375,-0.020174188500642776,-0.011181757619231939,0.022288175846775993
1771956768919662800,1.225662841796875,-0.01883680241703987,0.006193374747410416,0.018270537703251464
1771956768939626000,1.2456259765625,-0.019718845948576928,0.0002183919910341501,-0.0029514702167361974
1771956768959589000,1.265589111328125,-0.003406593573093414,-0.005040697580948472,-0.015449963857186957
1771956768979552000,1.285552001953125,-0.006544891598820686,-0.003758731479011476,0.010307769529987127
1771956768999515100,1.30551513671875,-0.011928922724723815,-0.01840001843497157,0.00037965610050596295
1771956769019478000,1.32547802734375,-0.010735913547873496,-0.016766352818533777,-0.005637439631391316
1771956769039441200,1.345441162109375,-0.03153904760181904,-0.010302015642635524,0.015399859371455386
1771956769059403800,1.36540380859375,-0.015529577565193175,-0.005821618825569749,0.009072154187271371
1771956769079367000,1.385366943359375,-0.0026619126856327053,-0.008149623381718993,0.012543821486365049
1771956769099330000,1.405330078125,-0.025253099200129508,-0.007020875080116093,-0.012126500256592407
1771956769119293000,1.42529296875,-0.008047112855315208,-0.006736139854602515,0.01317007275908254
1771956769139256000,1.445256103515625,-0.006111176356673241,-0.010558401556499302,-0.01210964045333676
1771956769159219000,1.465218994140625,0.0024111527949571606,-0.028454160263761876,-0.00044695831621065733
1771956769179182000,1.48518212890625,-0.011203531059622764,0.009646109017170966,0.01027708213077858
1771956769199145000,1.50514501953125,-0.010602642557024955,0.006110884095728397,0.008087737126648425
1771956769219109000,1.525109130859375,-0.011049217280745505,-0.00443776325173676,-0.0007022299852222204
1771956769239072000,1.545072021484375,-0.008957797959446907,0.004977130825445056,0.006079118984285742
1771956769259035000,1.565034912109375,-0.009553425765037536,-0.011029635797441005,-0.009134003909723833
1771956769278998000,1.584998046875,-0.0002887538135051727,-0.007287928518466651,0.0030731969002634283
1771956769298961000,1.6049609375,-0.007028291201591492,-0.007593158542737365,0.014590780611429363
1771956769318924000,1.624924072265625,-0.027981062859296798,-0.004105937481485307,-0.007033058708254248
1771956769338887000,1.644886962890625,-0.031878070297837256,0.01158756194114685,0.008148646134184673
1771956769358850000,1.66485009765625,-0.006292962664365768,-0.0024300401585176587,0.012444781558681279
1771956769378813000,1.68481298828125,-0.011227496457099913,-0.02470277184098959,0.006948805357748642
1771956769398776000,1.704776123046875,-0.017511106771230696,-0.018639307083562016,-0.008228771298844367
1771956769418739200,1.7247392578125,-0.010030980148911475,0.005946779575198889,-0.004008349725371226
1771956769438702000,1.7447021484375,-0.0038917467415332794,-0.01931658529061824,-0.01225991737791337
1771956769458665000,1.7646650390625,-0.015707856741547583,0.01006996045242995,0.007323474755883216
1771956769478627800,1.7846279296875,-0.009430091646313667,0.004560110989771783,-0.009026899406593292
1771956769498591000,1.804591064453125,-0.013469722425937651,-0.002509462070278823,0.008356936856312678
1771956769518555000,1.824554931640625,-0.01780161415040493,-0.019697839693166314,-0.0017391078854445366
1771956769538517500,1.844517578125,-0.01870119333863258,-0.015473061604984104,-0.00411186489877291
1771956769558480400,1.86448046875,-0.010327332746982575,0.0010338000271469354,0.000054488399904221294
1771956769578443500,1.884443603515625,0.0038929157853126524,0.006484064789675175,0.0034651736262254415
1771956769598406700,1.90440673828125,-0.014357611176371573,-0.014186309730075298,-0.0010420655319932847
1771956769618369300,1.924369384765625,-0.010765139642357825,-0.005718998701311648,-0.0014295304796192794
1771956769638332400,1.94433251953125,-0.0019306758016347885,-0.004561316566169262,-0.007551794485887512
1771956769658295300,1.96429541015625,-0.014198621222376823,-0.012794234317168593,0.0036069567170925435
1771956769678258400,1.984258544921875,-0.017046411868929863,-0.005206044210493564,-0.002596711095469072
1771956769698221600,2.0042216796875,-0.011806757649779318,0.0018476736932992934,0.013927540062880142
1771956769718184400,2.024184326171875,-0.010011690926551818,-0.008053432998247444,0.0006983757940120994
1771956769738147600,2.044147705078125,-0.025725977408885953,-0.005535897219367325,-0.009748181152157484
1771956769758110500,2.0641103515625,-0.0017944822013378143,-0.00399699721429497,0.006926136868214234
1771956769778073600,2.084073486328125,-0.011673486658930778,-0.0060294528899714345,0.007901128513365984
1771956769798037500,2.10403759765625,-0.018110826230049133,-0.015123480982333421,0.00953232817808166
1771956769818000600,2.124000732421875,0.0007429273217916488,-0.014163549908995628,0.0041363782855216415
1771956769837963300,2.14396337890625,-0.01661854184567928,-0.006286569456197321,0.01297349074105732
1771956769857926400,2.163926513671875,-0.019618308183550835,-0.006964980174414813,-0.0030712058725766837
1771956769877889300,2.18388916015625,-0.019770283874869347,-0.002503032329492271,-0.00288425019942224
1771956769897852400,2.203852294921875,-0.012287819164991378,0.003777984168753028,0.0023145331532228738
1771956769917815600,2.223815673828125,-0.01094400334060192,-0.015161365307308732,-0.004969321978325024
1771956769937778400,2.2437783203125,-0.024562194326519966,-0.026977511839941144,0.020253939205966888
1771956769957741600,2.263741455078125,-0.00540624295771122,-0.009861103474721312,0.0009862528246827422
1771956769977704400,2.283704345703125,-0.015881459742784498,-0.00777304515428841,0.00765372049040161
1771956769997667600,2.30366748046875,-0.02156476607620716,-0.009808240776322781,0.002438333062827587
1771956770017630500,2.32363037109375,-0.022015432453155515,-0.008022307207621633,-0.0013259422409813851
1771956770037593300,2.34359326171875,-0.012134674429893492,-0.015303696387447416,0.0008559957748278975
1771956770057556500,2.363556396484375,-0.016028759258985517,-0.01584204104784876,-0.015668520245002582
1771956770077520400,2.383520263671875,-0.010489829832315445,-0.01148238453362137,0.0005186079134698957
1771956770097483500,2.4034833984375,-0.005403320348262786,-0.015895122941955924,-0.0017069500483572482
1771956770117446400,2.4234462890625,-0.006903203517198562,-0.0034034517679363487,0.0007951963651459664
1771956770137409500,2.443409423828125,-0.016333879685401915,0.0009875862652435898,0.009473464997159316
1771956770157372400,2.463372314453125,-0.011256138029694556,0.003910634105093777,0.00259851946006529
1771956770177335600,2.48333544921875,-0.01680383528470993,-0.013427271523699163,-0.003641726636374369
1771956770197298400,2.50329833984375,-0.002738485053181648,-0.01472348534669727,-0.009933383259642868
1771956770217261600,2.523261474609375,-0.007381926944851875,-0.0129711617866531,-0.004781160728773102
1771956770237224400,2.543224365234375,-0.017111878320574758,-0.015147994369082152,0.016286149819847197
1771956770257187300,2.563187255859375,-0.007393617382645607,-0.0027640213532373306,0.021606367595074696
1771956770277150500,2.583150390625,-0.02549392221868038,0.001712247277982533,-0.008940043107047676
1771956770297113300,2.60311328125,-0.0060427872955799095,-0.002749335240758955,0.02223198868012987
1771956770317076500,2.623076416015625,-0.015772738671302796,-0.02245386040303856,-0.011250046215625479
1771956770337039400,2.643039306640625,-0.009937456646561623,-0.01067457528207451,0.007438223709352314
1771956770357003500,2.66300341796875,-0.0033539866030216216,-0.011406652416288852,0.020591372733097524
1771956770376966400,2.68296630859375,-0.02355330954492092,0.00722838035095483,-0.008152116732904688
1771956770396929500,2.702929443359375,-0.007841945672035217,-0.0037801761258393525,-0.011277427412895485
1771956770416892400,2.722892333984375,-0.01487140591740608,-0.02620028038974851,-0.0000061740124598145485
1771956770436855600,2.74285546875,-0.024147768306732178,0.0024615312753245235,0.00488706878866069
1771956770456818400,2.762818359375,-0.01965513306260109,-0.012901603681780397,-0.001290688264509663
1771956770476781300,2.78278125,-0.0043862522602081296,-0.02010287683010101,-0.017925706320954485
1771956770496744400,2.802744384765625,-0.016958149063587186,-0.004476268631219864,0.017409345163498072
1771956770516707300,2.822707275390625,-0.013072247540950774,0.008787994350492954,-0.0071564841585233805
1771956770536670700,2.842670654296875,-0.024736966371536252,-0.00938731195051223,-0.004661288075614721
1771956770556633600,2.862633544921875,-0.019946809485554693,-0.008349712531082331,0.0038832894404418764
1771956770576596500,2.882596435546875,-0.020992519146203995,-0.006667129739001393,-0.0009890475699678063
1771956770596559600,2.9025595703125,-0.024137831434607505,-0.0006413301108404994,0.001536671515367925
1771956770616522500,2.9225224609375,-0.017559037566184998,-0.006657704323530197,-0.00043765163174830374
1771956770636486700,2.942486572265625,-0.010378770673274994,0.0068964084502309555,0.006081530137080699
1771956770656449500,2.962449462890625,-0.010970306825637816,0.0034319106774404642,0.002417546003125608
1771956770676412700,2.98241259765625,-0.008871288719773293,-0.013175854045897722,-0.0005222246426623314
1771956770696375600,3.00237548828125,-0.009309095615148543,0.002467339961603284,-0.005597226352011785
1771956770716338700,3.022338623046875,-0.015137363377213477,-0.005470065441541373,-0.00594810388260521
1771956770736301600,3.042301513671875,-0.00944470469355583,-0.024765607944130897,0.018011083049466834
1771956770756264700,3.0622646484375,-0.0057125324279069896,0.010935308577492833,0.0025011600328143685
1771956770776227600,3.0822275390625,-0.014535890352725981,-0.007264803371205926,0.01879668960236013
1771956770796190500,3.1021904296875,-0.012442132943868636,0.006368365988135337,0.009736381116509436
1771956770816153600,3.122153564453125,-0.02831073320508003,-0.002221292778663337,0.002174594959570095
1771956770836116500,3.142116455078125,-0.017684125250577925,-0.015263108648732303,-0.016520424366602674
1771956770856079600,3.16207958984375,-0.015288170024752615,-0.01754913722667843,0.007113868859503418
1771956770876042500,3.18204248046875,-0.011102408772706985,-0.010033683562651276,-0.0010230685705784708
1771956770896005600,3.202005615234375,-0.005865092641115188,-0.01535955476053059,0.0049578142036218196
1771956770915968800,3.22196875,-0.008404840251803398,-0.004762976618111133,0.006587744359858334
1771956770935932700,3.2419326171875,-0.03623918811678886,0.0022239231271669268,-0.003899071531463414
1771956770955895600,3.2618955078125,-0.013645663514733314,-0.014282609711401164,-0.0207518970570527
1771956770975858700,3.281858642578125,-0.006154430976510048,-0.010777122341096401,-0.014134890070091933
1771956770995821600,3.301821533203125,-0.02501461426913738,-0.03243179519046098,0.012449795660516247
1771956771015784400,3.321784423828125,-0.013051789274811744,-0.00048635874483734365,-0.010268049440952018
1771956771035747600,3.34174755859375,-0.009452303478121756,-0.001720247921347618,-0.0008301763469818979
1771956771055710500,3.36171044921875,-0.007507014629244804,0.01033405474871397,-0.007078359154704957
1771956771075673600,3.381673583984375,-0.010052607458829878,0.003655746028572321,-0.007222507732594386
1771956771095636500,3.401636474609375,-0.01962941409945488,-0.01883464699257165,0.002301061750296503
1771956771115599600,3.421599609375,-0.021128712746500966,-0.017527181123197077,-0.01167370585463941
1771956771135562800,3.441562744140625,-0.012293079861998558,-0.02826422718223184,0.006481544039025902
1771956771155525600,3.461525634765625,-0.008251695516705513,0.0008853679997846484,-0.014768292602803558
1771956771175488500,3.481488525390625,-0.01198795943558216,-0.011894764726795256,0.026272423177352174
1771956771195451400,3.501451416015625,-0.017975801673531532,0.005081467982754111,-0.001870881038950756
1771956771215415600,3.52141552734375,-0.009154781836271286,-0.01495126622058451,0.003196996809868142
1771956771235378400,3.54137841796875,-0.023071663507819175,-0.01772675881590694,-0.0073028429598081855
1771956771255341600,3.561341552734375,-0.00826397047638893,-0.01789236117377877,-0.00491839550868608
1771956771275304400,3.581304443359375,-0.01708966648876667,-0.00220335526317358,-0.005675634483620524
1771956771295267600,3.601267578125,-0.017242226701974867,-0.015715893917530775,0.00597227020948194
1771956771315230700,3.621230712890625,-0.0018266309052705765,-0.018935477018542587,0.014182939596055075
1771956771335193600,3.641193603515625,-0.02097439896762371,0.00771126849707216,-0.002830236723553389
1771956771355156700,3.66115673828125,-0.0196241534024477,-0.004764255259744823,0.015610195920197292
1771956771375119600,3.68111962890625,-0.018875380861759185,-0.011150631828606128,-0.0058490091559942805
1771956771395082500,3.70108251953125,-0.02351706918776035,-0.023993162266910076,0.011670691913645713
1771956771415045400,3.72104541015625,-0.016480010157823563,0.004895663087069988,0.02341230277218856
1771956771435008500,3.741008544921875,-0.02769990783035755,0.0017183482252061367,0.01401349218012765
1771956771454971600,3.7609716796875,-0.014080547800660132,-0.013008607720211148,-0.010865339480666442
1771956771474934500,3.7809345703125,-0.025750527328252792,-0.0023651216961443422,0.00014685199162922798
1771956771494898400,3.8008984375,-0.014078209713101386,-0.010816358372941613,-0.012783603325299918
1771956771514861600,3.820861572265625,-0.012880524361133575,-0.016809461307898163,-0.004730389522761106
1771956771534824700,3.84082470703125,-0.01019815340936184,-0.005471636344119906,-0.0039700178758241235
1771956771554787800,3.860787841796875,-0.017529811471700667,-0.02164842577166855,-0.018789940201165152
1771956771574751000,3.8807509765625,-0.011540215668082237,0.004393924110010266,0.004777872793143615
1771956771594713900,3.9007138671875,-0.0257458511531353,-0.0012902590062469244,-0.014098795843403785
1771956771614676700,3.9206767578125,-0.017357377514243124,0.0013433043677359819,0.007744010856049135
1771956771634639600,3.9406396484375,-0.02813303855061531,-0.005947217966616154,-0.011372202157415448
1771956771654602800,3.960602783203125,-0.01092179150879383,-0.017618585733696818,0.0045360999265220015
1771956771674566000,3.98056591796875,-0.00837561415731907,0.0011562573630362748,-0.009207407072652132
1771956771694528800,4.00052880859375,-0.0017927286356687546,-0.006935352221131325,0.0004732070023193955
1771956771714492000,4.020491943359375,-0.029328970336914062,-0.004698423481918871,-0.004302875692537054
1771956771734454800,4.040454833984375,-0.01690320400595665,-0.002878112719580531,-0.010267656715307385
1771956771754418000,4.06041796875,-0.01795242079794407,-0.0068536652870476245,-0.004917436527460814
1771956771774380800,4.080380859375,-0.01092179150879383,-0.02067669466268271,-0.01711292863334529
1771956771794345000,4.100344970703125,-0.0052379006534814835,-0.004131583379395306,-0.0023170721701811997
1771956771814307800,4.120307861328125,-0.01212824468910694,-0.018514621257968246,0.030779424873553216
1771956771834270700,4.140270751953125,0.004631166931986809,-0.014699118090420961,-0.0005816814786288887
1771956771854233900,4.16023388671875,-0.01647299589514732,-0.0034657764144241806,0.0018021540511399506
1771956771874196700,4.18019677734375,-0.027547347617149352,-0.002410458675213158,-0.011574784657964483
1771956771894160000,4.200159912109375,-0.013778934505581856,-0.006127396839112043,0.002280420821066946
1771956771914122800,4.220122802734375,-0.011839490875601768,-0.013142134439386426,0.019062300002295522
1771956771934086000,4.2400859375,0.0037251580029726027,-0.00833166541773826,-0.012156630533374846
1771956771954048800,4.260048828125,-0.014086977541446685,-0.015642572952993213,0.021782664876896885
1771956771974012000,4.280011962890625,-0.014541735571622848,-0.004560147522389889,0.0035593821151647716
1771956771993975000,4.29997509765625,-0.019477438408136368,0.0030625659083947537,0.0023427911333274093
1771956772013937700,4.319937744140625,-0.02755786901116371,-0.0031064781153574586,-0.010286069154832512
1771956772033900800,4.33990087890625,-0.019171148937940596,-0.004451499516144395,-0.0022144429127685726
1771956772053863700,4.35986376953125,-0.026216391274333,-0.022254794166982172,-0.01611507670241408
1771956772073827800,4.379827880859375,0.007899228817224503,-0.022816300507262348,0.008906789291417225
1771956772093790700,4.399790771484375,-0.009908230552077292,-0.01590352544412017,0.0037827699417248366
1771956772113753900,4.41975390625,-0.026824294039607045,0.0024711393538862465,-0.004288710169866681
1771956772133716700,4.439716796875,-0.016341478469967842,0.001256320204026997,-0.015586751112528144
1771956772153680000,4.459679931640625,-0.022628011393547056,-0.004380772367492318,0.0013241156100761145
1771956772173642800,4.479642822265625,-0.0009299743264913558,-0.024117555831559,-0.00396421832269989
1771956772193606000,4.49960595703125,-0.0253232418268919,-0.005634498755633831,0.0012548406329937279
1771956772213569000,4.519569091796875,-0.018436989444494248,-0.026688721493817864,-0.011869730750238523
1771956772233531600,4.53953173828125,-0.020985504883527753,-0.00379994027223438,-0.003973744202870875
1771956772253494800,4.559494873046875,-0.010808394262194633,0.003301379632949829,0.014210941847832873
1771956772273457700,4.579457763671875,-0.02188274598419666,0.0017613836493343114,0.001897074926132336
1771956772293420800,4.5994208984375,-0.015296937853097915,0.008283259698748588,0.007524413288617506
1771956772313384000,4.619384033203125,-0.020237316864728926,-0.004239025809243321,0.01803405293310061
1771956772333346800,4.639346923828125,-0.01635141534209251,-0.01852558104339987,-0.0005017937759868801
1771956772353310000,4.65931005859375,-0.014261749586462974,-0.026211788164451716,0.018079563442105425
1771956772373273900,4.67927392578125,-0.022198387804627417,0.01588226346038282,0.0005252477168105542
1771956772393237000,4.699237060546875,-0.00632511136829853,0.00037814913000911473,-0.008285095462808385
1771956772413200000,4.719199951171875,-0.020845219630002975,-0.011089951149933039,0.0002513261462561786
1771956772433163000,4.7391630859375,-0.005285831448435783,-0.005147409358434379,0.0036326756802387535
1771956772453125600,4.759125732421875,0.008780687826871872,-0.011373371201194821,-0.007227677098056301
1771956772473088800,4.7790888671875,0.0002530979782342911,0.0046922129368409515,0.007401554093929007
1771956772493051600,4.7990517578125,-0.009620061260461806,-0.01788235123641789,-0.0019143548544961959
1771956772513014800,4.819014892578125,-0.003940262058377266,-0.008863068880699574,-0.0025309706491883845
1771956772532978000,4.83897802734375,-0.01591711557805538,0.008595650116167962,-0.0005498615682590752
1771956772552941300,4.85894140625,-0.003794716107845306,-0.009020999388769269,-0.0018257358561269937
1771956772572904400,4.878904541015625,-0.018611176967620848,-0.007468290054053067,0.00658046523570083
1771956772592867300,4.898867431640625,0.01116144548356533,-0.005076389948837459,-0.0002903064497746527
1771956772612830500,4.91883056640625,-0.01936930185854435,-0.0053347851566970346,-0.0007265789751894772
1771956772632793300,4.93879345703125,-0.006958148574829101,0.024341318117454647,0.008611185612017288
1771956772652756200,4.958756103515625,-0.01833528263568878,-0.0013367284964770079,-0.008122287850221618
1771956772672720400,4.978720458984375,-0.018774843096733093,0.004599420086853206,-0.023566223825421184
1771956772692683300,4.998683349609375,0.0044184009641408915,-0.008071151318028569,-0.007234654828114435
1771956772712646100,5.018646240234375,-0.004711246430873871,-0.022673969427123665,-0.000008713029418140649
1771956772732609300,5.038609375,-0.012798691296577453,-0.010431669904291629,-0.010225753802340478
1771956772752572400,5.058572509765625,0.0029167642295360565,-0.004039776910096406,-0.01295744378855452
1771956772772535300,5.078535400390625,-0.025061376020312307,-0.0018642229693010448,-0.01025159149649553
1771956772792498400,5.09849853515625,-0.017126491367816923,-0.0018024097794666885,-0.008995061229914426
1771956772812461300,5.11846142578125,-0.018015549162030218,0.005108940511569381,-0.003085398794710636
1771956772832424400,5.138424560546875,-0.010538929671049118,-0.006846468361280858,0.012034520257357507
1771956772852387300,5.15838720703125,-0.011292378386855125,-0.01122840977255255,0.0030284718425478783
1771956772872350200,5.17835009765625,-0.00485854594707489,-0.010459544291906058,0.004505686521949246
1771956772892313300,5.198313232421875,-0.017126491367816923,-0.01773004675153643,0.002459047057293355
1771956772912276200,5.218276123046875,-0.018620529317855832,-0.0070195599058642975,-0.002052694746106863
1771956772932239400,5.2382392578125,-0.02639759306013584,0.00431084893643856,0.019594580248091367
1771956772952202200,5.2582021484375,-0.017267945665121076,-0.0011228300174698233,-0.010367847420461476
1771956772972166400,5.27816650390625,-0.016517419558763503,-0.008151596143096684,0.011023598782299086
1771956772992129300,5.29812939453125,-0.011730769804120062,-0.013197517888434231,-0.0003634995501488447
1771956773012092400,5.318092529296875,-0.010244330638647079,-0.009678111590631306,0.010894026719033717
1771956773032055300,5.33805517578125,-0.0012613982379436493,-0.005446355772390961,-0.0039814251858275385
1771956773052018400,5.358018310546875,-0.03552490236759186,-0.0043234892223030326,0.006558034208184108
1771956773071981300,5.377981201171875,-0.023254034337401388,0.005878500111959875,-0.0041720706534106285
1771956773091944200,5.397944091796875,-0.03582826922833919,-0.010959968094713985,-0.00384787106718868
1771956773111907300,5.4179072265625,-0.017124737802147863,-0.002761391004733741,-0.007996204651985316
1771956773131870200,5.4378701171875,-0.015927052450180054,-0.0005189093075692653,0.0024334559583105144
1771956773151833300,5.457833251953125,-0.0002139350116252899,-0.00580042990706861,0.020871057324158025
1771956773171796200,5.477796142578125,-0.011585223853588103,-0.0005646481454372405,0.0150740523500368
1771956773191759400,5.49775927734375,-0.016972177588939666,-0.0025046762973070145,0.010122384759411214
1771956773211722500,5.517722412109375,-0.019811784929037093,-0.01450874661747366,0.00007631663922220467
1771956773231685400,5.537685302734375,-0.019514847809076308,-0.012361980379745363,0.00398019220996648
1771956773251648500,5.5576484375,-0.005454758274555206,-0.020876637681573627,-0.011998097237106412
1771956773271612400,5.5776123046875,-0.00007657236754894256,-0.002975399081595242,0.0024292455740738657
1771956773291575600,5.597575439453125,-0.005767477485537529,-0.004251191171072423,-0.001160065888473764
1771956773311538200,5.6175380859375,-0.023130115696787832,-0.006120674837380647,0.006791568969422951
1771956773331501300,5.637501220703125,-0.02163841583430767,0.01570022142436355,-0.0007908307172823696
1771956773351464200,5.657464111328125,-0.02673310862481594,0.016629976555146277,-0.0037223358582239596
1771956773371427300,5.67742724609375,-0.01939794343113899,-0.009454860761389136,-0.003517753196833655
1771956773391390200,5.69739013671875,-0.01011924295425415,-0.007310176882892846,-0.010535084612993522
1771956773411353300,5.717353271484375,-0.005924129351973533,-0.00900817643981427,-0.014448038539336993
1771956773431316500,5.73731640625,-0.020735329514741895,0.0017671558029949664,0.009229883765941485
1771956773451279400,5.757279296875,-0.022834347620606422,0.02411437749378383,0.007316433093743398
1771956773471242500,5.777242431640625,-0.02403203297257423,0.007365158473141491,0.00030902028339914976
1771956773491205000,5.797205078125,-0.017299509847164152,-0.012111658880487083,-0.01347513838657178
1771956773511168300,5.817168212890625,-0.00891103620827198,-0.01140818678624928,0.005362339883903041
1771956773531131400,5.83713134765625,-0.006058569386601448,-0.007746084082126617,0.00943579073473811
1771956773551094300,5.85709423828125,-0.007411153039336204,-0.023023988441191613,0.013253421927290036
1771956773571057200,5.87705712890625,-0.018495441633462905,0.008043021202087402,0.013639909627381711
1771956773591021300,5.897021240234375,-0.01295826577246189,-0.0072655340235680335,0.011488101888354868
1771956773610984200,5.916984130859375,-0.01670271299779415,-0.004509074922278524,0.001718978412868455
1771956773630947000,5.936947021484375,-0.028531682479381558,-0.019582323554717004,-0.013158364054979756
1771956773650910200,5.95691015625,-0.022248072165250776,-0.0049326706292107695,-0.001376201990339905
1771956773670873000,5.976873046875,-0.002045242092013359,0.003729103525727987,0.005146167249418795
1771956773690836200,5.996836181640625,-0.005042085820436477,-0.00905124839656055,0.008651417157705872
1771956773710799000,6.016799072265625,-0.01970832455456257,0.013388072024472057,0.009406007517827674
1771956773730762200,6.03676220703125,-0.005944587618112564,-0.004571216905675828,-0.005731894715502858
1771956773750725400,6.056725341796875,-0.02360299390554428,-0.014977313977293669,-0.012961434977082536
1771956773770688300,6.076688232421875,-0.02450140404999256,-0.010632964630052446,0.0024483886659611015
1771956773790651100,6.096651123046875,-0.0005605564922094345,-0.02467423986624926,0.0017474829881452022
1771956773810614000,6.116614013671875,-0.015975567767024038,-0.011798720473796128,0.014617221093783155
1771956773830577200,6.1365771484375,-0.02435059740245342,0.0007986760970205068,0.014900732476590201
1771956773850540300,6.156540283203125,-0.03047930941581726,0.011668591288104652,0.012840786005789414
1771956773870503200,6.176503173828125,-0.014009236130118369,-0.007329356507398188,0.013707257508859037
1771956773890466300,6.19646630859375,-0.0104220252931118,-0.008233210011944174,0.003912798662716523
1771956773910429200,6.21642919921875,-0.025982582518458364,-0.014702442558668554,-0.013008059730939566
1771956773930393300,6.236393310546875,-0.009817045137286186,-0.008060447260923684,-0.006136338197393343
1771956773950356200,6.256356201171875,-0.008927402821183204,0.0032432562375441193,0.0033297563440632073
1771956773970319400,6.2763193359375,-0.028075170883536338,0.00860441794451326,0.010243855714611708
1771956773990282200,6.2962822265625,-0.004728197565674781,-0.0004210384236648679,-0.019229053137637675
1771956774010245000,6.3162451171875,-0.043781274059414864,-0.009175349700264632,-0.01997216312251985
1771956774030208000,6.3362080078125,-0.02148760918676853,-0.007335055595822632,0.00733278144034557
1771956774050171100,6.356171142578125,-0.014606617501378058,-0.008987352847494185,-0.00593578325714916
1771956774070134300,6.37613427734375,-0.0012929624199867248,-0.0027126199595630166,-0.008739670829894021
1771956774090097200,6.39609716796875,-0.01805471212863922,-0.0018049670627340673,0.0013073745378293096
1771956774110060300,6.416060302734375,-0.01820142712295055,-0.0008558861769735812,0.005783798432676121
1771956774130023200,6.436023193359375,-0.025681553745269772,-0.0055175578450784085,0.0069462024087086315
1771956774149986300,6.455986328125,-0.014458148941397667,-0.004114120787940919,-0.0037306378956884143
1771956774169949200,6.47594921875,-0.018955460360646246,-0.017572189308702944,-0.0038104433999396857
1771956774189912000,6.495912109375,-0.022541502153873443,-0.005729300899617373,0.004803390826890245
1771956774209875200,6.515875244140625,-0.0066834232866764065,-0.0029295871784910557,-0.009864409676659852
1771956774229838000,6.535838134765625,-0.004883680388331413,-0.013045907523296773,0.02158873147368431
1771956774249802200,6.55580224609375,-0.027781156373023985,0.0036098975928500294,-0.006881165215326473
1771956774269765000,6.57576513671875,-0.011613280904293059,-0.011360511719621717,0.01351207286347635
1771956774289728300,6.595728271484375,-0.02059972043633461,-0.004792896832339465,0.011103924876358359
1771956774309691100,6.615691162109375,-0.019258827221393583,-0.01409753546807915,0.01346469005779363
1771956774329654300,6.635654296875,-0.013429390415549277,-0.00018167670983821154,0.01088482963242568
1771956774349617200,6.6556171875,-0.0034071780949831007,-0.014004340759292244,-0.0046337607478722925
1771956774369580300,6.675580322265625,-0.025852234137058255,-0.012263561506569385,-0.0011088288915809244
1771956774389543200,6.695543212890625,-0.021362521502375602,-0.006602868863753974,0.002193418391048908
1771956774409506000,6.715506103515625,-0.030790275061130523,0.00269468244407326,0.005349800062738359
1771956774429469200,6.73546923828125,-0.014479191729426383,-0.005449022653512657,-0.011527356186509132
1771956774449432000,6.75543212890625,-0.023456863433122633,-0.006752177673950791,0.0074334470695350315
1771956774469395200,6.775395263671875,-0.021660627666115758,-0.0069285571541637175,0.00896525061354041
1771956774489358000,6.795358154296875,-0.014475684598088264,0.011287592613883317,0.008724829453788698
1771956774509321200,6.8153212890625,-0.020016952112317084,-0.004642711239308118,0.02234109334410168
1771956774529284400,6.835284423828125,-0.02944704375863075,-0.0030488661766052243,0.012598355552041902
1771956774549246500,6.85524658203125,-0.021361352458596227,0.009950900650024413,-0.003965834891051054
1771956774569209600,6.875209716796875,-0.021809680747985838,-0.0020282178919762374,-0.0158278115930967
1771956774589173500,6.895173583984375,-0.01716974598765373,-0.011124912865459918,0.0022593780330382287
1771956774609136600,6.91513671875,-0.0028027824610471724,-0.002287343752197921,-0.006254448151728138
1771956774629099500,6.935099609375,-0.014025018221139907,-0.01577061977945268,-0.007643874949822202
1771956774649062400,6.9550625,-0.021198855373263357,-0.0001201192483305931,0.017984998760139568
1771956774669025500,6.975025634765625,-0.014010405173897742,-0.009095306733995676,-0.0010762326630763708
1771956774688988400,6.994988525390625,-0.024779636469483373,-0.011282478047348558,-0.006753675511293113
1771956774708951600,7.01495166015625,-0.016395254483819007,-0.014428703651204704,-0.014655014087213203
1771956774728914400,7.03491455078125,-0.019835750326514242,-0.0029077041402459144,0.003981151191191748
1771956774748877600,7.054877685546875,-0.0011357260316610335,-0.0038270840074867006,0.009262470861291512
1771956774768840400,7.07484033203125,-0.014603110370039939,0.010817637014575303,0.007340654219547286
1771956774788803600,7.094803466796875,-0.02656885797381401,0.004291450116224587,-0.008082092837151139
1771956774808766700,7.1147666015625,-0.026121114206314085,-0.015593436581641435,-0.00005263436953537166
1771956774828729300,7.134729248046875,-0.01654021591246128,-0.010077668834850192,-0.009579774915846065
1771956774848692500,7.1546923828125,-0.005469955843687057,-0.009817520061321555,0.006964824910787865
1771956774868655400,7.1746552734375,-0.011761749464273451,-0.016079393467679618,-0.006258905131136998
1771956774888618500,7.194618408203125,-0.014753332495689392,-0.005245462905429303,0.008570223413966595
1771956774908582400,7.21458251953125,-0.02238426576554775,-0.009802249426953494,0.002004837016388774
1771956774928545500,7.234545654296875,-0.021185411369800566,-0.0042485608225688335,0.008678798354975878
1771956774948508400,7.25450830078125,-0.02387830371558666,-0.01562858096025884,-0.0070486033372581
1771956774968471600,7.274471435546875,-0.013407178583741188,-0.020989779199846088,-0.005945300004165619
1771956774988434400,7.294434326171875,-0.016109423279762267,-0.012933679320476949,-0.005975777340820059
1771956775008397600,7.3143974609375,-0.01700900246798992,-0.022307401137053966,-0.005381254646927118
1771956775028360700,7.334360595703125,-0.014762684845924377,-0.007763437075726688,0.01414148420765996
1771956775048323300,7.3543232421875,-0.010724223110079764,0.0015706103175878523,0.002147944414662197
1771956775068286500,7.374286376953125,-0.012375497448444366,-0.0034448797568678853,0.002100890402542427
1771956775088249300,7.394249267578125,-0.015070727881789207,-0.002777903748117387,-0.014730207348428666
1771956775108212500,7.41421240234375,-0.019109189617633818,0.00260192612670362,0.013755553629994392
1771956775128175600,7.434175537109375,-0.016868132692575453,0.001475223651714623,0.006672335637081414
1771956775148138500,7.454138427734375,-0.01941021839082241,-0.0011420827072113752,0.010916978336358442
1771956775168101600,7.4741015625,-0.01223112054169178,0.015746837045066058,0.0069387862872332335
1771956775188064500,7.494064453125,-0.022859482061862946,0.0018051497258245945,0.015292837066715583
1771956775208027600,7.514027587890625,-0.02120879224538803,0.0003632803544402122,-0.012197428334644064
1771956775227990300,7.533990234375,-0.001762333497405052,-0.010589015890471636,0.003891646276833489
1771956775247953400,7.553953369140625,-0.012684125006198883,-0.0020653350319713355,0.005003233381081372
1771956775267917300,7.573917236328125,0.005428454789519309,-0.00889868818335235,0.002135906916996464
1771956775287880400,7.59388037109375,-0.010883213064074516,-0.0001131415182724595,-0.0034906094615813343
1771956775307843300,7.61384326171875,-0.011769932770729064,0.0009040361676365137,0.007362318062083795
1771956775327806500,7.633806396484375,-0.012802198427915572,-0.007294650520198047,-0.012952018694765866
1771956775347769600,7.65376953125,-0.010103460863232612,-0.017612959710508583,-0.006411629741126671
1771956775367732500,7.673732421875,-0.01609188762307167,-0.006850779210217296,0.0015597875294741242
1771956775387695600,7.693695556640625,-0.010702595800161361,-0.004474807326495647,0.005540034538367763
1771956775407658500,7.713658447265625,-0.008160510101914405,-0.007311674720235168,-0.014090576004330068
1771956775427621600,7.73362158203125,-0.021474749705195424,-0.0030922669269144534,0.01335761295412667
1771956775447584500,7.75358447265625,-0.019231939214468002,-0.012920564110577105,-0.02630768628697842
1771956775467547400,7.77354736328125,-0.023123101434111594,-0.006921287163160741,0.0066155365490820255
1771956775487510500,7.793510498046875,-0.017431027272343635,-0.006727372026257217,-0.00878995797871612
1771956775507473400,7.813473388671875,-0.011146832436323166,-0.0017869564820080994,0.00008230798859149217
1771956775527436500,7.8334365234375,-0.011450199297070503,0.007141067393682896,0.010430984917702153
1771956775547399200,7.853399169921875,-0.009662731358408927,-0.0065672495611011975,-0.003840518877794966
1771956775567362000,7.873362060546875,-0.025669863307476042,-0.003513013089634478,0.014481137091340496
1771956775587325200,7.8933251953125,-0.027012510088086125,0.0006234656605869531,0.002026473459461704
1771956775607288000,7.9132880859375,-0.015339607951045036,-0.0019139438625425098,-0.003319262349512428
1771956775627252200,7.933252197265625,-0.008306056052446364,0.002247084807045758,-0.007936565152928232
1771956775647215000,7.953215087890625,-0.020137948143482208,-0.011552198366820811,-0.0003342551893554628
1771956775667178200,7.97317822265625,-0.013256956458091735,0.0012397709280252457,-0.0038930984484031794
1771956775687141000,7.99314111328125,-0.003825695767998695,-0.0004049640716984868,0.013660139564657583
1771956775707104000,8.01310400390625,-0.01639642352759838,0.004196099982969463,-0.002561192257516086
1771956775727067000,8.03306689453125,-0.02403086392879486,0.0012171937700361012,-0.012512038108613342
1771956775747030000,8.053030029296876,-0.026126374903321266,-0.007707213376462459,0.0009913125922903418
1771956775766993200,8.0729931640625,-0.005776245313882827,-0.02237999144922942,0.013615359708014875
1771956775786956000,8.0929560546875,-0.0030821839243173597,-0.0007328443191945552,-0.006779978996329009
1771956775806919200,8.112919189453125,-0.013709960922598838,0.002016454388946295,-0.010562630207045003
1771956775826882000,8.132882080078126,-0.009075871381163596,-0.0074683631192892785,-0.0009831932179164141
1771956775846845200,8.15284521484375,-0.011028759014606475,-0.004377667094953358,-0.0015315021499060094
1771956775866808000,8.17280810546875,-0.023448095604777335,0.00040799627900123595,-0.0001963354228530079
1771956775886771000,8.19277099609375,-0.018655016109347344,-0.005275967641547322,0.006243798893550411
1771956775906734000,8.212734130859374,-0.009079963034391403,-0.013539682389609516,0.0036281182361301034
1771956775926697000,8.232697021484375,-0.016270751321315766,-0.016492029389180242,0.016197302492614835
1771956775946660000,8.25266015625,-0.020011691415309906,0.004946735687181353,0.02416283801170066
1771956775966623000,8.272623046875,-0.012979893082380295,-0.01015084366891533,0.010140285742282866
1771956775986586000,8.292586181640624,-0.029585575446486472,0.010218648208118974,-0.003279980651894584
1771956776006550000,8.312550048828125,-0.024941549032926558,0.009303506124578417,-0.009082538583967834
1771956776026513200,8.33251318359375,-0.010878536888957024,-0.0031451296253129837,0.0017418386986479163
1771956776046476000,8.35247607421875,-0.01671498795747757,-0.0005833893785253167,0.006070981343602761
1771956776066439200,8.372439208984375,-0.025390461844205854,0.011701616774871944,0.002556607413943857
1771956776086402300,8.39240234375,-0.02210194169282913,0.0029661197965964673,-0.0010123919129371643
1771956776106365000,8.412364990234375,0.0030406828701496124,-0.0026141645537689326,-0.0029330760435201226
1771956776126328000,8.432328125,-0.02089899564385414,-0.0021785130828619,-0.008462753584655001
1771956776146291000,8.452291015625,-0.008178045758605004,-0.005917115089297294,0.00034466698551550507
1771956776166254000,8.472254150390626,-0.013711714488267898,-0.012091017951257527,-0.017743499888153744
1771956776186217000,8.492217041015625,-0.0017447978407144546,0.004702478602528572,-0.0024837979060597717
1771956776206180000,8.51218017578125,-0.009976619613170623,-0.004271795567683876,0.00753547353874892
1771956776226143200,8.532143310546875,-0.021496961537003517,-0.0024998539917171,-0.004401787756057456
1771956776246106000,8.552106201171876,-0.009068272596597671,0.0030413404572755096,-0.0073757620655465865
1771956776266069200,8.5720693359375,-0.01864858636856079,-0.003369330302625894,-0.007574873967375606
1771956776286032000,8.592031982421876,-0.021036942809820176,-0.011563888804614543,0.012624412441905587
1771956776305995000,8.6119951171875,0.0056014732688665385,-0.017212708346545695,0.010278178109321743
1771956776325958000,8.6319580078125,-0.007419920867681503,-0.0117762529136613,0.003385906978091225
1771956776345921000,8.651921142578125,-0.012356792747974394,0.01369585933201015,-0.007134984712768346
1771956776365884200,8.67188427734375,-0.01160977377295494,0.0028344197083264586,-0.009330658992985262
1771956776385848000,8.69184814453125,-0.03630465456843376,-0.002618000478670001,-0.002450790685601532
1771956776405811000,8.71181103515625,-0.005178279420733452,-0.018030454470217228,-0.006295985738513991
1771956776425774000,8.731774169921875,-0.029713585740327834,-0.0046851621415466066,-0.008211509636789559
1771956776445737200,8.7517373046875,0.0011140987217426299,-0.000897496828995645,0.007164439136115834
1771956776465700000,8.7717001953125,-0.013698270484805106,-0.01243055210392922,0.0037091293167788534
1771956776485663200,8.791663330078125,-0.007871171766519545,0.0015816431682556867,0.011541110717225819
1771956776505625900,8.8116259765625,-0.019397358909249304,0.0036450785040855406,0.007631024601403623
1771956776525589000,8.831589111328125,-0.019092238482832907,0.00647376259136945,0.00002445858782157302
1771956776545552400,8.851552490234376,-0.00008767828345298767,-0.0160428243169561,-0.013971497935615479
1771956776565515500,8.871515625,-0.003381459131836891,-0.022309154702723023,0.009002331220917403
1771956776585478700,8.891478759765626,-0.019099252745509148,-0.009969751480966805,0.003476106012193486
1771956776605441500,8.911441650390625,-0.01147474921643734,0.0029506664991378784,0.010962625842681154
1771956776625404700,8.93140478515625,-0.017458499801158905,0.01669003617931157,0.000889578384021297
1771956776645367600,8.951367431640625,-0.018508885636925695,-0.014469291389919817,-0.008780861356807872
1771956776665330700,8.97133056640625,-0.02570142748951912,-0.006142923201806843,-0.01597131171701476
1771956776685293600,8.99129345703125,-0.022259178081154823,-0.011272723838314413,-0.003313755057333037
1771956776705256400,9.01125634765625,-0.019711247164011,0.0031207623690366745,-0.007537875558389351
1771956776725219600,9.031219482421875,-0.018209610429406164,-0.0019037147294729947,-0.009644337185192853
1771956776745182500,9.051182373046874,-0.015669862818717954,0.00038878012187778946,0.007904005457041785
1771956776765145600,9.0711455078125,-0.014319617253541946,-0.0007092442478984594,-0.017224800643138586
1771956776785108500,9.0911083984375,-0.015212766700983047,-0.006715754653699696,-0.019341518802475182
1771956776805072600,9.11107275390625,-0.012810381734371185,-0.0016523703169077633,-0.015921965283108873
1771956776825035500,9.131035400390624,-0.011024667361378668,0.0012400997215881943,-0.0012905056014191358
1771956776844998700,9.15099853515625,-0.007135258707404136,-0.01932637603227049,0.0027322836412582547
1771956776864961500,9.17096142578125,-0.015517887127399444,0.010780958265997469,-0.01028724733176641
1771956776884924700,9.190924560546875,-0.017619243320822715,0.0007342690913006663,0.0032271179534960536
1771956776904887600,9.210887451171875,-0.007893968120217323,-0.0018725158736109732,-0.011957966156117618
1771956776924850400,9.230850341796875,-0.021517419803142545,0.0047694794241338965,-0.018724373284820465
1771956776944813600,9.2508134765625,-0.015825930163264272,-0.0028933468213304878,-0.001603343543410301
1771956776964776400,9.2707763671875,-0.023753800553083418,0.0010241188833490014,-0.007191107947332784
1771956776984739600,9.290739501953125,-0.008786533045768737,-0.0010974398478865624,0.004696359388995915
1771956777004702500,9.310702392578126,-0.010282324561476706,-0.003077763477526605,0.012965298301447182
1771956777024665600,9.33066552734375,-0.00519055438041687,-0.006289345935173332,0.005790547833871096
1771956777044628700,9.350628662109376,-0.0026350246787071228,-0.013774952450208365,-0.010349097054218872
1771956777064591600,9.370591552734375,-0.0039794250249862665,-0.005051218974962831,-0.0037738103171344843
1771956777084554800,9.3905546875,-0.02373626489639282,-0.015342895886674522,-0.0019437727452255784
1771956777104517400,9.410517333984375,-0.012215338450670242,0.0022392668267711994,0.0057321687101386486
1771956777124480500,9.43048046875,-0.011776362511515617,-0.011467442692816257,0.00014898914978839456
1771956777144443400,9.450443359375,-0.0291354935914278,-0.00039889965709298845,0.013725286355894059
1771956777164406500,9.470406494140626,-0.005189969858527183,-0.004352569186314941,-0.002581796654127538
1771956777184369700,9.49036962890625,-0.01849953328669071,0.00041877340134233236,-0.011017141642048955
1771956777204332500,9.51033251953125,-0.022386603853106497,-0.008149038859829306,0.008151550477324054
1771956777224296400,9.53029638671875,-0.02044014596045017,-0.008894194671325385,-0.005748928048694506
1771956777244259600,9.550259521484374,-0.014451719200611113,-0.0035769817039370535,0.001408140631718561
1771956777264222700,9.57022265625,-0.009662731358408927,-0.005688238236866891,0.00034337007757276295
1771956777284185600,9.590185546875,-0.003678396251797676,0.0015675415776669978,-0.006196105560613795
1771956777304148700,9.610148681640625,-0.01984451815485954,-0.004118468169495463,-0.0033317291054408994
1771956777324111400,9.630111328125,-0.013862521135807037,-0.010007526208087801,-0.017975646409904584
1771956777344074500,9.650074462890625,-0.013709376400709152,0.0063068450592458246,-0.002244792385259643
1771956777364037600,9.67003759765625,-0.005627192232012748,-0.01276559274457395,-0.004137711726082489
1771956777384000500,9.69000048828125,-0.005029810860753059,-0.018888897930458188,0.012206561489170417
1771956777403963600,9.709963623046875,-0.019393267256021498,-0.01264488897435367,0.005455708122625947
1771956777423926500,9.729926513671876,-0.025975568255782126,-0.005908493391424417,0.010090802311059088
1771956777443889700,9.7498896484375,-0.013705869269371031,0.003324029856175184,0.007885172892408445
1771956777463852500,9.7698525390625,-0.027184359523653983,-0.00006411474477499723,0.008727925593173131
1771956777483815700,9.789815673828125,-0.021647183662652968,-0.008483129652403295,0.0019224102967884391
1771956777503778600,9.809778564453126,0.011566519153118134,-0.006176277482137084,-0.01002476047067903
1771956777523741400,9.829741455078125,-0.018205518776178358,-0.0058333457959815855,-0.013324213008023798
1771956777543704600,9.84970458984375,-0.02837619965672493,-0.0008008680541068315,0.006186287419497966
1771956777563667700,9.869667724609375,-0.025535423272848128,0.01553264630511403,-0.000867110823886469
1771956777583630800,9.889630859375,-0.007726210337877273,-0.017452544984407722,0.004339079517079517
1771956777603593700,9.90959375,-0.010263035339117049,-0.012188085117563604,0.02371744146491401
1771956777623556900,9.929556884765624,-0.009653379008173943,-0.018700754947215317,-0.004060573102952912
1771956777643520800,9.949520751953125,-0.006067337214946746,-0.011876827211305499,-0.008839998532366007
1771956777663484000,9.96948388671875,-0.007409399473667144,0.007369177061133087,0.020391831573005764
1771956777683446800,9.98944677734375,-0.007262684479355811,-0.00620082740150392,0.016318873912515117
1771956777703410000,10.009409912109374,-0.012645546561479568,-0.007098178100027144,0.0031459059434477236
1771956777723373000,10.029373046875,-0.01654021591246128,-0.00786167328581214,-0.00889999422444962
1771956777743336000,10.0493359375,-0.017436287969350813,-0.021596805182285607,0.0021064616268035023
1771956777763298800,10.069298828125,-0.014589666366577148,-0.005652217075414956,-0.018798333570174873
1771956777783261700,10.08926171875,-0.009798924958705902,-0.003267221635021269,-0.016274258452653883
1771956777803224800,10.109224853515625,-0.02056874077618122,-0.013235767539590597,-0.00004597629988566041
1771956777823187700,10.129187744140625,-0.02820493474304676,0.001983282771706581,-0.006831645251484587
1771956777843150800,10.14915087890625,-0.017129998499155044,0.002746558761782944,0.005419212037138641
1771956777863114000,10.169114013671875,-0.01338613579571247,-0.003774550102651119,0.013069124002102762
1771956777883076900,10.189076904296876,-0.016383564046025274,-0.010680858892388642,-0.0036602943395264444
1771956777903040000,10.2090400390625,-0.014143091642856598,-0.01526234146375209,-0.005899077109107747
1771956777923003000,10.2290029296875,-0.009506079491972923,-0.014295761453919111,0.01276296239607036
1771956777942966000,10.248966064453125,-0.016385317611694334,-0.0037205183604732154,-0.0077900419548619535
1771956777962929000,10.268928955078126,-0.012044073536992073,0.008158500807918608,-0.001815104864258319
1771956777982891800,10.288891845703125,-0.009942132821679115,0.003399981169216335,-0.01970447949650697
1771956778002855000,10.30885498046875,-0.02340776359438896,-0.015624562372267245,-0.016678044347418472
1771956778022817800,10.32881787109375,-0.01906593499779701,-0.019848609808087347,0.007017870272276923
1771956778042781000,10.348781005859376,-0.016669979771971703,-0.019470095351897178,0.0006363616747781634
1771956778062743800,10.368743896484375,-0.004400280785560607,-0.009028305912390351,-0.001008811716362834
1771956778082707000,10.38870703125,-0.02788870840072632,0.005683196735568345,-0.007981628137361257
1771956778102670000,10.408670166015625,-0.03238075912296772,-0.006983575277030468,-0.01175491786468774
1771956778122634000,10.428634033203124,-0.013669628912210463,0.004551489291898906,-0.020910083293449132
1771956778142596900,10.448596923828125,-0.01398001003563404,0.007660890016704797,0.009329033291479572
1771956778162559700,10.468559814453124,-0.014880758267641066,-0.015451288164593279,-0.006928429290000349
1771956778182523000,10.48852294921875,-0.0012619827598333358,-0.003959514748118818,0.006587579963076859
1771956778202485800,10.50848583984375,-0.01398527073264122,-0.002002024004794657,-0.030429004000686107
1771956778222449000,10.528448974609375,0.042671851512789724,0.028668131808005273,-0.016105112430825828
1771956778242411800,10.548411865234375,-0.06745324154794216,0.0002373524198308587,0.011271362998289987
1771956778262375000,10.568375,0.017239304092526435,-0.03114197457563132,-0.002897338009858504
1771956778282337800,10.588337890625,-0.10231120443940162,-0.046544857021234926,-0.0030565562927164134
1771956778302301000,10.608301025390626,-0.02508008072078228,-0.002142016997374594,-0.01527358437697403
1771956778322264000,10.62826416015625,0.016236849051713943,-0.01961436266079545,-0.0188636721576564
1771956778342227000,10.64822705078125,0.0012877017229795456,0.013231931614689527,0.004029903970053419
1771956778362189800,10.66818994140625,-0.020415596041083336,0.024505020779184997,-0.036185019377293064
1771956778382152700,10.688152587890626,-0.01906301238834858,-0.016718056697398422,0.003369805226661265
1771956778402115800,10.70811572265625,-0.02937339400053024,-0.013395963069982825,-0.007761893572611734
1771956778422078700,10.72807861328125,-0.012758359286189078,-0.006892682123184204,0.02089255676991306
1771956778442041900,10.748041748046875,-0.020389877077937126,0.0012164265850558877,-0.002460535761481151
1771956778462005000,10.7680048828125,0.006235094997286797,0.0042929114209488035,-0.011080991525342688
1771956778481967900,10.7879677734375,-0.008591302734613417,0.026168460479378697,-0.003291470160288736
1771956778501931000,10.807930908203126,-0.018029577687382697,0.01637801108807325,-0.016895130297355353
1771956778521894000,10.827893798828125,-0.03898176482319832,-0.03083217797409743,0.021608276424370704
1771956778541856800,10.847856689453126,-0.03433949197530746,-0.02803461967743933,0.007812984439032151
1771956778561819100,10.867819091796875,-0.015925298884510993,-0.023520393656007943,0.002607826144527644
1771956778581782000,10.887781982421876,-0.0114198041588068,-0.018712262721918522,-0.00776308088270016
1771956778601745200,10.9077451171875,0.002049333745241165,0.012002170624025166,-0.005236110555194318
1771956778621708000,10.9277080078125,-0.013968319597840308,-0.0021239333514124154,-0.012680672673787922
1771956778641672200,10.947672119140625,-0.00215630125105381,0.00869534763097763,0.007949324169801548
1771956778661635000,10.967635009765624,-0.021768179693818092,-0.008053359933011234,0.014555179575085639
1771956778681598200,10.98759814453125,-0.035542438024282454,-0.0015604907823726533,-0.0069517371003516015
1771956778701561000,11.00756103515625,-0.010703180322051047,0.01399433082193136,0.0045247200159821655
1771956778721524000,11.02752392578125,-0.011309914043545722,-0.015023272010870278,-0.008442240519588813
1771956778741487000,11.047487060546874,-0.0054775546282529826,0.007300020815059542,0.005564502259343862
1771956778761450000,11.067449951171875,-0.0054833998471498484,0.0024337664855644107,-0.0009939886065665632
1771956778781413000,11.0874130859375,-0.014458733463287353,-0.007537665495835244,-0.0008476663378998636
1771956778801376000,11.1073759765625,-0.04287058895528316,-0.007714666030555963,0.01700645431787707
1771956778821339100,11.127339111328125,-0.03388414942324161,-0.020273447624035178,-0.017113412690535186
1771956778841302300,11.14730224609375,-0.003807575589418411,-0.011538133308850227,0.004752738351887092
1771956778861265200,11.16726513671875,-0.004842763856053352,0.012776406399533152,-0.001813396964361891
1771956778881228300,11.187228271484376,-0.0011035773277282715,0.00046217415165156125,-0.004818652328103781
1771956778901191000,11.20719091796875,-0.005600888746976852,0.004272526220045984,-0.0032534214385319497
1771956778921154000,11.227154052734376,-0.024618308427929878,0.004054937946610153,-0.0033351997041609137
1771956778941117000,11.247116943359375,-0.013398995277285575,-0.020179814523831007,-0.0021201156928203997
1771956778961080000,11.267080078125,-0.0074526540935039515,0.005335917667858302,0.008442368383752182
1771956778981043200,11.287043212890625,0.1478121418982744,0.14106979149859397,-0.11093616284844465
1771956779001006000,11.307006103515626,-0.06968319255709647,-0.08700337986610829,0.05027251750854775
1771956779020969200,11.32696923828125,0.21614625793397424,-0.2373201249964535,0.21242493585590272
1771956779040932000,11.34693212890625,-0.6324240430682897,0.04991301828008145,-0.08984754465031437
1771956779060895200,11.366895263671875,0.2750169645756483,0.03213339676577598,0.014813474318245425
