time,seconds_elapsed,z,y,x
1771956794566606300,0.0736064453125,-0.00027993135154247284,-0.010614241473376751,-0.0059931641444563866
1771956794586569000,0.09356884765625,0.0016558673232793808,-0.00026017287746071815,0.00208706920966506
1771956794606532000,0.113531982421875,0.0016250004991889,0.000014949124306440353,0.006028979085385799
1771956794626495200,0.1334951171875,0.0008328305557370186,0.00005302298814058304,0.007832229137420654
1771956794646458000,0.1534580078125,0.001456754980608821,0.018472125753760338,0.019223572686314583
1771956794666421200,0.173421142578125,-0.0016331342048943043,-0.005056693684309721,-0.00676266523078084
1771956794686384000,0.193384033203125,0.0025262972339987755,-0.01309323962777853,-0.014432492665946484
1771956794706347300,0.21334716796875,-0.0006739110685884953,-0.0031891358084976673,-0.012882990762591362
1771956794726310100,0.23331005859375,0.0011572674848139286,-0.011277073994278908,-0.008915095590054989
1771956794746273300,0.253273193359375,0.0007555515039712191,0.0015694070607423782,0.001921497518196702
1771956794766236200,0.273236083984375,-0.000452341977506876,0.003928428515791893,0.007274475879967213
1771956794786199000,0.293198974609375,-0.002371230162680149,-0.002747721504420042,-0.001119237276725471
1771956794806162200,0.313162109375,-0.0007421518675982952,0.007614123169332743,0.005661336239427328
1771956794826125000,0.333125,0.0011823729146271944,-0.0014883875846862793,0.0002697919844649732
1771956794846088200,0.353088134765625,0.001151946373283863,0.003705355804413557,0.0095737986266613
1771956794866051000,0.373051025390625,-0.000432728324085474,0.005405812058597803,0.0041029551066458225
1771956794886014200,0.39301416015625,-0.0018619857728481293,0.004298423882573843,0.006041217129677534
1771956794905977300,0.412977294921875,0.0024292003363370895,-0.013091549277305603,-0.006864347495138645
1771956794925940200,0.432940185546875,-0.002356648910790682,-0.0013424931094050407,-0.0042578354477882385
1771956794945903400,0.4529033203125,0.000536896288394928,-0.0034335036762058735,-0.01086364220827818
1771956794965866000,0.472865966796875,-0.0005667926743626595,0.001157914288341999,-0.0022368263453245163
1771956794985829000,0.4928291015625,0.00023778341710567474,-0.0004930435679852962,-0.0050972141325473785
1771956795005792300,0.512792236328125,0.0005699140019714832,0.0035572941415011883,-0.001329259597696364
1771956795025755100,0.532755126953125,-0.002707530278712511,0.0007021916098892689,0.004083690233528614
1771956795045718300,0.55271826171875,-0.0004064207896590233,-0.004747957922518253,-0.0014786116080358624
1771956795065681200,0.57268115234375,-0.002309936098754406,0.0007374286651611328,0.0017470846651121974
1771956795085644300,0.592644287109375,0.0001222454011440277,0.004444225691258907,0.004656145349144936
1771956795105607200,0.612607177734375,-0.0008679390884935856,0.006009881384670734,0.004320688080042601
1771956795125570300,0.6325703125,-0.00017870962619781494,0.0022180723026394844,-0.0010687510948628187
1771956795145533200,0.652533203125,-0.0007199631072580814,-0.00502561591565609,-0.003941363655030727
1771956795165496000,0.67249609375,0.0015563101042062044,-0.004683178849518299,-0.0015639467164874077
1771956795185459200,0.692459228515625,0.0014408847782760859,-0.004443570971488953,-0.0007711993530392647
1771956795205422000,0.712422119140625,-0.0004661041311919689,0.0008544125594198704,-0.0029735066927969456
1771956795225385200,0.73238525390625,0.0012570454273372889,0.00006990274414420128,-0.0009810192277655005
1771956795245348000,0.75234814453125,0.0016861448530107737,0.0021415292285382748,-0.0007828670786693692
1771956795265311200,0.772311279296875,0.0008631660602986813,-0.00008075125515460968,0.001509087742306292
1771956795285274400,0.7922744140625,0.003924124874174595,-0.002597498707473278,0.003266863524913788
1771956795305237200,0.8122373046875,-0.0017024283297359943,-0.0015322831459343433,0.0003784360596910119
1771956795325200100,0.8322001953125,-0.0008828225545585155,-0.0004883976653218269,0.0014499637763947248
1771956795345163000,0.8521630859375,-0.0022699497640132904,0.004522679839283228,0.004252003971487284
1771956795365126100,0.872126220703125,0.0007201037369668484,0.005282801575958729,0.004319557920098305
1771956795385089300,0.89208935546875,0.0009445981122553349,0.0012230402790009975,-0.0009625665843486786
1771956795405052200,0.91205224609375,0.002540211658924818,-0.0013523469679057598,-0.004466094542294741
1771956795425015300,0.932015380859375,0.00137757183983922,-0.0036065394524484873,-0.0037819030694663525
1771956795444978200,0.951978271484375,0.0023378166370093822,-0.003892146283760667,0.000057461264077574015
1771956795464941300,0.97194140625,0.0002833879552781582,-0.004826915916055441,0.0016556242480874062
1771956795484904200,0.991904296875,0.0005179147701710463,0.001129325944930315,-0.0002881656982935965
1771956795504867000,1.0118671875,-0.0013189814053475857,0.003739674109965563,-0.001108470605686307
1771956795524830200,1.031830322265625,0.00018082605674862862,0.0006511425599455833,-0.00276084803044796
1771956795544793000,1.05179296875,-0.0008170134387910366,-0.0006394647061824799,0.000021344807464629412
1771956795564756500,1.071756591796875,0.0007793230470269918,-0.0012216842733323574,0.0036366230342537165
1771956795584719400,1.09171923828125,0.00010533258318901062,-0.0009097638539969921,0.002389617031440139
1771956795604682500,1.1116826171875,-0.0007170350290834904,0.0015657716430723667,0.003668771591037512
1771956795624645400,1.131645263671875,0.00004770653322339058,0.0017598522827029228,-0.0008536945679225028
1771956795644608500,1.1516083984375,0.0008346764370799065,0.0015599955804646015,-0.001948369201272726
1771956795664571600,1.171571533203125,-0.00009012408554553986,0.00006675301119685173,-0.001473716925829649
1771956795684534500,1.191534423828125,0.001834467751905322,-0.001966176088899374,-0.0016478492179885507
1771956795704497700,1.21149755859375,0.00006298767402768135,-0.003629019483923912,-0.0012339298846200109
1771956795724460300,1.231460205078125,0.0005348087288439274,-0.0034945006482303143,0.0026620966382324696
1771956795744423400,1.25142333984375,-0.00006396090611815453,0.0014502187259495258,-0.0031917092856019735
1771956795764386300,1.27138623046875,0.0005191697273403406,0.0036825910210609436,-0.001096993568353355
1771956795784349400,1.291349365234375,-0.0008374443277716637,0.0031579481437802315,-0.0016274952795356512
1771956795804312600,1.3113125,0.0008754373993724585,-0.00007694726809859276,0.0024010560009628534
1771956795824275500,1.331275390625,-0.0010678605176508427,0.0007677245885133743,0.00259221950545907
1771956795844238600,1.351238525390625,0.0019933951552957296,-0.0023016887716948986,0.002267517615109682
1771956795864201500,1.371201416015625,0.00013819057494401932,0.0030780420638620853,-0.0020212996751070023
1771956795884164600,1.39116455078125,0.00024349521845579147,0.0011153677478432655,-0.0006475659320130944
1771956795904127200,1.411127197265625,0.0010516264010220766,0.00025640521198511124,-0.0019596796482801437
1771956795924090400,1.43109033203125,0.0014667974319308996,-0.00016367435455322266,-0.0014759998302906752
1771956795944053500,1.451053466796875,0.0025898595340549946,-0.0016452781856060028,-0.0008200618322007358
1771956795964016400,1.471016357421875,0.0014585950411856174,-0.0023690019734203815,-0.0005398344364948571
1771956795983979500,1.4909794921875,-0.00008559692651033401,-0.0008459123782813549,-0.001794894109480083
1771956796003942400,1.5109423828125,-0.0005218600854277611,0.0004881294444203377,-0.0005752802826464176
1771956796023905500,1.530905517578125,-0.0004558870568871498,0.0016659065149724483,0.0015214647864922881
1771956796043868400,1.550868408203125,-0.0011770348064601421,0.0024810368195176125,0.0008171726367436349
1771956796063831600,1.57083154296875,0.0006104155909270048,0.0010757320560514927,-0.000060351507272571325
1771956796083794700,1.590794677734375,-0.0015119216404855251,-0.0017532971687614918,0.004820676986128092
1771956796103757300,1.61075732421875,0.000016934704035520554,-0.0006086248904466629,0.0009074154659174383
1771956796123720400,1.630720458984375,0.0005381603259593248,-0.001883631106466055,0.0013706545578315854
1771956796143683300,1.650683349609375,-0.0002570594660937786,0.0003374451771378517,-0.00033962755696848035
1771956796163646500,1.670646484375,-0.0014834892936050892,0.0007114680483937263,-0.0009332091431133449
1771956796183609600,1.690609619140625,0.0013616124633699656,0.002160215750336647,0.000979739474132657
1771956796203572500,1.710572509765625,0.0018667797558009624,-0.002181725576519966,-0.0003043723409064114
1771956796223535600,1.73053564453125,-0.0004773424006998539,-0.0030704252421855927,-0.000013319251593202353
1771956796243498500,1.75049853515625,0.0004532954189926386,0.00003096507862210274,0.002368438523262739
1771956796263461600,1.770461669921875,-0.0008918331004679203,0.0011252849362790585,0.0014612235827371478
1771956796283424300,1.79042431640625,-0.001366207841783762,0.0017131362110376358,-0.002011076081544161
1771956796303387400,1.810387451171875,0.0011496103834360838,0.002096007112413645,0.0004218861577101052
1771956796323350500,1.8303505859375,-0.0007521193474531174,0.001944690477102995,-0.000551158154848963
1771956796343314400,1.850314453125,0.0018530585803091526,0.0022369390353560448,0.0008026154828257859
1771956796363277300,1.87027734375,0.00022982154041528702,-0.002807335462421179,0.00047377683222293854
1771956796383240400,1.890240478515625,-0.00009953277185559273,-0.001130551565438509,-0.0014177258126437664
1771956796403203600,1.91020361328125,-0.0015599154867231846,0.0008817850612103939,-0.0029849112033843994
1771956796423166500,1.93016650390625,0.0006081461906433105,0.00005263136699795723,-0.0012604265939444304
1771956796443129600,1.950129638671875,0.002412277739495039,0.003642262425273657,0.0011187444906681776
1771956796463092500,1.970092529296875,0.000030965544283390045,0.001639336347579956,0.000810244819149375
1771956796483055600,1.9900556640625,-0.0014504007995128632,-0.00012091733515262604,0.00032786751398816705
1771956796503018500,2.0100185546875,0.0007262926083058119,-0.0017692935653030872,0.0013389377854764462
1771956796522981400,2.0299814453125,0.002615544479340315,0.0018119509331882,-0.001667063683271408
1771956796542944500,2.049944580078125,-0.00009545264765620232,-0.0010742112062871456,-0.0030932442750781775
1771956796562907400,2.069907470703125,-0.0001404453068971634,0.0014741383492946625,-0.0014371015131473541
1771956796582870300,2.089870361328125,-0.00108379777520895,0.0014042779803276062,0.000029609655030071735
1771956796602833200,2.109833251953125,0.0005668331868946552,-0.0008330862037837505,0.0005134936654940248
1771956796622796300,2.12979638671875,-0.0013767434284090996,-0.002217552624642849,0.00104138208553195
1771956796642759400,2.149759521484375,-0.00031199539080262184,-0.0009479806758463383,-0.0011777342297136784
1771956796662722300,2.169722412109375,0.0013367731589823961,-0.000003471504896879196,0.0008164732716977596
1771956796682685400,2.189685546875,-0.00003312667831778526,0.003797164186835289,0.0009425236494280398
1771956796702648300,2.2096484375,0.0008992135990411043,0.0026854355819523335,-0.0005642081960104406
1771956796722611500,2.229611572265625,-0.0013482817448675632,-0.0025422628968954086,0.0030649155378341675
1771956796742574300,2.24957421875,-0.0005150577053427696,0.002226572483778,-0.0013819450978189707
1771956796762537200,2.269537109375,0.0015232011210173368,-0.0024799867533147335,0.00027531356317922473
1771956796782500400,2.289500244140625,-0.000401962548494339,-0.0018365862779319286,0.00027257262263447046
1771956796802463200,2.309463134765625,-0.0006083743646740913,0.0008447617292404175,-0.00222146138548851
1771956796822426400,2.32942626953125,0.0008313648868352175,0.002921616192907095,0.0015773988561704755
1771956796842389200,2.34938916015625,0.00032605044543743134,-0.0003638407215476036,0.0006986110238358378
1771956796862352400,2.369352294921875,-0.00009001325815916061,-0.0012548789381980896,0.0028389906510710716
1771956796882315500,2.3893154296875,0.0022694491781294346,-0.0036589503288269043,0.00022940424969419837
1771956796902278400,2.4092783203125,-0.00008315406739711761,-0.0020713983103632927,-0.0006009466014802456
1771956796922241500,2.429241455078125,0.00007879454642534256,-0.00042111705988645554,0.0005276418523862958
1771956796942204200,2.4492041015625,-0.0010265558958053589,0.0009228121489286423,0.00021378457313403487
1771956796962167300,2.469167236328125,-0.0005910396575927734,0.0006884834729135036,-0.00028179032960906625
1771956796982130200,2.489130126953125,0.0002354760654270649,-0.0005067531019449234,0.0014930724864825606
1771956797002093300,2.50909326171875,-0.00005798088386654854,-0.0037007443606853485,-0.00221815868280828
1771956797022056400,2.529056396484375,-0.0006048004142940044,-0.001558869145810604,0.00001573807094246149
1771956797042019300,2.549019287109375,0.0006392616778612137,-0.003029793966561556,0.0018559759482741356
1771956797061982500,2.568982421875,-0.0010148403234779835,0.002324940636754036,-0.00045926461461931467
1771956797081945300,2.5889453125,-0.0008129295893013477,0.001304971519857645,0.0005565399769693613
1771956797101908500,2.608908447265625,-0.0015490446239709854,-0.000054745934903621674,-0.001062810537405312
1771956797121871400,2.628871337890625,-0.00032057985663414,0.003556526266038418,-0.0013614831259474158
1771956797141834200,2.648834228515625,-0.0002855476923286915,-0.0012867278419435024,-0.0008157786796800792
1771956797161797400,2.66879736328125,-0.0016029216349124908,-0.0029027126729488373,0.0009129904792644083
1771956797181760300,2.68876025390625,-0.0010685380548238754,-0.001579920295625925,-0.0012722378596663475
1771956797201723400,2.708723388671875,-0.0008690478280186653,0.0022498872131109238,-0.00046080281026661396
1771956797221686300,2.728686279296875,-0.0008507776074111462,0.002820401918143034,0.0004861719789914787
1771956797241649400,2.7486494140625,0.0014713527634739876,-0.0011541550047695637,0.00011588487541303039
1771956797261612300,2.7686123046875,0.0008646589703857899,-0.0009320010431110859,0.000787737313657999
1771956797281575400,2.788575439453125,-0.0018563405610620975,-0.0018947706557810307,0.0006890224176459014
1771956797301538600,2.80853857421875,-0.0006055128760635853,-0.0028823171742260456,0.0005629450897686183
1771956797321501200,2.828501220703125,0.0004543561954051256,-0.002360097598284483,0.0007181187393143773
1771956797341464300,2.84846435546875,-0.0007051704451441765,0.0018123425543308258,-0.0013269376941025257
1771956797361427200,2.86842724609375,0.002216396387666464,0.00327921099960804,-0.0021772778127342463
1771956797381390300,2.888390380859375,-0.0003803446888923645,-0.00002174079418182373,-0.00120558962225914
1771956797401353500,2.908353515625,0.0030676908791065216,-0.000518476590514183,0.0007715245010331273
1771956797421316400,2.92831640625,-0.00025331880897283554,-0.0033552302047610283,-0.0006419858545996249
1771956797441279500,2.948279541015625,-0.00013063475489616394,-0.000237172469496727,-0.0020660455338656902
1771956797461242400,2.968242431640625,-0.0018945629708468914,-0.0011410396546125412,-0.0007832777337171137
1771956797481205500,2.98820556640625,0.000024916138499975204,0.002002913039177656,0.00012536690337583423
1771956797501168000,3.008168212890625,0.00212702713906765,0.003349184524267912,-0.00006495072739198804
1771956797521131300,3.02813134765625,0.0013049994595348835,0.0013405759818851948,0.0005270835245028138
1771956797541094400,3.048094482421875,0.0009495231788605452,-0.000833005178719759,-0.0009247200796380639
1771956797561057300,3.068057373046875,-0.0007806755602359772,-0.002476376947015524,0.0026018163189291954
1771956797581019600,3.08801953125,-0.0007580528035759926,0.001153530552983284,0.0007587714353576303
1771956797600982800,3.107982666015625,0.000447199447080493,0.0008239750750362873,-0.0007242468418553472
1771956797620945700,3.127945556640625,0.001333603635430336,0.003038295079022646,-0.0026299585588276386
1771956797640908800,3.14790869140625,-0.0015721763484179974,0.0009134220890700817,-0.0033184990752488375
1771956797660871400,3.167871337890625,-0.0012368690222501755,-0.0015791580080986023,0.001772404182702303
1771956797680834600,3.18783447265625,0.00020548468455672264,-0.00104207219555974,-0.0004064462846145034
1771956797700797400,3.20779736328125,0.0007510758005082607,-0.001426182221621275,0.001914828084409237
1771956797720760600,3.227760498046875,0.0010892001446336508,-0.00018249684944748878,-0.0003671314916573465
1771956797740723700,3.2477236328125,0.0019790956284850836,0.003974272403866053,-0.0028127538971602917
1771956797760686600,3.2676865234375,-0.0004455959424376488,0.0035688821226358414,-0.0010422501945868134
1771956797780649700,3.287649658203125,-0.00007779151201248169,0.00044610584154725075,-0.00001613085623830557
1771956797800612600,3.307612548828125,-0.0014351238496601582,-0.0004949797876179218,0.00006568751996383071
1771956797820575700,3.32757568359375,0.0007487637922167778,-0.0023930147290229797,0.0006429397617466748
1771956797840538600,3.34753857421875,0.000434377696365118,-0.0007189246825873852,0.002037357073277235
1771956797860501500,3.36750146484375,0.0011404694523662329,0.0010552550666034222,-0.000863201916217804
1771956797880464600,3.387464599609375,-0.0006008278578519821,0.0027942988090217113,-0.003260633908212185
1771956797900427500,3.407427490234375,-0.00030971458181738853,0.0034645437262952328,0.00040037796134129167
1771956797920390700,3.427390625,-0.002755794208496809,-0.0010544364340603352,0.0005370237049646676
1771956797940353500,3.447353515625,-0.00015896232798695564,-0.00342062721028924,0.0002665511565282941
1771956797960316700,3.467316650390625,0.0010953801684081554,-0.0007648696191608906,0.0009053458925336599
1771956797980279800,3.48727978515625,-0.0026871701702475548,0.0007734471000730991,0.0016684073489159346
1771956798000242700,3.50724267578125,-0.0011622216552495956,-0.0008062859997153282,-0.0023076850920915604
1771956798020205600,3.52720556640625,0.0009050457738339901,0.0017334525473415852,0.0013459210749715567
1771956798040168400,3.54716845703125,-0.00028154952451586723,0.0013411398977041245,0.002795338863506913
1771956798060131600,3.567131591796875,0.000023616943508386612,0.0014003477990627289,-0.00016793003305792809
1771956798080094500,3.587094482421875,-0.0024932255037128925,-0.0015676007606089115,-0.0008072091150097549
1771956798100057600,3.6070576171875,-0.0009407186880707741,-0.002284702379256487,0.00228787655942142
1771956798120020700,3.627020751953125,-0.0005516358651220798,-0.000039424747228622437,0.0010951680596917868
1771956798139983600,3.646983642578125,-0.0007902621291577816,0.004317309241741896,0.001718464307487011
1771956798159946800,3.66694677734375,0.0014273878186941147,-0.0015015383251011372,0.0015574677381664515
1771956798179909600,3.68690966796875,0.0017871458549052477,-0.0007013082504272461,-0.0017228384967893362
1771956798199872500,3.70687255859375,-0.0034677209332585335,-0.0005271858535706997,0.001471556955948472
1771956798219835400,3.72683544921875,0.000989965396001935,-0.002944039646536112,-0.00038100610254332423
1771956798239798500,3.746798583984375,0.001276831142604351,-0.0007100142538547516,-0.0009437602711841464
1771956798259761700,3.76676171875,0.0014066083822399378,0.0006403373554348946,-0.0004069572314620018
1771956798279724500,3.786724609375,-0.0004820898175239563,0.004446039907634258,-0.0009548520902171731
1771956798299687700,3.806687744140625,-0.0015688827261328697,0.0005313497968018055,-0.0008171653607860208
1771956798319650600,3.826650634765625,0.00041991774924099445,-0.0013168943114578724,0.001512985210865736
1771956798339613700,3.84661376953125,-0.0033432412892580032,-0.0011748229153454304,0.0001462870859540999
1771956798359576600,3.86657666015625,-0.0005667959339916706,-0.001217107754200697,-0.002557557774707675
1771956798379539500,3.88653955078125,0.002016655635088682,-0.0028632120229303837,0.0013058797921985388
1771956798399502600,3.906502685546875,-0.00015181489288806915,0.00017496757209300995,0.0002749896375462413
1771956798419465500,3.926465576171875,0.0013787506613880396,0.0023453370667994022,0.0011507312301546335
1771956798439428600,3.9464287109375,-0.001065678894519806,0.0006259409710764885,-0.000059615063946694136
1771956798459391500,3.9663916015625,0.0010916024912148714,-0.002273392863571644,0.0014148167101666331
1771956798479354600,3.986354736328125,-0.0009389589540660381,-0.0017160261049866676,0.00009433989180251956
1771956798499317800,4.00631787109375,-0.0001777028664946556,-0.0019389833323657513,-0.0020094611681997776
1771956798519280600,4.02628076171875,0.0006058500148355961,-0.0009758947417140007,-0.0008909085881896317
1771956798539243800,4.046243896484375,-0.00043933093547821045,0.0006309431046247482,-0.0009566203225404024
1771956798559206400,4.066206298828125,-0.00045797042548656464,0.0039733839221298695,0.0003508133231662214
1771956798579170300,4.08617041015625,0.002558076987043023,0.001334682572633028,-0.0006292714970186353
1771956798599133200,4.10613330078125,-0.00022124033421278,-0.002350775059312582,0.0011773902224376798
1771956798619096300,4.126096435546875,-0.0008041844703257084,-0.0025304239243268967,-0.0021519451402127743
1771956798639059200,4.14605908203125,-0.001089844387024641,-0.00019159074872732162,-0.0009847249602898955
1771956798659022300,4.166022216796875,-0.000495662447065115,0.001140819862484932,-0.0030543780885636806
1771956798678985200,4.185985107421875,0.000393501715734601,0.002203301526606083,-0.0021961419843137264
1771956798698948000,4.205947998046875,-0.00009493017569184303,0.0008554956875741482,-0.002216930966824293
1771956798718911200,4.2259111328125,-0.00022515421733260155,-0.00007978919893503189,-0.0009428796474821866
1771956798738874000,4.2458740234375,0.0026549508329480886,0.0008582412265241146,0.0009678231435827911
1771956798758837200,4.265837158203125,-0.0009960061870515347,-0.002572084777057171,-0.0011709578102454543
1771956798778800000,4.285800048828125,0.00038941181264817715,0.00040061259642243385,-0.00048590506776236
1771956798798763300,4.30576318359375,0.0009767233859747648,0.00029700202867388725,-0.002462579170241952
1771956798818726400,4.325726318359375,0.0004248586483299732,0.0018451414071023464,-0.0023449519649147987
1771956798838689300,4.345689208984375,0.0007595443166792393,0.0005443142727017403,0.0008591355290263891
1771956798858652200,4.365652099609375,0.003733798861503601,-0.0012203599326312542,0.001615587156265974
1771956798878615000,4.385614990234375,-0.00022217072546482086,-0.003126193303614855,0.0034166076220571995
1771956798898578200,4.405578125,0.000881857005879283,-0.00001081591472029686,0.0003504334017634392
1771956798918541300,4.425541259765625,0.0030854246579110622,0.001335799228399992,-0.0008366851834580302
1771956798938504200,4.445504150390625,0.0001254882663488388,0.00003897771239280701,-0.001367354765534401
1771956798958467300,4.46546728515625,0.0004243624862283468,0.004602620843797922,0.0006501377210952342
1771956798978430200,4.48543017578125,0.0010346942581236362,-0.0003829905763268471,0.00006857729749754071
1771956798998393300,4.505393310546875,0.0005785690154880285,-0.0012579788453876972,-0.0012516536517068744
1771956799018357200,4.525357177734375,-0.0012370795011520386,-0.002367097418755293,0.0015305603155866265
1771956799038319000,4.545319091796875,0.0003791903145611286,0.00020832987502217293,0.001066718716174364
1771956799058282200,4.5652822265625,-0.001659550704061985,0.0014028437435626984,0.0002553889062255621
1771956799078245000,4.5852451171875,0.00006035156548023224,0.0007559326477348804,-0.0010600726818665862
1771956799098208300,4.605208251953125,-0.0013886340893805027,0.0007749097421765327,-0.0016183375846594572
1771956799118172200,4.625172119140625,0.000030133873224258423,0.0011940151453018188,-0.000860460801050067
1771956799138135300,4.64513525390625,0.0009383223950862885,-0.004709138534963131,-0.0009967887308448553
1771956799158098200,4.66509814453125,-0.00009118812158703804,-0.003144986927509308,0.0017254962585866451
1771956799178061300,4.685061279296875,0.002330656163394451,-0.001997030805796385,-0.0004001667257398367
1771956799198024200,4.705024169921875,-0.0002866610884666443,0.0007321350276470184,0.00038795865839347243
1771956799217987300,4.7249873046875,0.00012379977852106094,0.00044362572953104973,-0.002346350811421871
1771956799237950200,4.7449501953125,-0.002528820652514696,0.0009428951889276505,-0.0021485553588718176
1771956799257913000,4.7649130859375,0.0009184828959405422,-0.002381129190325737,-0.0019009043462574482
1771956799277876200,4.784876220703125,0.0012874312233179808,-0.0028210636228322983,0.002409443724900484
1771956799297839000,4.804839111328125,0.00096748280338943,-0.0021391017362475395,0.0004901629290543497
1771956799317802200,4.82480224609375,-0.0011416412889957428,-0.0007643289864063263,-0.0010000723414123058
1771956799337765000,4.84476513671875,0.0016913681756705046,0.0007022800855338573,-0.0007984615513123572
1771956799357728300,4.864728271484375,-0.0011433395557105541,0.001986266113817692,-0.002129012020304799
1771956799377691400,4.88469140625,-0.0009781974367797375,0.0008702385239303112,0.0008495613583363593
1771956799397654300,4.904654296875,-0.0006906474009156227,-0.003537262324243784,0.0015510802622884512
1771956799417617400,4.924617431640625,0.00116356136277318,-0.002543247304856777,-0.0005307737155817449
1771956799437580000,4.944580078125,0.00033539067953824997,-0.0013502365909516811,0.000571765995118767
1771956799457543200,4.964543212890625,0.000058661215007305145,-0.00276336632668972,0.000028770242352038622
1771956799477506000,4.984506103515625,-0.00043987249955534935,-0.0004565543495118618,-0.0011140076676383615
1771956799497469200,5.00446923828125,-0.00019813282415270805,-0.00042749475687742233,0.0014735199511051178
1771956799517432300,5.024432373046875,0.0012336105573922396,-0.00063303392380476,-0.0013462298084050417
1771956799537395200,5.044395263671875,-0.00028231460601091385,-0.0023739845491945744,0.0010305694304406643
1771956799557358300,5.0643583984375,0.0014487586449831724,-0.0013788780197501183,-0.00032174447551369667
1771956799577321200,5.0843212890625,0.00021861004643142223,-0.0016891262494027615,0.0008031826582737267
1771956799597284000,5.1042841796875,0.0007582332473248243,0.0016900678165256977,0.0015281029045581818
1771956799617247200,5.124247314453125,0.0007098093628883362,0.0026751412078738213,0.0008352412260137498
1771956799637210000,5.144210205078125,-0.0013447366654872894,0.0005159620195627213,-0.0009749471209943295
1771956799657173200,5.16417333984375,0.0014527200255542994,-0.0006073750555515289,0.0013360348530113697
1771956799677136100,5.18413623046875,-0.0006749057210981846,-0.0008658631704747677,0.0016174197662621737
1771956799697099300,5.204099365234375,0.0007809356320649385,-0.0028383955359458923,0.0003853465896099806
1771956799717062100,5.224062255859375,-0.002331014722585678,0.0017544366419315338,0.0019874623976647854
1771956799737025300,5.244025390625,-0.002013965044170618,0.00006662961095571518,-0.001151871751062572
1771956799756988200,5.26398828125,0.0027027567848563194,0.0005778702907264233,-0.0008862923714332283
1771956799776951000,5.283950927734375,0.001413256861269474,0.00004317844286561012,0.0006246528937481344
1771956799796914200,5.3039140625,-0.0006037387065589428,-0.000029644928872585297,0.0011662011966109276
1771956799816877000,5.323876953125,0.00026221596635878086,-0.0018202555365860462,-0.00011658086441457272
1771956799836840200,5.343840087890625,0.00017890194430947304,-0.0008324943482875824,-0.002919247141107917
1771956799856803000,5.363802978515625,-0.00029584066942334175,0.0018791649490594864,-0.0019872484263032675
1771956799876766200,5.38376611328125,0.0011060251854360104,0.002365437336266041,0.0005198785802349448
1771956799896729300,5.403729248046875,-0.0014213002286851406,0.0028470209799706936,-0.0010718000121414661
1771956799916692200,5.423692138671875,-0.0011204485781490803,0.0033481367863714695,-0.0010451097041368484
1771956799936655400,5.4436552734375,-0.0013885032385587692,-0.002128672320395708,0.0015927928034216166
1771956799956618000,5.463617919921875,-0.00041412003338336945,-0.0019419854506850243,-0.0006180250784382224
1771956799976581000,5.4835810546875,-0.0005705221556127071,0.00046703871339559555,-0.0006931314710527658
1771956799996544000,5.5035439453125,-0.00044179055839776993,-0.00023635895922780037,0.001366468146443367
1771956800016507100,5.523507080078125,-0.0006362469866871834,0.0010589784942567348,-0.0017986000748351216
1771956800036470300,5.54347021484375,0.0011639345902949572,-0.001807620283216238,0.001060965470969677
1771956800056433200,5.56343310546875,0.0007250921335071325,-0.0014287764206528664,-0.0000218802597373724
1771956800076396300,5.583396240234375,-0.0005054059438407421,0.0005589872598648071,0.002821031492203474
1771956800096359200,5.603359130859375,-0.000832356046885252,0.0009229383431375027,0.001064611249603331
1771956800116322300,5.623322265625,0.0009566913358867168,-0.00005005020648241043,-0.0007687468314543366
1771956800136285200,5.64328515625,0.001388520235195756,0.001113331876695156,-0.0024376974906772375
1771956800156248000,5.663248046875,0.0016172274481505156,0.00039032381027936935,0.0006019148859195411
1771956800176211200,5.683211181640625,-0.0004003201611340046,-0.00015782518312335014,-0.0012823439901694655
1771956800196174000,5.703174072265625,0.0004027257673442364,-0.001703848596662283,-0.0010323435999453068
1771956800216137200,5.72313720703125,0.0013480465859174728,-0.0009515448473393917,-0.0007775765261612833
1771956800236100000,5.74310009765625,0.0005503217689692974,-0.002313661389052868,0.0003304903511889279
1771956800256063200,5.763063232421875,-0.0009969561360776424,-0.0010866662487387657,-0.0011598432902246714
1771956800276026400,5.7830263671875,0.0010298616252839565,0.0018299468792974949,-0.0005494588403962553
1771956800295989200,5.8029892578125,-0.0012435754761099815,-0.0005879634991288185,0.0004139149677939713
1771956800315952400,5.822952392578125,-0.00023631379008293152,0.0011666673235595226,-0.001028332277201116
1771956800335915000,5.8429150390625,0.0006170517299324274,-0.0033383583649992943,-0.000004810921382158995
1771956800355878100,5.862878173828125,0.00024438812397420406,-0.0009201047942042351,-0.0007328050560317934
1771956800375841000,5.882841064453125,-0.000364791601896286,-0.00040986761450767517,-0.0005420208908617496
1771956800395804200,5.90280419921875,0.0004896780010312796,0.0015945537015795708,-0.0010480469791218638
1771956800415767300,5.922767333984375,-0.00032866979017853737,0.002172216773033142,0.0006846009637229145
1771956800435730200,5.942730224609375,0.0010862217750400305,0.0021610944531857967,0.00281823193654418
1771956800455693300,5.962693359375,-0.0012194323353469372,-0.0022596977651119232,0.0005340063944458961
1771956800475656200,5.98265625,-0.000017026904970407486,-0.0035853018052875996,0.00025440158788114786
1771956800495619300,6.002619384765625,0.00012819888070225716,-0.0006079557351768017,0.001487125176936388
1771956800515582200,6.022582275390625,0.0010364423505961895,0.00008463067933917046,0.0007313753012567759
1771956800535545000,6.042545166015625,0.0008684140630066395,0.000554871279746294,0.00018393108621239662
1771956800555508200,6.06250830078125,-0.0008480618707835674,0.0026688077487051487,0.0037575019523501396
1771956800575471000,6.08247119140625,-0.0026122131384909153,-0.001088692806661129,0.0018153825076296926
1771956800595434200,6.102434326171875,-0.00036189425736665726,-0.0009084627963602543,0.0007490277057513595
1771956800615397000,6.122397216796875,-0.00006593763828277588,-0.0029822983779013157,0.00007587572326883674
1771956800635360300,6.1423603515625,0.0008034729398787022,-0.0023808861151337624,-0.000027848000172525644
1771956800655323400,6.162323486328125,-0.0025084977969527245,0.0007996931672096252,0.000992037821561098
1771956800675286300,6.182286376953125,-0.0010555237531661987,-0.00030969781801104546,0.00031842966563999653
1771956800695249200,6.202249267578125,0.002482620533555746,0.00006030034273862839,-0.0020397379994392395
1771956800715212000,6.2222119140625,0.0004073285963386297,-0.0006280872039496899,-0.002590919379144907
1771956800735175200,6.242175048828125,0.0010864345822483301,0.0015543438494205475,0.0016457149758934975
1771956800755138000,6.262137939453125,-0.00006559537723660469,0.001062658615410328,-0.00013034342555329204
1771956800775101200,6.28210107421875,0.0007399518508464098,-0.0002598557621240616,-0.00006766099249944091
1771956800795064300,6.302064208984375,-0.00024520186707377434,0.0010262476280331612,-0.00012018450070172548
1771956800815027200,6.322027099609375,0.0009670036379247904,0.0013671237975358963,-0.0013255710946395993
1771956800834990300,6.341990234375,0.0016546226106584072,0.00046695955097675323,0.0005305485683493316
1771956800854953200,6.361953125,0.001216835342347622,-0.004154670983552933,0.0012740090023726225
1771956800874916000,6.381916015625,0.0009828780312091112,-0.002284244168549776,0.00003946223296225071
1771956800894879000,6.40187890625,0.00029526581056416035,-0.004451180808246136,-0.00031070271506905556
1771956800914842000,6.421842041015625,0.0006761234253644943,-0.00017554033547639847,-0.0020978515967726707
1771956800934805200,6.44180517578125,-0.0005295104347169399,-0.0004298440180718899,0.0025375729892402887
1771956800954768100,6.46176806640625,0.000009152106940746307,0.0021565118804574013,-0.0012808518949896097
1771956800974731300,6.481731201171875,-0.0018215044401586056,-0.00030443957075476646,0.003558817319571972
1771956800994694100,6.501694091796875,-0.0006082775071263313,-0.003750425297766924,-0.0011644780170172453
1771956801014657300,6.5216572265625,-0.0004091281443834305,0.0002826862037181854,0.0008225871715694666
1771956801034620200,6.5416201171875,-0.0015159239992499352,-0.000150932464748621,0.0006342952256090939
1771956801054583000,6.5615830078125,-0.001175818033516407,0.002008394803851843,-0.0017258154693990946
1771956801074546200,6.581546142578125,-0.00262347050011158,0.0027380711399018764,-0.00043280445970594883
1771956801094509000,6.601509033203125,0.0008171657100319862,0.0017686397768557072,0.0011488143354654312
1771956801114472200,6.62147216796875,-0.0005469340831041336,0.0004184744320809841,0.000997221446596086
1771956801134435000,6.64143505859375,0.001287129009142518,-0.002534110564738512,-0.00028567638946697116
1771956801154398200,6.661398193359375,-0.0018619354814291,-0.00015829503536224365,-0.0009680750081315637
1771956801174361300,6.681361328125,-0.0015895236283540726,0.0015618205070495605,0.0010026717791333795
1771956801194324200,6.70132421875,0.0002484605647623539,-0.0011124815791845322,-0.0008711576811037958
1771956801214287400,6.721287353515625,-0.00044774776324629784,0.0017749238759279251,-0.000997489201836288
1771956801234250000,6.74125,0.0003210175782442093,0.0016656555235385895,-0.00007181218825280666
1771956801254213000,6.761213134765625,-0.0006823502480983734,-0.0009924299083650112,0.0025289880577474833
1771956801274176000,6.781176025390625,0.0007781987078487873,-0.00281859515234828,0.0017029789742082357
1771956801294139100,6.80113916015625,0.0004326344933360815,0.0009274096228182316,0.0002262639463879168
1771956801314102300,6.821102294921875,0.001406937139108777,0.0007772594690322876,-0.0013476881431415677
1771956801334065200,6.841065185546875,-0.00012492109090089798,0.0018261410295963287,-0.000586292240768671
1771956801354028300,6.8610283203125,0.002082738559693098,-0.0004583308473229408,-0.0002929515321739018
1771956801373991200,6.8809912109375,0.0007379348389804363,0.0013035768643021584,0.0002137678675353527
1771956801393954300,6.900954345703125,0.0014278579037636518,-0.0007691122591495514,0.0014166347682476044
1771956801413917200,6.920917236328125,-0.00045872246846556664,-0.0018331939354538918,0.002097788266837597
1771956801433880000,6.940880126953125,0.0011158406268805265,-0.002226519864052534,0.0012682757806032896
1771956801453843200,6.96084326171875,-0.00023395614698529243,0.002341560088098049,-0.0035813506692647934
1771956801473806000,6.98080615234375,-0.0003413734957575798,0.0017230375669896603,0.002447281964123249
1771956801493769200,7.000769287109375,0.0000944710336625576,0.0008787293918430805,-0.0004158961237408221
1771956801513732000,7.020732177734375,0.0004458718467503786,0.00021192524582147598,-0.0009028066415339708
1771956801533695200,7.0406953125,-0.0003742002882063389,-0.003341550473123789,-0.002014355268329382
1771956801553658400,7.060658447265625,-0.0004457961767911911,-0.0015811393968760967,-0.0009939175797626376
1771956801573621800,7.080621826171875,-0.001050350721925497,0.0013823728077113628,-0.00021852721692994237
1771956801593585000,7.1005849609375,0.0010862359777092934,-0.0009389095939695835,-0.0009047142812050879
1771956801613547800,7.1205478515625,0.0031294182408601046,0.002051303628832102,-0.00028975895838811994
1771956801633510700,7.1405107421875,0.00042567262426018715,0.0032910616137087345,0.00020268739899620414
1771956801653473500,7.1604736328125,-0.0004050973802804947,-0.0003191102296113968,0.0012542200274765491
1771956801673436700,7.180436767578125,0.00032104412093758583,-0.000511521939188242,-0.00004089530557394028
1771956801693399600,7.200399658203125,0.0004888300318270922,0.0016877860762178898,0.00021121877944096923
1771956801713362700,7.22036279296875,0.00009277835488319397,0.0014182268641889095,-0.0005140202702023089
1771956801733325800,7.240325927734375,-0.0004592570476233959,0.0018788017332553864,-0.0012487281346693635
1771956801753288700,7.260288818359375,0.0004198483657091856,-0.0013760733418166637,-0.0002626479836180806
1771956801773251800,7.280251953125,-0.0004429393447935581,-0.0011428664438426495,0.0009377631358802319
1771956801793214700,7.300214599609375,-0.0017986278980970383,-0.004008268937468529,0.000368652050383389
1771956801813177600,7.320177490234375,-0.00032492075115442276,-0.0007586176507174969,0.0004012256395071745
1771956801833140700,7.340140625,-0.0008461512625217438,-0.000012211967259645462,0.0007273979717865586
1771956801853103600,7.360103515625,-0.000623196829110384,0.003506425302475691,-0.0002539293491281569
1771956801873066800,7.380066650390625,0.001117384759709239,0.0028873183764517307,-0.0004135662456974387
1771956801893029600,7.400029541015625,0.0004865662194788456,0.001549063716083765,0.00042066723108291626
1771956801912992800,7.41999267578125,0.00132647599093616,-0.0011444920673966408,-0.0012326324358582497
1771956801932955600,7.43995556640625,-0.0015843468718230724,-0.0025943429209291935,0.0002790943253785372
1771956801952918800,7.459918701171875,-0.00041712354868650436,-0.003490306669846177,-0.00042194430716335773
1771956801972882000,7.4798818359375,0.00017501716502010822,0.0022598938085138798,0.0002724402002058923
1771956801992844500,7.499844482421875,0.0013601009268313646,0.0017524384893476963,-0.0010915459133684635
1771956802012807700,7.5198076171875,-0.0002993149682879448,-0.0018532024696469307,0.00035896163899451494
1771956802032770600,7.5397705078125,0.000012091360986232758,0.0004484751261770725,-0.0005754838930442929
1771956802052733700,7.559733642578125,-0.00021291803568601608,-0.002499561756849289,0.0014547614846378565
1771956802072696600,7.579696533203125,-0.00004703272134065628,-0.00007511395961046219,0.0015006882604211569
1771956802092659700,7.59965966796875,0.0012788726016879082,0.002152636181563139,0.000364244740922004
1771956802112622800,7.619622802734375,-0.0017560161650180817,0.00261564739048481,0.00005133898230269551
1771956802132585700,7.639585693359375,0.00036126328632235527,0.0006580031476914883,0.0015655006282031536
1771956802152548900,7.659548828125,0.003478740341961384,0.0008997130207717419,0.0026242095045745373
1771956802172511500,7.679511474609375,-0.001636512577533722,0.002718399278819561,0.001682172529399395
1771956802192474600,7.699474609375,0.0003056481946259737,-0.0018031755462288857,0.0013208710588514805
1771956802212436700,7.719436767578125,-0.0016083568334579468,-0.0009907246567308903,0.0003820557612925768
1771956802232399600,7.739399658203125,-0.002065297681838274,0.0007421770133078098,0.0015062091406434774
1771956802252362800,7.75936279296875,0.0015949651133269072,-0.0009959531016647816,0.001717339619062841
1771956802272325600,7.77932568359375,-0.0009818719699978828,0.002677814569324255,-0.0010234718210995197
1771956802292288800,7.799288818359375,0.0016362133901566267,-0.00022312114015221596,0.00015407375758513808
1771956802312251600,7.819251708984375,0.0011159481946378946,-0.002052163239568472,0.0024699904024600983
1771956802332214500,7.839214599609375,-0.0018252232111990452,-0.000715574249625206,-0.00033705245004966855
1771956802352177700,7.859177734375,-0.0022944752126932144,0.0003688526339828968,-0.0005492481286637485
1771956802372140500,7.879140625,0.0012345530558377504,0.0036809653975069523,0.0013731769286096096
1771956802392103700,7.899103759765625,0.0008998047560453415,0.003122999332845211,-0.002186794299632311
1771956802412066800,7.91906689453125,-0.00034130876883864403,0.0021391059271991253,-0.00011176371481269598
1771956802432029700,7.93902978515625,-0.0010270150378346443,0.0009049195796251297,0.0006588322576135397
1771956802451992800,7.958992919921875,-0.0003106161020696163,-0.0024084090255200863,0.0014745595399290323
1771956802471955700,7.978955810546875,0.000596639234572649,0.000828613992780447,0.0015555568970739841
1771956802491918800,7.9989189453125,-0.0016372664831578732,-0.0016826312057673931,0.00020968366879969835
1771956802511881500,8.018881591796875,-0.0007829116657376289,0.0036087813787162304,0.00008813577005639672
1771956802531844600,8.0388447265625,-0.00036496808752417564,0.0013345666229724884,-0.0005712865386158228
1771956802551807700,8.058807861328125,0.0010958837810903788,0.0010936860926449299,-0.001872021472081542
1771956802571770400,8.078770263671874,-0.0016217948868870735,-0.00028210505843162537,-0.00020501454127952456
1771956802591733500,8.0987333984375,-0.0015208898112177849,-0.0020658420398831367,0.00007220072438940406
1771956802611696400,8.1186962890625,-0.0016732383519411087,-0.0014084014110267162,-0.0008251238614320755
1771956802631659500,8.138659423828125,-0.00012585613876581192,0.0014807344414293766,-0.000872436969075352
1771956802651622700,8.15862255859375,-0.0014286711812019348,0.0016981116496026516,-0.0025425860658288
1771956802671585500,8.17858544921875,0.0022901082411408424,0.0003619445487856865,0.0007771024247631431
1771956802691548700,8.198548583984374,-0.0009518815204501152,-0.00011166185140609741,0.00315813347697258
1771956802711511300,8.21851123046875,0.00046174810267984867,0.00016279006376862526,0.0005361157236620784
1771956802731474400,8.238474365234374,0.00037714350037276745,-0.0016867760568857193,-0.0016015805304050446
1771956802751437300,8.258437255859375,-0.00011260481551289558,-0.0008204365149140358,-0.0009072356624528766
1771956802771400400,8.278400390625,0.0007768140640109777,0.00039598532021045685,0.00002218247391283512
1771956802791363600,8.298363525390625,0.0006303936243057251,0.00143412034958601,0.0012895426480099559
1771956802811326500,8.318326416015625,0.001976995961740613,0.0024192146956920624,-0.0011954712681472301
1771956802831289600,8.33828955078125,-0.0006521772593259811,-0.0024571428075432777,-0.000021771120373159647
1771956802851252500,8.35825244140625,0.0011775330640375614,-0.002917081583291292,0.0021606367081403732
1771956802871215600,8.378215576171876,-0.0006337352097034454,-0.00038529047742486,-0.00019353715470060706
1771956802891178500,8.398178466796875,0.0008351756259799004,-0.0003422051668167114,-0.0002319613704457879
1771956802911141400,8.418141357421876,-0.0010555433109402657,-0.00012185703963041306,-0.0032377003226429224
1771956802931104500,8.4381044921875,0.00029979064129292965,0.00028156163170933723,-0.0022351446095854044
1771956802951067400,8.4580673828125,-0.000486619770526886,0.0010635186918079853,-0.000291937671136111
1771956802971030500,8.478030517578125,0.0003441667649894953,-0.0004481258802115917,0.0021655282471328974
1771956802990993400,8.497993408203126,0.000052663497626781464,-0.0035459266509860754,0.002539238892495632
1771956803010956500,8.51795654296875,-0.000013741664588451385,-0.0020319800823926926,0.0005828341236338019
1771956803030919400,8.53791943359375,-0.0015350915491580963,0.001598878763616085,0.0012803433928638697
1771956803050882600,8.557882568359375,-0.0012370371259748936,-0.0011124303564429283,-0.0035255078691989183
1771956803070845400,8.577845458984376,0.0014291978441178799,0.0044340044260025024,-0.0013004336506128311
1771956803090808300,8.597808349609375,-0.00004439055919647217,0.0002573486417531967,0.0015831078635528684
1771956803110771500,8.617771484375,-0.00008404674008488655,-0.0025836555287241936,0.0010986729757860303
1771956803130734300,8.637734375,0.00012049078941345215,-0.00019650394096970558,0.0003101832699030638
1771956803150697500,8.657697509765624,-0.0010639801621437073,-0.003607632592320442,0.00015248102135956287
1771956803170660600,8.67766064453125,0.0012688413262367249,-0.0004119621589779854,-0.0023259175941348076
1771956803190623500,8.69762353515625,-0.0005533024668693542,-0.0008396105840802193,-0.00014449103036895394
1771956803210586600,8.717586669921875,0.00005736667662858963,0.0019187885336577892,-0.0014980887062847614
1771956803230549500,8.737549560546874,-0.000421848613768816,0.0011084233410656452,-0.0011143565643578768
1771956803250512400,8.757512451171875,0.00032736267894506454,-0.0025711283087730408,-0.00016790657537057996
1771956803270475300,8.777475341796874,-0.0010819891467690468,-0.0005289060063660145,-0.00010204722639173269
1771956803290438400,8.7974384765625,-0.0010670064948499203,-0.0019816821441054344,-0.0031119296327233315
1771956803310401500,8.817401611328124,0.000726800411939621,0.002728312276303768,0.0003800222184509039
1771956803330364400,8.837364501953125,-0.0008856570348143578,0.004758633207529783,-0.0020406299736350775
1771956803350327600,8.85732763671875,-0.00008705444633960724,0.0002911081537604332,0.0005779930506832898
1771956803370290400,8.87729052734375,0.00119496020488441,-0.0012775859795510769,-0.0031285807490348816
1771956803390253600,8.897253662109375,0.0010674435179680586,-0.0034810875076800585,0.0011152946390211582
1771956803410216400,8.917216552734375,0.0009086832869797945,-0.0022570518776774406,-0.00009938812581822276
1771956803430179300,8.937179443359375,0.00006157206371426582,0.00016065966337919235,-0.0008292248821817338
1771956803450142500,8.957142578125,0.0006251176819205284,0.0014218543656170368,0.00040076393634080887
1771956803470105300,8.977105224609375,-0.0007177609950304031,0.004683726001530886,-0.00078625074820593
1771956803490068500,8.997068359375,0.00021517183631658554,-0.00032922206446528435,-0.001176396501250565
1771956803510031400,9.01703125,0.0012051111552864313,-0.0012319404631853104,0.0006714907358400524
1771956803529994500,9.036994384765626,-0.002672781702131033,-0.000245523639023304,-0.0012184723746031523
1771956803549957600,9.05695751953125,-0.0027064746245741844,-0.0023671966046094894,-0.0012026962358504534
1771956803569920500,9.07692041015625,-0.0009007938206195831,0.0008820635266602039,0.0011529368348419666
1771956803589883600,9.096883544921875,0.0017688469961285591,0.005266409832984209,0.0006077274447306991
1771956803609846500,9.116846435546876,-0.00041742343455553055,0.0014696503058075905,0.0006089601083658636
1771956803629809400,9.136809326171875,0.0007931450381875038,-0.002004866488277912,-0.000040746352169662714
1771956803649772300,9.156772216796876,0.0010146757122129202,-0.0027939309366047382,0.0015119948657229543
1771956803669735400,9.1767353515625,0.00006860820576548576,0.0005978723056614399,0.000041947641875594854
1771956803689698600,9.196698486328126,-0.00016984529793262482,0.0004805992357432842,-0.002519957721233368
1771956803709661400,9.216661376953125,-0.0003483397886157036,0.0011729435063898563,0.0006379317492246628
1771956803729624600,9.23662451171875,0.0009086807258427143,0.0013222680427134037,0.0025421902537345886
1771956803749587500,9.25658740234375,0.001803291030228138,0.0016434448771178722,0.0011966526508331299
1771956803769550600,9.276550537109374,-0.0016089137643575668,0.0007120594382286072,0.00029757374431937933
1771956803789513500,9.296513427734375,0.00025232997722923756,-0.001167568378150463,0.002635455224663019
1771956803809476400,9.316476318359374,-0.0010269996710121632,-0.0017477143555879593,0.0013864253414794803
1771956803829439500,9.336439453125,0.00014787516556680202,0.0028626867569983006,-0.000052765419241040945
1771956803849402400,9.35640234375,0.0002287072129547596,0.003533176612108946,0.0007368989754468203
1771956803869365500,9.376365478515625,-0.002437160350382328,0.003906944300979376,-0.00034510320983827114
1771956803889328400,9.396328369140624,-0.0008125645108520985,0.0019357036799192429,0.00010372226824983954
1771956803909291500,9.41629150390625,0.00005548959597945213,-0.0030910754576325417,0.002495615277439356
1771956803929254700,9.436254638671874,-0.0006837928667664528,-0.0003910837695002556,0.002176884561777115
1771956803949217500,9.456217529296875,-0.0013243518769741058,-0.0006501944735646248,-0.001516470336355269
1771956803969180700,9.4761806640625,-0.0024307584390044212,0.00016051903367042542,-0.001569215441122651
1771956803989143300,9.496143310546875,0.0005734502337872982,-0.0015694084577262402,0.00010576000204309821
1771956804009106400,9.5161064453125,-0.0002659563906490803,0.0005706925876438618,-0.0010494922753423452
1771956804029069300,9.5360693359375,0.0013164731208235025,0.0004368610680103302,0.0006417130352929235
1771956804049032400,9.556032470703125,-0.002051970921456814,-0.00533051323145628,0.0009623754885978997
1771956804068995600,9.57599560546875,-0.0017973743379116058,-0.0030511287041008472,-0.00047381786862388253
1771956804088958500,9.59595849609375,0.00048180297017097473,-0.002295167651027441,0.000608483562245965
1771956804108920600,9.615920654296875,0.00042408891022205353,0.0011836742050945759,-0.000007907743565738201
1771956804128883500,9.635883544921874,0.0003841791767627001,0.0020189345814287663,-0.0011025936109945178
1771956804148846300,9.655846435546875,-0.0010384442284703255,0.0011628377251327038,0.002498295623809099
1771956804168809500,9.6758095703125,-0.001033493783324957,-0.001307948026806116,0.000983760692179203
1771956804188772400,9.6957724609375,0.0016409535892307758,-0.00302516994997859,-0.000679357792250812
1771956804208735500,9.715735595703125,-0.0016703391447663307,-0.0006032912060618401,0.0011055325157940388
1771956804228698400,9.735698486328126,-0.0011888565495610237,-0.0006418130360543728,-0.000434233748819679
1771956804248661500,9.75566162109375,-0.0001461310312151909,0.001272386871278286,-0.001990264980122447
1771956804268624600,9.775624755859376,0.0012088508810847998,0.0006564301438629627,-0.0014644332695752382
1771956804288587500,9.79558740234375,-0.0005714693106710911,0.0006765774451196194,-0.0018021045252680779
1771956804308550400,9.81555029296875,-0.00011244835332036018,-0.0023049884475767612,-0.0010696790413931012
1771956804328513300,9.83551318359375,-0.0019450760446488857,0.0009511499665677547,-0.0025133653543889523
1771956804348476400,9.855476318359376,0.0006841365247964859,-0.00033482909202575684,0.0021904841996729374
1771956804368439600,9.875439453125,0.00029734312556684017,0.001709225121885538,-0.001393136102706194
1771956804388402400,9.89540234375,0.00059680943377316,0.0016631842590868473,-0.0016358698485419154
1771956804408365600,9.915365478515625,0.00011461600661277771,0.00017709285020828247,-0.0006322332192212343
1771956804428328400,9.935328369140626,-0.0000935806892812252,0.002318149898201227,-0.003479930106550455
1771956804448291600,9.95529150390625,0.00034555885940790176,-0.0008093421347439289,0.0007215698133222759
1771956804468254500,9.97525439453125,0.0013150065205991268,-0.0005974345840513706,0.0025901133194565773
1771956804488217600,9.995217529296875,-0.000433238223195076,-0.00012830551713705063,-0.0025021759793162346
1771956804508180500,10.015180419921874,-0.00007700640708208084,0.003642998170107603,0.0005002830293960869
1771956804528143400,10.035143310546875,-0.000513528473675251,0.0010690074414014816,-0.00005385815165936947
1771956804548106500,10.0551064453125,0.0005858303047716618,-0.000998206902295351,-0.0013775654369965196
1771956804568069400,10.0750693359375,-0.0004410180263221264,-0.0005491450428962708,-0.00038586457958444953
1771956804588031700,10.09503173828125,0.0010053806472569704,-0.0035256464034318924,0.0007680178969167173
1771956804607995000,10.114994873046875,-0.0036203982308506966,0.0016171541064977646,-0.0008770943386480212
1771956804627957800,10.134957763671874,-0.00029668211936950684,0.000016186386346817017,0.0013268921757116914
1771956804647921000,10.1549208984375,-0.000782668124884367,0.005906475242227316,-0.001065737335011363
1771956804667883800,10.1748837890625,-0.0011454555206000805,0.0009137731976807117,-0.00009096827125176787
1771956804687847000,10.194846923828125,0.0009117138106375933,-0.0014424948021769524,0.0013107516570016742
1771956804707810000,10.21481005859375,-0.000844558235257864,-0.0009108907543122768,0.0007011904963292181
1771956804727772700,10.234772705078125,-0.0007983711548149586,0.0004280763678252697,0.0012425000313669443
1771956804747735800,10.25473583984375,0.0024691885337233543,-0.00007684947922825813,0.0023883627727627754
1771956804767698700,10.27469873046875,-0.0013793008401989937,0.0017208345234394073,-0.000779128517024219
1771956804787661800,10.294661865234374,-0.0009411540813744068,0.00416546082124114,0.0002834420301951468
1771956804807624700,10.314624755859375,0.001217657933011651,0.00010166456922888756,0.0008714241557754576
1771956804827587800,10.334587890625,0.0007463446818292141,-0.003021097742021084,0.0017160373972728848
1771956804847551000,10.354551025390625,0.00002995086833834648,-0.0018014679662883282,0.0024398132227361202
1771956804867513900,10.374513916015625,0.0013278257101774216,-0.000006961170583963394,-0.0000478565925732255
1771956804887477000,10.39447705078125,0.0002271966077387333,0.00006199721246957779,-0.0014161039143800735
1771956804907439600,10.414439697265625,-0.00021040858700871468,0.0048398361541330814,-0.0026369555853307247
1771956804927402800,10.43440283203125,-0.0004657465033233166,0.002325810492038727,-0.002300308318808675
1771956804947366000,10.454365966796875,-0.002504682634025812,-0.00012094574049115181,0.00023532065097242594
1771956804967328800,10.474328857421876,-0.0006728349253535271,-0.0008398629724979401,0.0011379692004993558
1771956804987292000,10.4942919921875,0.000570349395275116,-0.00021011848002672195,0.00024046521866694093
1771956805007254800,10.5142548828125,-0.0015533496625721455,0.0002742735669016838,0.0005069299950264394
1771956805027218000,10.534218017578125,-0.0005759131163358688,0.0011599622666835785,-0.0008674667333252728
1771956805047180800,10.554180908203126,-0.00142260966822505,0.002554521895945072,-0.0010252585634589195
1771956805067144000,10.57414404296875,-0.0005067531019449234,0.0007075411267578602,-0.0025309291668236256
1771956805087106800,10.59410693359375,-0.00020795920863747597,0.0025034528225660324,0.00019781984155997634
1771956805107069700,10.614069580078125,-0.000999143347144127,-0.003398273140192032,0.0005217517027631402
1771956805127032800,10.63403271484375,-0.00014747679233551025,-0.0005269134417176247,-0.0001257622498087585
1771956805146995700,10.65399560546875,-0.0008211536332964897,-0.0015828097239136696,-0.0016402057372033596
1771956805166958800,10.673958740234376,-0.00014360295608639717,0.001850241795182228,-0.0015008077025413513
1771956805186921700,10.693921630859375,0.002562768291682005,0.001945488154888153,0.0006764753488823771
1771956805206884900,10.713884765625,0.001332881161943078,0.0023307199589908123,-0.0002599863801151514
1771956805226846700,10.7338466796875,-0.0010644597932696342,-0.0008933977223932743,-0.0011461337562650442
1771956805246811000,10.753810791015624,0.002868346869945526,-0.005165797658264637,0.0006947850342839956
1771956805266773800,10.773773681640625,0.0005531634669750929,0.0003123246133327484,-0.00032991700572893023
1771956805286736000,10.79373583984375,-0.0005519501864910126,0.00022243428975343704,-0.0011846882989630103
1771956805306698800,10.81369873046875,0.0007095679175108671,0.002501851413398981,-0.0002548016491346061
1771956805326662000,10.833661865234374,0.0016667968593537807,0.0032569020986557007,-0.00033337384229525924
1771956805346624800,10.853624755859375,0.0006243214011192322,-0.0003832927905023098,-0.00213520391844213
1771956805366588000,10.873587890625,-0.0025460044853389263,-0.0021702591329813004,0.00038835854502394795
1771956805386550800,10.89355078125,-0.002102714031934738,0.000459455419331789,-0.00009991141268983483
1771956805406513700,10.913513671875,-0.0024882457219064236,0.00026626698672771454,-0.0004915649187751114
1771956805426476800,10.933476806640625,-0.00047756824642419815,0.0025565377436578274,0.00010381289757788181
1771956805446439700,10.953439697265624,-0.0021860282868146896,0.001049770973622799,-0.00018562015611678362
1771956805466402800,10.97340283203125,-0.00015050265938043594,0.015270624309778214,0.01632789894938469
1771956805486365700,10.99336572265625,0.003213664051145315,-0.00602316576987505,-0.0389404259622097
1771956805506328800,11.013328857421875,-0.0007073534652590752,-0.0064069414511322975,0.030260315164923668
1771956805526292000,11.0332919921875,-0.00016210367903113365,-0.018862657248973846,-0.021904759109020233
1771956805546254800,11.0532548828125,0.003025270998477936,0.012291016057133675,0.003479060949757695
1771956805566218000,11.073218017578125,0.00033995602279901505,0.012317163869738579,-0.00008665805216878653
1771956805586181600,11.093181640625,0.0025778100825846195,-0.005473816767334938,-0.00959014892578125
1771956805606144800,11.113144775390625,0.0010386754292994738,-0.0032353983260691166,0.012916847132146358
1771956805626107600,11.133107666015626,0.0008350985590368509,0.00328314071521163,0.0020129906479269266
1771956805646070800,11.15307080078125,-0.0008780881762504578,-0.007951655425131321,-0.010040843859314919
1771956805666033700,11.17303369140625,-0.0005505471490323544,0.0048782979138195515,0.009098545648157597
1771956805685996800,11.192996826171875,-0.0002757054753601551,-0.006989892106503248,-0.008584894239902496
1771956805705959700,11.212959716796876,-0.0011952156201004982,0.006296930834650993,0.0022589273285120726
1771956805725922600,11.232922607421875,0.0007127323187887669,0.003548234701156616,0.004355913028120995
1771956805745885700,11.2528857421875,-0.0017779734916985035,0.0002464395947754383,0.0021702307276427746
1771956805765848600,11.2728486328125,-0.0009633945301175117,0.0003078426234424114,0.0012421070132404566
1771956805785811700,11.292811767578126,0.0014646053314208984,-0.0066291592083871365,-0.0057393694296479225
1771956805805774600,11.312774658203125,0.0007291242945939302,-0.0005547124892473221,-0.003364400938153267
1771956805825737700,11.33273779296875,-0.0022013853304088116,0.0003645489923655987,-0.003572812071070075
1771956805845700900,11.352700927734375,-0.00024818163365125656,0.001875222660601139,-0.0018033444648608565
1771956805865663700,11.372663818359374,0.0008226395584642887,0.002950402908027172,0.0037803910672664642
1771956805885627000,11.392626953125,0.0008522020652890205,-0.002379914280027151,0.0053516561165452
1771956805905589500,11.412589599609374,-0.0003423611633479595,0.0022757300175726414,0.002978804986923933
1771956805925552600,11.432552734375,-0.0012274584732949734,-0.0015245070680975914,-0.0011563104344531894
1771956805945515500,11.452515625,0.0003315303474664688,-0.0005591255612671375,0.001965548377484083
1771956805965478700,11.472478759765625,0.0013673605863004923,0.0015250453725457191,-0.0010251053608953953
1771956805985441800,11.49244189453125,-0.0007845950312912464,0.004830846097320318,0.0015253277961164713
1771956806005404700,11.51240478515625,-0.00012382818385958672,0.001711157150566578,-0.0004173340857960284
1771956806025367800,11.532367919921874,-0.001304049976170063,-0.001207432709634304,0.002468112390488386
1771956806045330700,11.55233056640625,-0.0039218030869960785,0.08921895921230316,0.09978744387626648
1771956806065293800,11.5722939453125,-0.005788988899439573,0.10564041882753372,0.0889749526977539
1771956806085256700,11.592256591796875,0.004333846271038055,-0.13559198379516602,-0.15075276792049408
1771956806105219600,11.612219482421875,0.003075853455811739,-0.12491751462221146,-0.11191841959953308
1771956806125182700,11.6321826171875,0.004062400199472904,0.08281690627336502,0.02451123483479023
