time,seconds_elapsed,z,y,x
1771956825039435800,0.076435791015625,0.0011104126460850239,-0.0001627751626074314,-0.0006927594658918679
1771956825059399000,0.09639892578125,0.0006798135582357645,-0.002817206084728241,0.0021779765374958515
1771956825079361800,0.11636181640625,0.000035890843719244,0.006444478407502174,0.006971031427383423
1771956825099325000,0.136324951171875,0.00027820467948913574,0.012873338535428047,0.009553334675729275
1771956825119288000,0.1562880859375,0.0008141985163092613,0.0032836017198860645,0.002878477331250906
1771956825139250700,0.176250732421875,0.0009837718680500984,-0.012315943837165833,-0.0104012880474329
1771956825159213800,0.1962138671875,0.0002199104055762291,-0.005204987246543169,-0.007108301855623722
1771956825179176700,0.2161767578125,-0.00009497301653027534,-0.007661181036382914,-0.006661600433290005
1771956825199138800,0.236138916015625,-0.0006039370782673359,-0.000426645390689373,-0.0017662919126451015
1771956825219102000,0.25610205078125,-0.0026897271163761616,0.003978290595114231,0.004401105456054211
1771956825239064800,0.27606494140625,0.00011538248509168625,0.0024032294750213623,0.0005064498400315642
1771956825259028000,0.296028076171875,0.0007102645467966795,0.005706199444830418,0.007385964505374432
1771956825278991000,0.3159912109375,-0.001546128187328577,-0.002816092222929001,-0.0012476601405069232
1771956825298953700,0.33595361328125,0.0010671676136553288,0.001282030250877142,0.004237640183418989
1771956825318916900,0.355916748046875,-0.0005592526867985725,0.005712986458092928,0.004620704799890518
1771956825338879700,0.375879638671875,0.0002119322307407856,0.0039069498889148235,0.003836974035948515
1771956825358843000,0.3958427734375,-0.0008472385816276073,-0.0018134606070816517,-0.0031499434262514114
1771956825378805800,0.4158056640625,-0.0022693295031785965,-0.0011506597511470318,-0.0038486425764858723
1771956825398769000,0.435768798828125,-0.0012772022746503353,-0.0026386757381260395,-0.004438672214746475
1771956825418732000,0.45573193359375,-0.00023873941972851753,-0.0025062900967895985,-0.002597935264930129
1771956825438695000,0.47569482421875,0.0009286599233746529,-0.002998409792780876,-0.0017982623539865017
1771956825458658000,0.495657958984375,-0.00005537224933505058,-0.0007276022806763649,0.0004714998649433255
1771956825478620700,0.51562060546875,-0.0013248366303741932,0.001679915003478527,0.0032676151022315025
1771956825498582800,0.535582763671875,-0.000607246533036232,0.0015516499988734722,0.00035888561978936195
1771956825518546000,0.5555458984375,-0.0008582836017012596,0.005104731302708387,0.0036623976193368435
1771956825538508800,0.5755087890625,-0.001460961066186428,0.004717507865279913,0.0001851082779467106
1771956825558472000,0.595471923828125,-0.0010429746471345425,0.0025863475166261196,0.00446962658315897
1771956825578435000,0.61543505859375,-0.0014056982472538948,0.001368946861475706,0.004442945122718811
1771956825598398000,0.63539794921875,-0.0014574225060641766,-0.000566510483622551,-0.0029444620013237
1771956825618361000,0.655361083984375,-0.0009241984225809574,0.0003984421491622925,-0.002915889024734497
1771956825638324000,0.675323974609375,-0.0018365341238677502,0.0024109529331326485,-0.004244629293680191
1771956825658287000,0.695287109375,0.0007058379705995321,0.0004000985063612461,-0.004025210160762072
1771956825678250000,0.71525,-0.0014995299279689789,-0.0010719005949795246,-0.00043691694736480713
1771956825698213000,0.735213134765625,0.0003658335190266371,-0.001146105583757162,0.001500809215940535
1771956825718176000,0.755176025390625,-0.0021118726581335068,0.0001838994212448597,-0.0014763112412765622
1771956825738139000,0.775138916015625,-0.0014214864932000637,0.0011153649538755417,0.0014189380453899503
1771956825758102000,0.79510205078125,-0.0018649627454578876,0.0019905981607735157,-0.0021326160058379173
1771956825778065000,0.81506494140625,-0.0003375406377017498,0.004024612717330456,0.0011916684452444315
1771956825798027000,0.835027099609375,0.0009015165269374847,0.0022206255234777927,0.001598156290128827
1771956825817990100,0.854990234375,-0.00012055924162268639,-0.0002430449239909649,-0.00042924575973302126
1771956825837953000,0.874953125,-0.0024582799524068832,-0.0008885776624083519,-0.0015365261351689696
1771956825857916000,0.894916015625,-0.00032243411988019943,-0.0014549503102898598,-0.0009539134916849434
1771956825877878800,0.914878662109375,0.000983662437647581,0.0005362252704799175,-0.0022240248508751392
1771956825897842000,0.934842041015625,-0.003024587407708168,0.0017393538728356361,-0.0007122253300622106
1771956825917805000,0.95480517578125,0.000015283003449440002,0.003241177648305893,-0.0014115215744823217
1771956825937768000,0.974767822265625,-0.0013295048847794533,0.004709369037300348,0.0014842355158179998
1771956825957731000,0.99473095703125,-0.003007869701832533,0.0017975368537008762,-0.0012129645328968763
1771956825977694000,1.01469384765625,0.0015540583990514278,-0.0010109255090355873,0.0008023536065593362
1771956825997657000,1.034656982421875,0.0002568117342889309,-0.001200809609144926,0.0012453249655663967
1771956826017620000,1.054619873046875,-0.000012050848454236984,0.0005538198165595531,0.0012340001994743943
1771956826037582800,1.074582763671875,0.0003861282020807266,0.0025392072275280952,-0.001338006230071187
1771956826057546000,1.0945458984375,-0.0005137771368026733,0.003541196696460247,-0.00006469630170613527
1771956826077508900,1.1145087890625,0.0012197059113532305,0.001409830991178751,0.0017404191894456744
1771956826097472000,1.134471923828125,0.0011893166229128838,-0.0021354774944484234,-0.00035111315082758665
1771956826117434000,1.15443408203125,0.0006393757648766041,-0.003795502008870244,-0.002368609420955181
1771956826137397000,1.17439697265625,-0.0005722739733755589,-0.001539674587547779,0.00040075951255857944
1771956826157360000,1.194360107421875,-0.0008307918906211853,0.00031763967126607895,-0.001398039166815579
1771956826177323000,1.214322998046875,0.0013710493221879005,0.0018055117689073086,-0.0004551034071482718
1771956826197286000,1.234285888671875,0.000007991213351488113,0.0034226002171635628,0.000005814828909933567
1771956826217249000,1.2542490234375,-0.0028130547143518925,0.00009898003190755844,0.0011279290774837136
1771956826237212000,1.2742119140625,0.000013577286154031754,-0.0016001835465431213,0.0018319820519536734
1771956826257175000,1.294175048828125,0.0015210418496280909,-0.001080588437616825,0.0002517569810152054
1771956826277138000,1.314137939453125,-0.0004703877493739128,0.0019199238158762455,0.0025672470219433308
1771956826297101000,1.33410107421875,-0.0012539527378976345,0.0016001109033823013,0.001217682845890522
1771956826317064000,1.35406396484375,0.0001425342634320259,0.00048710452392697334,0.0000060515012592077255
1771956826337027000,1.374027099609375,0.0000031366944313049316,-0.0005403193645179272,-0.002394146751612425
1771956826356990200,1.393990234375,-0.0011918237432837486,-0.0020814905874431133,0.001961186993867159
1771956826376952800,1.413952880859375,0.00007041683420538902,-0.0015791784971952438,-0.000013990094885230064
1771956826396916000,1.433916015625,0.0006121697369962931,-0.0007896004244685173,-0.0018073501996695995
1771956826416878800,1.45387890625,0.00011865189298987389,0.0026856171898543835,-0.0009699005167931318
1771956826436841000,1.473841064453125,-0.0009068450890481472,0.0025622467510402203,-0.0012261010706424713
1771956826456804000,1.49380419921875,0.000450225081294775,0.0021658274345099926,0.001387215917930007
1771956826476767000,1.51376708984375,0.0003333126660436392,0.00035078683868050575,0.00003711855970323086
1771956826496730000,1.533730224609375,0.0013732879888266325,-0.002610419876873493,-0.0009681929368525743
1771956826516693000,1.55369287109375,-0.002404808532446623,0.00045619625598192215,0.000014101387932896614
1771956826536656000,1.57365576171875,-0.00019731046631932259,-0.0002703922800719738,-0.000340921338647604
1771956826556619000,1.593618896484375,-0.0004024128429591656,0.0016617681831121445,-0.0004958408535458148
1771956826576582000,1.613581787109375,0.0008822535164654255,0.0014975513331592083,0.002129979431629181
1771956826596544800,1.633544677734375,-0.00011009303852915764,0.0007278709672391415,-0.001531833317130804
1771956826616507600,1.653507568359375,-0.0009098900482058525,-0.0025426456704735756,0.0023254225961863995
1771956826636470800,1.673470703125,-0.0006379643455147743,-0.0005681389011442661,-0.0004010280827060342
1771956826656434000,1.693433837890625,0.0011625352781265974,-0.0009050057269632816,0.0011473653139546514
1771956826676396800,1.713396728515625,0.001180520048364997,0.0020813182927668095,-0.0006780639523640275
1771956826696359700,1.733359619140625,0.00025667017325758934,0.0026713619008660316,-0.0016971544828265905
1771956826716322600,1.753322509765625,0.0018702486995607615,0.0023120371624827385,0.00048123812302947044
1771956826736284700,1.77328466796875,-0.000845941249281168,0.0022050668485462666,0.0007972463499754667
1771956826756247800,1.793247802734375,-0.0018892022781074047,-0.0013993224129080772,-0.0013166565913707018
1771956826776210700,1.813210693359375,-0.0009150831028819084,-0.0024085473269224167,0.0007095588371157646
1771956826796173800,1.833173828125,-0.0015309094451367855,0.0006455620750784874,0.000007518683560192585
1771956826816137000,1.853136962890625,0.0007652381900697947,0.0033752936869859695,-0.002135075628757477
1771956826836099600,1.873099609375,0.0025639566592872143,0.003299457486718893,-0.0003086857032030821
1771956826856062700,1.893062744140625,-0.00100757647305727,0.0018552746623754501,-0.0036880867555737495
1771956826876025600,1.913025634765625,-0.0004131300374865532,0.00018991390243172646,0.002772896084934473
1771956826895988700,1.93298876953125,-0.001635218970477581,-0.00042528659105300903,0.0020603847224265337
1771956826915951600,1.95295166015625,-0.00044765137135982513,-0.00010902853682637215,-0.0003540882025845349
1771956826935914800,1.972914794921875,-0.001365089789032936,0.00024172058328986168,-0.0004999926313757896
1771956826955878000,1.9928779296875,0.000021102838218212128,0.0017742989584803581,-0.0008801065268926322
1771956826975840800,2.0128408203125,0.0012117139995098114,0.00283488305285573,0.00157741189468652
1771956826995804000,2.032803955078125,0.00021538743749260902,0.002728573512285948,2.3702159523963928e-7
1771956827015766800,2.052766845703125,0.0025534748565405607,0.0005296873860061169,-0.00016826821956783533
1771956827035729700,2.072729736328125,0.0003531498368829489,-0.0007401742041110992,0.0010692047653719783
1771956827055692800,2.09269287109375,0.00004543690010905266,-0.00023334519937634468,-0.0003018395509570837
1771956827075654700,2.112654541015625,-0.0019478877075016499,0.0014865435659885406,0.0016510440036654472
1771956827095617800,2.13261767578125,0.000563070410862565,0.0032492210157215595,-0.0013204070273786783
1771956827115580700,2.15258056640625,0.002497060690075159,0.0002578115090727806,-0.001497397432103753
1771956827135543800,2.172543701171875,0.0009987344965338707,0.0013481099158525467,-0.0018558691954240203
1771956827155507000,2.1925068359375,-0.000024245120584964752,0.001138143241405487,0.0018972407560795546
1771956827175469600,2.212469482421875,0.0010305617470294237,-0.0020954273641109467,0.0024040197022259235
1771956827195432700,2.2324326171875,0.0014326127711683512,-0.0007342002354562283,0.0014363897498697042
1771956827215395600,2.2523955078125,-0.0014226087369024754,0.0031776423566043377,-0.0017553428187966347
1771956827235358700,2.272358642578125,-0.00002891477197408676,0.0010701841674745083,-0.0012017564149573445
1771956827255321900,2.29232177734375,0.0008517869282513857,0.0011380133219063282,0.001414475729689002
1771956827275284700,2.31228466796875,-0.000846516340970993,0.0014248467050492764,0.0016190289752557874
1771956827295248000,2.332247802734375,-0.0008341344073414803,-0.003169061616063118,-0.00011560990242287517
1771956827315210800,2.352210693359375,-0.0013084202073514462,-0.0003955615684390068,0.0012564178323373199
1771956827335174000,2.372173828125,0.0005116965621709824,0.0016325158067047596,-0.0009694559266790748
1771956827355136500,2.392136474609375,-0.0007553170435130596,-0.00035105179995298386,-0.0012988136149942875
1771956827375099600,2.412099609375,0.0005645412020385265,0.0015060948207974434,-0.000035243574529886246
1771956827395062800,2.432062744140625,0.00030296831391751766,-0.0008079954423010349,0.001973122591152787
1771956827415024600,2.452024658203125,-0.0017480123788118362,-0.00045133568346500397,-0.0011229271767660975
1771956827434987800,2.47198779296875,-0.00028447993099689484,-0.0010927231051027775,-0.000547317205928266
1771956827454951000,2.491950927734375,0.0012824605219066143,0.0013739238493144512,-0.0005958816618658602
1771956827474913800,2.511913818359375,-0.0001725996844470501,0.002662165556102991,-0.0011178654385730624
1771956827494876700,2.531876708984375,-0.001016716007143259,0.002751855179667473,-0.00036453077336773276
1771956827514839600,2.551839599609375,-0.00013932911679148674,0.0025534862652420998,-0.001187677145935595
1771956827534802700,2.571802734375,0.001214121701195836,0.00044350000098347664,0.0022307224571704865
1771956827554765800,2.591765869140625,0.0014666924253106117,-0.0022614863701164722,-0.0000011870870366692543
1771956827574728700,2.611728759765625,0.0013825700152665377,-0.0026180348359048367,-0.0015768187586218119
1771956827594692400,2.6316923828125,-0.00014626234769821167,0.0021550157107412815,0.001656935317441821
1771956827614655500,2.651655517578125,0.001560403499752283,0.0012608375400304794,0.0008644029730930924
1771956827634618600,2.67161865234375,0.0014378831256181002,0.0018451716750860214,0.001007384853437543
1771956827654581500,2.69158154296875,-0.001493707299232483,0.0004379628226161003,-0.0007529252907261252
1771956827674544600,2.711544677734375,0.00008214497938752174,-0.0018347371369600296,0.00235982658341527
1771956827694507500,2.731507568359375,-0.0013179481029510498,-0.0031658424995839596,-0.0007404680363833904
1771956827714470700,2.751470703125,0.0004952205345034599,0.0001501627266407013,-0.00318871159106493
1771956827734433500,2.77143359375,-0.00041065551340579987,0.0007642521522939205,-0.00020501529797911644
1771956827754395400,2.7913955078125,0.000981875229626894,0.0019109812565147877,-0.00002448109444230795
1771956827774358500,2.811358642578125,-0.00008700462058186531,0.001932815182954073,-0.0009795386577025056
1771956827794321700,2.83132177734375,-0.0001369379460811615,-0.0014618528075516224,0.0006308086449280381
1771956827814284500,2.851284423828125,0.00010964320972561836,-0.0005220500752329826,0.0032134554348886013
1771956827834247700,2.87124755859375,0.0001617628149688244,-0.0024153697304427624,-0.0007492974400520325
1771956827854210600,2.89121044921875,-0.0024738176725804806,0.0021549747325479984,-0.0006029076175764203
1771956827874173700,2.911173583984375,-0.0005058436654508114,-0.0007370123639702797,-0.0009659149218350649
1771956827894136300,2.93113623046875,0.00289284810423851,0.0025894236750900745,-0.0020977926906198263
1771956827914099500,2.951099365234375,0.0013777168933302164,-0.0006830818019807339,-0.0006851094658486545
1771956827934062600,2.9710625,0.0007483295630663633,0.000004352070391178131,-0.00011131662176921964
1771956827954025500,2.991025390625,0.0010574283078312874,-0.0007232595235109329,0.00015930284280329943
1771956827973988600,3.010988525390625,-0.0014731371775269508,-0.0013966085389256477,-0.0008576505933888257
1771956827993951500,3.030951416015625,-0.0000398918054997921,-0.0004308857023715973,0.00012517732102423906
1771956828013914600,3.05091455078125,-0.0002021375112235546,0.002076679840683937,0.0014508679741993546
1771956828033877500,3.07087744140625,0.00039378972724080086,0.003121589310467243,0.00020833429880440235
1771956828053840600,3.090840576171875,0.0008368825074285269,-0.00020199129357933998,0.00002994516398757696
1771956828073803500,3.110803466796875,0.0006684348918497562,-0.0004202057607471943,-0.00045008823508396745
1771956828093766400,3.130766357421875,0.0002854526974260807,-0.002046789973974228,0.00010526413097977638
1771956828113728500,3.150728515625,-0.00047256099060177803,-0.0007407153025269508,0.0008968304609879851
1771956828133691600,3.170691650390625,0.00035882950760424137,-0.00045771151781082153,-0.002261534333229065
1771956828153654500,3.190654541015625,0.00002126069739460945,0.003522051963955164,-0.001862002769485116
1771956828173617700,3.21061767578125,-0.0014523589052259922,0.0013487590476870537,0.002692229114472866
1771956828193580500,3.23058056640625,0.0003475442063063383,-0.001487960573285818,-0.0016524225939065218
1771956828213543400,3.25054345703125,-0.0016277236863970757,-0.003144648391753435,0.002917655510827899
1771956828233506600,3.270506591796875,-0.002005309332162142,0.0012273434549570084,0.00021514948457479477
1771956828253469400,3.290469482421875,-0.0021802871488034725,0.0024136435240507126,-0.001997647574171424
1771956828273432600,3.3104326171875,-0.0003588269464671612,0.001177269034087658,-0.0025264155119657516
1771956828293395500,3.3303955078125,0.0011490811593830585,0.00041529955342411995,-0.0005262114573270082
1771956828313358600,3.350358642578125,0.00041115772910416126,0.001330764964222908,-0.0015059708384796977
1771956828333321500,3.370321533203125,-0.00017874035984277725,-0.002146734856069088,0.00030498020350933075
1771956828353284600,3.39028466796875,0.0004263294395059347,-0.0010202485136687756,0.003079115878790617
1771956828373247700,3.410247802734375,-0.0022528013214468956,0.00017756596207618713,-0.0029506494756788015
1771956828393210600,3.430210693359375,0.0012489210348576307,0.0022352607920765877,0.0011153903324157
1771956828413173500,3.450173583984375,-0.0013620173558592796,0.002856980077922344,-0.0018074463587254286
1771956828433136400,3.470136474609375,-0.0015500904992222786,0.0012380960397422314,-0.0012482281308621168
1771956828453098500,3.490098388671875,0.000906278844922781,-0.00008131284266710281,0.00001130660530179739
1771956828473061600,3.5100615234375,0.0011397956404834986,-0.0003535030409693718,0.0007869416149333119
1771956828493024500,3.5300244140625,-0.00035797106102108955,-0.0018074908293783665,0.0012319055385887623
1771956828512987600,3.549987548828125,-0.0013932734727859497,-0.0011829878203570843,-0.0004626385634765029
1771956828532950500,3.569950439453125,-0.0005632583051919937,0.0023787482641637325,-0.0014058906817808747
1771956828552913400,3.589913330078125,-0.0013629165478050709,0.005521212238818407,-0.001228657434694469
1771956828572876500,3.60987646484375,0.0019149456638842821,0.002642451785504818,0.0003673600731417537
1771956828592838700,3.629838623046875,0.0006176398601382971,-0.0009021754376590252,0.0018306088168174028
1771956828612801800,3.6498017578125,0.0009071386884897947,-0.0017709671519696712,-0.0016710417112335563
1771956828632765000,3.669764892578125,-0.00020287511870265007,-0.0024094306863844395,-0.00136477779597044
1771956828652727800,3.689727783203125,0.0001930813305079937,-0.0013170698657631874,0.0015654319431632757
1771956828672690700,3.709690673828125,-0.00010907137766480446,0.005183112807571888,-0.00018738163635134697
1771956828692653600,3.729653564453125,0.00043563731014728546,0.0016128616407513618,-0.0011000764789059758
1771956828712616700,3.74961669921875,0.0010018586181104183,0.0001441342756152153,0.001729070907458663
1771956828732579600,3.76957958984375,-0.0020246440544724464,-0.002131527755409479,0.003111038589850068
1771956828752542700,3.789542724609375,0.0010170470923185349,-0.001186988316476345,0.0013176633510738611
1771956828772505900,3.809505859375,-0.002668796107172966,-0.001559313852339983,0.0028976663015782833
1771956828792468700,3.82946875,-0.0006539970636367798,-0.00005537690594792366,0.0014286882942542434
1771956828812430800,3.849430908203125,0.0007674472872167826,0.0023462558165192604,-0.000393236696254462
1771956828832393700,3.869393798828125,-0.0004959078505635262,-0.0015693106688559055,-0.0005356533220037818
1771956828852356600,3.889356689453125,0.0009062439203262329,0.0014933887869119644,0.000010042334906756878
1771956828872319700,3.90931982421875,0.002121185651049018,0.0015018219128251076,0.0008764336816966534
1771956828892282600,3.92928271484375,0.0014212839305400848,0.0004960312508046627,-0.0010650623589754105
1771956828912245800,3.949245849609375,-0.0012662606313824654,0.0014315755106508732,-0.0014015869237482548
1771956828932209000,3.969208984375,0.0008330601267516613,0.002814639825373888,-0.002520974725484848
1771956828952171800,3.989171875,-0.0013192766346037388,0.0014485265128314495,0.00011783849913626909
1771956828972135000,4.009135009765625,-0.0013719117268919945,0.0008722259663045406,0.0013915036106482148
1771956828992097800,4.029097900390625,0.0032166859600692987,-0.0005016820505261421,-0.00013698870316147804
1771956829012060700,4.049060791015625,0.0007810471579432487,-0.002114413771778345,0.0015309791779145598
1771956829032023600,4.0690234375,0.00018659932538866997,-0.0019051646813750267,-0.002253561746329069
1771956829051986700,4.088986572265625,-0.0004255683161318302,0.0019418359734117985,-0.0008159073768183589
1771956829071949800,4.10894970703125,0.0014698472805321217,0.002959513571113348,-0.0006650147843174636
1771956829091912700,4.12891259765625,-0.0018499605357646942,0.0018933149985969067,0.001385571900755167
1771956829111875800,4.148875732421875,-0.00022758450359106064,-0.0013055461458861828,0.0006847879849374294
1771956829131838700,4.168838623046875,-0.00011534430086612701,0.000830396544188261,0.000288170063868165
1771956829151800600,4.188800537109375,0.00037033273838460445,-0.00257882010191679,-0.0010716236429288983
1771956829171763700,4.208763671875,0.00045217759907245636,-0.001471913419663906,-0.0004406429943628609
1771956829191726600,4.2287265625,-0.0005127722397446632,0.000049388036131858826,0.0005891874898225069
1771956829211689700,4.248689697265625,-0.0003441711887717247,0.003751103300601244,-0.0029792459681630135
1771956829231652900,4.26865283203125,0.0014185253530740738,0.0011439495719969273,-0.0011307618115097284
1771956829251615700,4.28861572265625,0.00028830813243985176,-0.0005635945126414299,0.002744784113019705
1771956829271579000,4.308578857421875,-0.00014218920841813087,0.00043876515701413155,-0.000539693923201412
1771956829291541800,4.328541748046875,0.000638364814221859,-0.0011771866120398045,0.001002882025204599
1771956829311505000,4.3485048828125,0.0012099605519324541,0.0000975150614976883,0.0006806883029639721
1771956829331467500,4.368467529296875,-0.0006759664975106716,0.0012170784175395966,0.0009295778581872582
1771956829351430700,4.3884306640625,-0.0004894835874438286,0.0016351016238331795,0.0014036472421139479
1771956829371393800,4.408393798828125,-0.0012973658740520477,0.0008683046326041222,-0.0025866313371807337
1771956829391356700,4.428356689453125,0.0011185777839273214,-0.0003260849043726921,0.0008487430168315768
1771956829411319800,4.44831982421875,0.0025240557733923197,0.0002393326722085476,0.0008023250848054886
1771956829431282700,4.46828271484375,-0.00015222933143377304,-0.0008766553364694118,0.0005104721058160067
1771956829451245800,4.488245849609375,-0.000060105230659246445,0.003432451281696558,-0.0020473822951316833
1771956829471208700,4.508208740234375,0.0001923181116580963,0.00031350506469607353,-0.0023359586484730244
1771956829491171800,4.528171875,0.0015361618716269732,0.003138769418001175,-0.001218644785694778
1771956829511133700,4.5481337890625,0.00023569166660308838,-0.00012002978473901749,0.0007813691045157611
1771956829531096600,4.5680966796875,0.0024260012432932854,0.0005278256721794605,0.000974573427811265
1771956829551059700,4.588059814453125,0.00047015841118991375,-0.0014451849274337292,-0.001338390982709825
1771956829571022800,4.60802294921875,-0.000040823593735694885,-0.0005587609484791756,-0.001394590362906456
1771956829590985700,4.62798583984375,0.0010742605663836002,-0.00041403621435165405,0.0008078443352133036
1771956829610949600,4.64794970703125,-0.0021169790998101234,0.0034092902205884457,0.0005330794956535101
1771956829630912500,4.66791259765625,0.0018112952820956707,0.0023138616234064102,-0.0010730428621172905
1771956829650875600,4.687875732421875,0.0012091437820345163,0.0013963067904114723,0.0014681026805192232
1771956829670838500,4.707838623046875,-0.002106552943587303,-0.003139384090900421,0.001000510063022375
1771956829690801700,4.7278017578125,-0.0007824390195310116,-0.00005456944927573204,-0.00004178407834842801
1771956829710764500,4.7477646484375,-0.001652061939239502,0.0009437389671802521,-0.001785369822755456
1771956829730727700,4.767727783203125,-0.0009282701648771763,0.0012000701390206814,-0.00026820768835023046
1771956829750690800,4.78769091796875,0.0003105707000941038,0.002378812525421381,-0.0009319934761151671
1771956829770653700,4.80765380859375,-0.00045328447595238686,0.0022675939835608006,0.002168461447581649
1771956829790616800,4.827616943359375,0.0002510296180844307,-0.0004959721118211746,-0.00041218282422050834
1771956829810579500,4.847579345703125,0.0015569564420729876,-0.0025554755702614784,-0.00020761037012562156
1771956829830542600,4.86754248046875,-0.0008625476621091366,-0.003216821700334549,-0.00000809540506452322
1771956829850505500,4.88750537109375,0.00007338915020227432,-0.002482860814779997,0.0013661716366186738
1771956829870467600,4.907467529296875,0.000019238796085119247,0.002339548896998167,-0.00002304650843143463
1771956829890430700,4.9274306640625,-0.0001519382931292057,0.0010328488424420357,-0.00022952910512685776
1771956829910393600,4.9473935546875,-0.00121684605255723,-0.000035847071558237076,-0.002503017196431756
1771956829930356700,4.967356689453125,0.0018207412213087082,-0.0022742860019207,0.0007331025553867221
1771956829950319900,4.98731982421875,-0.0015434599481523037,0.0007072333246469498,0.001054790336638689
1771956829970282500,5.007282470703125,-0.0007945150136947632,-0.00003654276952147484,0.0014139980776235461
1771956829990245600,5.02724560546875,0.00006797444075345993,0.0036261342465877533,-0.0034528393298387527
1771956830010208500,5.04720849609375,0.0011653671972453594,0.00018324516713619232,-0.00007932353764772415
1771956830030171600,5.067171630859375,-0.0015893043018877506,0.00007304688915610313,0.0003401918802410364
1771956830050134800,5.087134765625,-0.0005096858367323875,0.0007682498544454575,0.0013923263177275658
1771956830070097700,5.10709765625,0.0009480442386120558,-0.0028087766841053963,0.002229270525276661
1771956830090060800,5.127060791015625,-0.0024170028045773506,-0.0004222397692501545,-0.00027142500039190054
1771956830110023700,5.147023681640625,0.00007457565516233444,0.0007382156327366829,-0.001100844470784068
1771956830129986800,5.16698681640625,-0.0010126628912985325,0.0009118607267737389,0.0017022518441081047
1771956830149949400,5.186949462890625,-0.0012114676646888256,0.002145556267350912,-0.0008797136251814663
1771956830169912600,5.20691259765625,0.0020314150024205446,0.00021866336464881897,0.0011632698588073254
1771956830189875700,5.226875732421875,-0.0008118259720504284,0.0007546362467110157,-0.0014985169982537627
1771956830209837600,5.246837646484375,0.0012208330444991589,-0.001468501053750515,-0.0014126431196928024
1771956830229800700,5.26680078125,0.00095143704675138,-0.0004362007603049278,0.00004717620322480798
1771956830249763800,5.286763916015625,0.000412260415032506,0.0011881678365170956,0.0003019225550815463
1771956830269726700,5.306726806640625,0.0005719172768294811,0.00333935534581542,-0.0013250515330582857
1771956830289689600,5.326689697265625,-0.002173356246203184,0.0030496069230139256,-0.0012470720103010535
1771956830309652500,5.346652587890625,-0.0018217242322862148,0.0007654987275600433,-0.00028809503419324756
1771956830329615600,5.36661572265625,-0.0005612890236079693,-0.0016320254653692245,0.0005972927319817245
1771956830349578500,5.38657861328125,-0.0008045709691941738,-0.0015604929067194462,-0.0013642583508044481
1771956830369541600,5.406541748046875,0.0007593582849949598,-0.0017368635162711143,0.0023490991443395615
1771956830389504800,5.4265048828125,0.0015806020237505436,0.0018271557055413723,-0.0022946104872971773
1771956830409467600,5.446467529296875,0.0006018627900630236,0.0014363699592649937,-0.0017649959772825241
1771956830429430800,5.4664306640625,-0.00026057660579681396,0.001552946399897337,-0.0005704649374820292
1771956830449393700,5.4863935546875,-0.0005339393392205238,-0.0004932773299515247,0.0021451874636113644
1771956830469356800,5.506356689453125,0.001271235989406705,-0.0009158588945865631,0.0011423807591199875
1771956830489319700,5.526319580078125,0.00030488334596157074,-0.0023874989710748196,0.001595006324350834
1771956830509282600,5.546282470703125,-0.0003937189467251301,-0.00028410647064447403,0.002502482384443283
1771956830529245700,5.56624560546875,-0.002082252874970436,0.002921760082244873,-0.0016196302603930235
1771956830549207800,5.586207763671875,0.0002927510067820549,0.0026051769964396954,0.00016281608259305358
1771956830569170700,5.606170654296875,-0.0026324335485696793,0.0014936607331037521,-0.0010490056592971087
1771956830589133800,5.6261337890625,-0.0007323776371777058,-0.0038373719435185194,0.002567811170592904
1771956830609096000,5.646095947265625,-0.001731199212372303,0.0006281235255300999,-0.0016324049793183804
1771956830629058800,5.666058837890625,0.0003664265386760235,-0.0007287375628948212,-0.001469781156629324
1771956830649022000,5.68602197265625,0.0008749268017709255,0.0018135984428226948,0.00047213828656822443
1771956830668984800,5.70598486328125,0.0014014830812811852,0.0002634553238749504,-0.0023667141795158386
1771956830688948000,5.725947998046875,0.0003615680616348982,0.0035081440582871437,0.0015128499362617731
1771956830708910800,5.745910888671875,0.00026108138263225555,-0.0013439352624118328,-0.00006836710963398218
1771956830728874000,5.7658740234375,0.0013424786739051342,0.0004611271433532238,-0.001336096553131938
1771956830748836900,5.7858369140625,-0.0013526398688554764,-0.0012492197565734386,0.0016707624308764935
1771956830768799700,5.8057998046875,2.9569491744041443e-7,-0.00036426959559321404,-0.001273574074730277
1771956830788763000,5.825762939453125,-0.00019173603504896164,0.001362441573292017,0.000007710885256528854
1771956830808725800,5.845725830078125,-0.00043497513979673386,0.002373631577938795,0.0002255394938401878
1771956830828689000,5.86568896484375,-0.0009653633460402489,-0.00032954150810837746,0.0010960977524518967
1771956830848651800,5.88565185546875,0.000019785482436418533,0.0007625380530953407,0.0007012102287262678
1771956830868614000,5.90561376953125,-0.0018854369409382343,0.0010033324360847473,-0.0018635985907167196
1771956830888577000,5.925576904296875,-0.0000975271686911583,-0.0015392489731311798,-0.0011598598212003708
1771956830908539600,5.94553955078125,-0.002193762455135584,0.004457490053027868,-0.002521384274587035
1771956830928502800,5.965502685546875,-0.001543835736811161,0.0033188057132065296,-0.00002190796658396721
1771956830948466000,5.9854658203125,-0.0006527057848870754,0.001541330013424158,-0.0006005249451845884
1771956830968428800,6.0054287109375,0.002890818752348423,-0.0012293709442019463,0.002050100127235055
1771956830988392000,6.025391845703125,-0.0002996041439473629,-0.003663166193291545,0.0037674293853342533
1771956831008354800,6.045354736328125,0.0014700805768370628,-0.0013091620057821274,0.0018551975954324007
1771956831028318000,6.06531787109375,-0.0017523285932838917,0.000660779420286417,-0.0013678295072168112
1771956831048280800,6.08528076171875,0.000569948460906744,0.0030189016833901405,-0.00011969008482992649
1771956831068244000,6.105243896484375,-0.002235421910881996,0.000882334541529417,0.0004912120057269931
1771956831088206800,6.125206787109375,0.0014921354595571756,-0.00020171841606497765,-0.001059775473549962
1771956831108169700,6.145169677734375,7.995404303073883e-7,-0.00048460578545928,0.001398436608724296
1771956831128132900,6.1651328125,-0.0009160609915852547,-0.0009850626811385155,0.0023888787254691124
1771956831148095700,6.185095703125,-0.00023436173796653748,0.00017785979434847832,0.003213746938854456
1771956831168059000,6.205058837890625,-0.0005322340875864029,0.0006018658168613911,0.002419783966615796
1771956831188022000,6.22502197265625,-0.0001762048341333866,0.003387926146388054,-0.0008953837095759809
1771956831207983900,6.24498388671875,0.0003124901559203863,0.0033417153172194958,0.0005050731124356389
1771956831227946800,6.26494677734375,0.0016436376608908176,0.00047897500917315483,0.0001949415891431272
1771956831247910000,6.284909912109375,-0.0005061314441263676,0.00031443964689970016,-0.0006674023461528122
1771956831267872800,6.304872802734375,0.0011757519096136093,-0.0031735398806631565,-0.0012853452935814857
1771956831287836000,6.3248359375,-0.002893253695219755,-0.00218190997838974,-0.0008847414865158498
1771956831307798800,6.344798828125,-0.0004961169324815273,0.0018731700256466866,-0.0020946175791323185
1771956831327762000,6.364761962890625,-0.0006457841955125332,0.0023969444446265697,-0.00046481273602694273
1771956831347724800,6.384724853515625,0.0004582356195896864,0.0003745993599295616,0.0017387650441378355
1771956831367688000,6.40468798828125,-0.0008448632434010506,-0.0007308507338166237,-0.00272640329785645
1771956831387651000,6.424651123046875,-0.0010262411087751389,0.001443054061383009,-0.002066441345959902
1771956831407613700,6.44461376953125,-0.003129015676677227,-0.0000832010991871357,-0.0014729307731613517
1771956831427576800,6.464576904296875,-0.0005206339992582798,-0.0012786220759153366,-0.0000728267477825284
1771956831447539700,6.484539794921875,-0.0007184022106230259,0.00249790633097291,0.0009529520175419748
1771956831467502800,6.5045029296875,-0.00020031630992889404,0.0024087615311145782,0.0008310716948471963
1771956831487466000,6.524466064453125,0.0023956671357154846,-0.0004042745567858219,-0.00045081012649461627
1771956831507428900,6.544428955078125,0.0007667955942451954,0.0005166586488485336,0.00263394508510828
1771956831527391000,6.564390869140625,0.0015084042679518461,0.00040241144597530365,0.00013788737123832107
1771956831547353900,6.584353759765625,0.0016277290415018797,-0.0016101161018013954,0.0006550405523739755
1771956831567316700,6.604316650390625,-0.0002626008354127407,-0.00010877428576350212,-0.0014179942663758993
1771956831587280000,6.62427978515625,-0.0007220595143735409,0.00017226487398147583,0.0007745775510556996
1771956831607243500,6.644243408203125,0.00008781068027019501,0.0023493929766118526,-0.00017660425510257483
1771956831627206700,6.66420654296875,-0.000481422059237957,0.00024605682119727135,-0.0009245537221431732
1771956831647169500,6.68416943359375,0.001254594186320901,-0.002602499909698963,-0.00005264615174382925
1771956831667132700,6.704132568359375,-0.001429988071322441,0.0014987573958933353,-0.001299708615988493
1771956831687095600,6.724095458984375,-0.0018232944421470165,-0.00025721965357661247,-0.000977503601461649
1771956831707058700,6.74405859375,0.0006079263985157013,0.001541240606456995,-0.0016679189866408706
1771956831727021600,6.764021484375,-0.0009548971429467201,0.0013761580921709538,-0.0009000881691463292
1771956831746984700,6.783984619140625,-0.00033596670255064964,0.0024714809842407703,-0.000686455168761313
1771956831766947600,6.803947509765625,0.0002033696509897709,-0.0006107371300458908,0.0008838680223561823
1771956831786910500,6.823910400390625,0.0015837687533348799,-0.001773265190422535,0.002645321888849139
1771956831806873600,6.84387353515625,-0.0015358831733465195,-0.0008966438472270966,-0.0012028581695631146
1771956831826836500,6.86383642578125,-0.000033103860914707184,-0.0008258558809757233,-0.00020951515762135386
1771956831846799600,6.883799560546875,0.0012363956775516272,0.0034728501923382282,-0.0014756305608898401
1771956831866761700,6.90376171875,-0.0026473170146346092,0.0019953162409365177,-0.0010733790695667267
1771956831886724600,6.923724609375,-0.0010022656060755253,0.0031397114507853985,-0.0011482448317110538
1771956831906687500,6.9436875,-0.0003246394917368889,-0.0002466505393385887,0.00026071059983223677
1771956831926650600,6.963650634765625,-0.001707867719233036,0.000005818437784910202,0.0016654039500281215
1771956831946613500,6.983613525390625,-0.0008208011277019978,0.00010025221854448318,0.002513572573661804
1771956831966576600,7.00357666015625,-0.002281574532389641,0.0007965122349560261,-0.00008329038973897696
1771956831986539500,7.02353955078125,0.00012638838961720467,0.00021711690351366997,-0.00042319251224398613
1771956832006502700,7.043502685546875,0.0015696038026362658,0.0032956860959529877,-0.0012580096954479814
1771956832026465500,7.063465576171875,0.0015684841200709343,0.0005030324682593346,-0.0018420511623844504
1771956832046428700,7.0834287109375,-0.00008624326437711716,-0.00044494355097413063,0.0006646759575232863
1771956832066391800,7.103391845703125,-0.0004343166947364807,-0.0020542205311357975,0.0021729818545281887
1771956832086354700,7.123354736328125,0.0004102056846022606,-0.0006755613721907139,-0.00023733056150376797
1771956832106317600,7.143317626953125,-0.0007028905674815178,0.0014996877871453762,0.0005703499773517251
1771956832126280400,7.163280517578125,-0.0007036169990897179,0.0033614258281886578,0.0002829678705893457
1771956832146243600,7.18324365234375,0.0008112650830298662,0.0008471724577248096,0.0006559311877936125
1771956832166205700,7.203205810546875,-0.0011975876986980438,-0.001969162840396166,0.001627432182431221
1771956832186168600,7.22316845703125,-0.0007730326615273952,-0.0034221308305859566,0.0010668945033103228
1771956832206131700,7.243131591796875,-0.0017714262939989567,-0.0005463510751724243,-0.001731514697894454
1771956832226094800,7.2630947265625,0.001647677505388856,-0.000760531984269619,0.000019788392819464207
1771956832246057500,7.283057373046875,-0.0014244993217289448,0.002476160414516926,0.00020093173952773213
1771956832266020600,7.3030205078125,0.0015071379020810127,0.003527382854372263,-0.0024582012556493282
1771956832285983500,7.3229833984375,0.00004993099719285965,0.0005243108607828617,0.0003283077967353165
1771956832305946600,7.342946533203125,-0.002320569008588791,0.00018432177603244781,-0.00006458070129156113
1771956832325909500,7.362909423828125,0.0020174153614789248,-0.002809136640280485,0.0036120566073805094
1771956832345872600,7.38287255859375,0.0006695890333503485,-0.0015705623663961887,0.0009454797836951911
1771956832365835800,7.402835693359375,-0.0014429176226258278,-0.0007264171727001667,0.00008462631376460195
1771956832385798700,7.422798583984375,-0.0006708372384309769,0.002049433533102274,-0.002609188435599208
1771956832405761800,7.44276171875,0.0016056641470640898,0.001955417450517416,0.00019808264914900064
1771956832425724400,7.462724365234375,-0.00000893743708729744,0.0004730629734694958,-0.003132678335532546
1771956832445687600,7.4826875,0.0013427149970084429,-0.003121711313724518,-0.0005487025482580066
1771956832465650400,7.502650390625,-0.0014555854722857475,-0.00265779672190547,0.0013947985135018826
1771956832485612500,7.522612548828125,-0.001356006134301424,0.0014635007828474045,-0.0015125484205782413
1771956832505575700,7.54257568359375,-0.00019926903769373894,-0.0011825249530375004,-0.0009974977001547813
1771956832525538600,7.56253857421875,-0.0023180386051535606,0.0017025331035256386,-0.00039384019328281283
1771956832545501700,7.582501708984375,-0.0010203872807323933,0.00021245423704385757,0.0015555184800177813
1771956832565464600,7.602464599609375,0.0008679574821144342,-0.00040863920003175735,-0.00007050985004752874
1771956832585427500,7.622427490234375,0.0011440292000770569,-0.0011233915574848652,0.0034958189353346825
1771956832605390300,7.642390380859375,0.001186230219900608,-0.00004989234730601311,-0.0005105185555294156
1771956832625353200,7.662353271484375,-0.0021636951714754105,0.0006361440755426884,-0.001720003318041563
1771956832645316400,7.68231640625,-0.00024717487394809723,0.0006322022527456284,-0.002280364977195859
1771956832665279500,7.702279541015625,-0.0017377529293298721,0.0022430908866226673,-0.0003565367660485208
1771956832685242000,7.7222421875,-0.001132424920797348,-0.00031659193336963654,-0.0005157593404874206
1771956832705205200,7.742205322265625,-0.0009215725585818291,-0.002033521421253681,0.0014587481273338199
1771956832725168000,7.762168212890625,-0.0017527258023619652,-0.0009843241423368454,0.0019909886177629232
1771956832745131300,7.78213134765625,0.00174685288220644,-0.00043117580935359,-0.00024257047334685922
1771956832765094400,7.802094482421875,0.0013912778813391924,0.0008150599896907806,-0.0003747673472389579
1771956832785056300,7.82205615234375,-0.00026236334815621376,0.0014306800439953804,-0.0015077597927302122
1771956832805019400,7.842019287109375,-0.0019260598346590996,0.0031361477449536324,-0.0007633875939063728
1771956832824982300,7.861982177734375,0.0018382116686552763,0.0001929132267832756,-0.0008116220124065876
1771956832844945200,7.881945068359375,0.00012334994971752167,0.0004822690971195698,-0.001297002425417304
1771956832864908300,7.901908203125,-0.0014108135364949703,-0.000280523207038641,0.000596295518334955
1771956832884871200,7.92187109375,-0.0014285026118159294,-0.0025404514744877815,0.0006798437680117786
1771956832904834300,7.941834228515625,-0.002574498765170574,0.0020674574188888073,-0.0001100379740819335
1771956832924797200,7.961797119140625,0.00023452425375580788,0.0031570871360599995,0.0009525365894660354
1771956832944760300,7.98176025390625,0.0026326861698180437,-0.0028559742495417595,0.0021836995147168636
1771956832964723500,8.001723388671875,-0.0008953181095421314,0.0001497305929660797,0.0019214890198782086
1771956832984686300,8.021686279296874,-0.0003010854125022888,-0.0007157055661082268,0.002991604618728161
1771956833004649500,8.0416494140625,-0.0026265266351401806,-0.0034748329780995846,0.002466457663103938
1771956833024612000,8.061612060546874,0.0024530054070055485,0.0006708051078021526,-0.002330876886844635
1771956833044575200,8.0815751953125,-0.0007350780069828033,0.0016630315221846104,0.001480442937463522
1771956833064538400,8.101538330078125,0.0006799681577831507,0.0016880324110388756,0.0003204544191248715
1771956833084500200,8.121500244140625,0.000912827905267477,0.0003981557674705982,-0.0012866362230852246
1771956833104463400,8.14146337890625,0.0010714763775467873,-0.001842062920331955,0.003436465747654438
1771956833124426200,8.16142626953125,0.0005185704212635756,-0.0016206982545554638,0.002235627034679055
1771956833144389400,8.181389404296874,0.0007657324895262718,-0.003304386045783758,0.002520935609936714
1771956833164352300,8.201352294921875,0.0002512405626475811,0.0006400696001946926,-0.0021380067337304354
1771956833184315100,8.221315185546874,-0.0004934770986437798,0.00283207930624485,-0.0014157049590721726
1771956833204278300,8.2412783203125,0.000781170092523098,-0.0004027863033115864,0.0007984908297657967
1771956833224241200,8.2612412109375,0.0015195407904684544,0.0012360918335616589,0.0004389564273878932
1771956833244204300,8.281204345703125,-0.0014564725570380688,-0.0022087274119257927,0.0026586169842630625
1771956833264167400,8.30116748046875,-0.0014355047605931759,-0.0018581710755825043,-0.00038175570080056787
1771956833284130300,8.32113037109375,0.0009400469716638327,-0.0015352265909314156,0.001750429393723607
1771956833304093400,8.341093505859375,-0.0012698657810688019,0.005273506511002779,-0.0011166776530444622
1771956833324056300,8.361056396484376,-0.00022739451378583908,0.0019323932938277721,-0.0013309363275766373
1771956833344019200,8.381019287109375,-0.0008475519716739655,0.000010692514479160309,-0.0013973466120660305
1771956833363982000,8.400982177734376,0.0003721213433891535,-0.0022341134026646614,0.0002892324700951576
1771956833383944200,8.420944091796875,-0.0015885671600699425,-0.0006060567684471607,0.002667431952431798
1771956833403907300,8.4409072265625,0.0015084254555404186,-0.0009422292932868004,0.0022527307737618685
1771956833423870200,8.4608701171875,-0.0005251192487776279,0.00009490596130490303,0.0012251073494553566
1771956833443833300,8.480833251953126,-0.00024354131892323494,0.0036938576959073544,-0.0017505672294646502
1771956833463796500,8.50079638671875,-0.00044106412678956985,0.001256347168236971,-0.0014299869071692228
1771956833483759000,8.520759033203126,0.00000797118991613388,0.001481704879552126,0.001059295842424035
1771956833503722200,8.54072216796875,0.0003271494060754776,-0.0027047516778111458,0.0013084617676213384
1771956833523685000,8.56068505859375,-0.0005059181712567806,-0.0008996268734335899,0.0004212465137243271
1771956833543648300,8.580648193359375,0.0004768366925418377,-0.0024301353842020035,0.0016336145345121622
1771956833563611400,8.600611328125,-0.00048045674338936806,-0.000019426923245191574,-0.0013499874621629715
1771956833583574300,8.62057421875,0.002656717784702778,0.0006425553001463413,-0.00016163283726200461
1771956833603537700,8.64053759765625,-0.0010725399479269981,0.0024118609726428986,0.0017421910306438804
1771956833623500500,8.66050048828125,0.0005243439227342606,-0.001366359181702137,-0.0013306662440299988
1771956833643463700,8.680463623046874,0.00010130787268280983,-0.0018543773330748081,0.0034634859766811132
1771956833663426600,8.700426513671875,-0.0015266421250998974,-0.0008052801713347435,-0.00023286096984520555
1771956833683388400,8.720388427734376,0.0008630873635411263,0.0005631959065794945,-0.0009502142784185708
1771956833703351600,8.7403515625,0.0010150454472750425,0.0035875877365469933,0.00024977204157039523
1771956833723314400,8.760314453125,0.0002426309511065483,0.003315984271466732,-0.00020822638180106878
1771956833743277600,8.780277587890625,-0.0012281183153390884,0.0012842933647334576,-0.0003353195497766137
1771956833763240400,8.800240478515626,-0.0010230597108602524,-0.0013064080849289894,0.0016839222516864538
1771956833783203600,8.82020361328125,0.000593339093029499,-0.00011996878311038017,-0.0015143838245421648
1771956833803166700,8.840166748046874,-0.00047350814566016197,0.0008765142410993576,0.0009790526237338781
1771956833823129300,8.86012939453125,0.0013246370945125818,0.0030278125777840614,-0.0006362659623846412
1771956833843092500,8.880092529296874,-0.0005297055467963219,0.0016857348382472992,-0.0013017517048865557
1771956833863055400,8.900055419921875,0.0002017337828874588,-0.00009683193638920784,0.0009081100579351187
1771956833883018500,8.9200185546875,0.0024464386515319347,0.0023534176871180534,-0.0010179285891354084
1771956833902981600,8.939981689453125,0.0009760698303580284,-0.00031768158078193665,0.0028018595185130835
1771956833922944500,8.959944580078124,-0.0011724503710865974,-0.0006102588959038258,0.00032533856574445963
1771956833942907600,8.97990771484375,0.0014649741351604462,-0.001670678611844778,-0.00022325897589325905
1771956833962869800,8.999869873046874,0.0003187875263392925,0.0023958063684403896,0.0013691261410713196
1771956833982832400,9.019832275390625,-0.00004538334906101227,0.0029502580873668194,-0.0009131199913099408
1771956834002795500,9.03979541015625,-0.0007842825725674629,0.001514542382210493,-0.001267177751287818
1771956834022758400,9.05975830078125,0.000427846796810627,0.00024439580738544464,0.00189571687951684
1771956834042721500,9.079721435546874,0.00034814560785889626,-0.002885955385863781,0.0019488247344270349
1771956834062684400,9.099684326171875,-0.002436518669128418,0.0012150304391980171,0.0015543517656624317
1771956834082647600,9.1196474609375,0.0005256796721369028,-0.001107652671635151,0.0005742434877902269
1771956834102610700,9.139610595703125,0.0017029738519340754,0.002823006361722946,0.0007153844344429672
1771956834122573600,9.159573486328124,0.0010976605117321014,0.0023694350384175777,-0.0021432440262287855
1771956834142536700,9.17953662109375,-0.00013746414333581924,0.0006281971000134945,0.0001792393159121275
1771956834162499300,9.199499267578124,-0.00016920734196901321,-0.002781172748655081,0.00012639188207685947
1771956834182462500,9.21946240234375,-0.0012596715241670609,-0.002796230372041464,0.0014204299077391624
1771956834202425600,9.239425537109375,-0.0012851404026150703,-0.0013979282230138779,0.0005737882456742227
1771956834222388500,9.259388427734375,0.001076416578143835,-0.00006125401705503464,-0.0023900303058326244
1771956834242351600,9.2793515625,-0.00008652638643980026,0.0006058388389647007,-0.0019990154542028904
1771956834262313700,9.299313720703125,-0.0036214590072631836,0.0006021289154887199,-0.0012083831243216991
1771956834282276600,9.319276611328124,0.0026661637239158154,0.000008017756044864655,-0.0005208929069340229
1771956834302239500,9.339239501953125,-0.0011924374848604202,-0.0006708279252052307,0.00020167377078905702
1771956834322202400,9.359202392578124,0.003360398579388857,-0.0007864623330533504,0.0000864198082126677
1771956834342165500,9.37916552734375,-0.0013225204311311245,0.000017642974853515625,0.001523757353425026
1771956834362128400,9.39912841796875,-0.0021484442986547947,0.0025278814136981964,-0.0008252545376308262
1771956834382091500,9.419091552734375,0.0007431423291563988,0.0020730835385620594,0.0014697940787300467
1771956834402054700,9.4390546875,-0.0007542679086327553,0.00021843984723091125,-0.00236536655575037
1771956834422017500,9.459017578125,0.0013461201451718807,-0.00018831714987754822,-0.0014669181546196342
1771956834441980700,9.478980712890625,0.0006237286143004894,-0.0005950843915343285,-0.00038587499875575304
1771956834461943600,9.498943603515626,0.0014088896568864584,-0.0013727303594350815,0.0010813409462571144
1771956834481906400,9.518906494140625,-0.00006252899765968323,-0.0003178892657160759,0.0012126120273023844
1771956834501869600,9.53886962890625,-0.0022487551905214787,0.0021738074719905853,0.0004577009240165353
1771956834521832400,9.55883251953125,0.00012071523815393448,0.000750246923416853,-0.0004766224301420152
1771956834541794600,9.578794677734376,-0.0011300104670226574,-0.00031560473144054413,-0.001017902628518641
1771956834561757400,9.59875732421875,-0.00006317580118775368,-0.0021269149146974087,-0.001386904390528798
1771956834581720600,9.618720458984376,-0.0002232445403933525,-0.0008340640924870968,0.002685549668967724
1771956834601683700,9.63868359375,0.0013045649975538254,0.002098920289427042,0.0002463331911712885
1771956834621646600,9.658646484375,-0.000022767111659049988,0.001010808628052473,0.002430160064250231
1771956834641609700,9.678609619140625,0.00020261667668819427,0.003892946522682905,-0.0015072354581207037
1771956834661572600,9.698572509765626,0.001857286086305976,-0.00041174469515681267,-0.0031187846325337887
1771956834681535700,9.71853564453125,0.0014727397356182337,-0.0024351635947823524,0.000465300923679024
1771956834701498600,9.73849853515625,0.00023967446759343147,-0.001325317658483982,0.0005837859935127199
1771956834721461500,9.75846142578125,-0.00010407762601971626,-0.003916377667337656,-0.0008785136742517352
1771956834741424600,9.778424560546876,-0.0031031551770865917,-0.00010449299588799477,-0.001584566431120038
1771956834761387500,9.798387451171875,-0.001401709858328104,0.0005047237500548363,-0.0006779520772397518
1771956834781350700,9.8183505859375,0.0006659626960754395,0.0039160167798399925,-0.0020786109380424023
1771956834801312800,9.838312744140625,0.00001839781180024147,-0.0006117396987974644,0.0005562874721363187
1771956834821275600,9.858275634765626,0.0005238857120275497,-0.001122557558119297,0.0009339026873931289
1771956834841238500,9.878238525390625,0.00027805380523204803,-0.0007240306586027145,-0.0007477577310055494
1771956834861201400,9.898201416015626,-0.0018869363702833652,0.0003349119797348976,-0.0014829830033704638
1771956834881164500,9.91816455078125,0.0003690843004733324,0.001372525468468666,-0.0020707601215690374
1771956834901127700,9.938127685546876,0.00101214530877769,0.00047125061973929405,-0.0031791229266673326
1771956834921090600,9.958090576171875,-0.00033026933670043945,0.00006772670894861221,0.0004485371755436063
1771956834941053700,9.9780537109375,0.0006619892083108425,0.0013837981969118118,0.0011896546930074692
1771956834961016600,9.9980166015625,0.000005266629159450531,-0.0020908433943986893,0.0005979703273624182
1771956834980979700,10.017979736328124,0.0036425990983843803,0.0005197352729737759,-0.00006407115142792463
1771956835000942600,10.037942626953125,-0.0012590410187840462,0.0001764693297445774,0.001990372547879815
1771956835020905700,10.05790576171875,-0.0011428468860685825,0.00046030525118112564,-0.00230737985111773
1771956835040868600,10.07786865234375,0.003434434998780489,0.003149696160107851,-0.002422256860882044
1771956835060831500,10.09783154296875,0.0001341584138572216,0.0009740018285810947,0.001394900493323803
1771956835080793600,10.117793701171875,-0.001165970228612423,0.0012357239611446857,0.0001193551579490304
1771956835100756700,10.1377568359375,0.0003331676125526428,-0.0013289591297507286,0.001367043238133192
1771956835120719600,10.1577197265625,-0.003507502842694521,0.0012733153998851776,0.0019872449338436127
1771956835140682800,10.177682861328124,-0.0018930300138890743,-0.00015294039621949196,-0.0008112655486911535
1771956835160645600,10.197645751953125,-0.0008227471262216568,0.0001764264889061451,-0.00134252046700567
1771956835180608500,10.2176083984375,-0.00102901179343462,0.0005374657921493053,0.00020395603496581316
1771956835200571600,10.237571533203125,-0.0010349196381866932,0.0004347502253949642,-0.0013909920817241073
1771956835220534500,10.257534423828124,0.00192930456250906,0.0009139347821474075,-0.0012722497340291739
1771956835240497700,10.27749755859375,0.0007937147747725248,0.002001626882702112,0.0004513466265052557
1771956835260460500,10.29746044921875,0.0013907349202781916,-0.0013108034618198872,-0.0027238246984779835
1771956835280423700,10.317423583984375,-0.0021916422992944717,0.0023793382570147514,-0.0003969355602748692
1771956835300386600,10.337386474609374,-0.0002758991904556751,0.0007967492565512657,-0.004475787281990051
1771956835320349700,10.357349609375,0.00021766847930848598,0.003069416619837284,-0.002730162814259529
1771956835340311600,10.3773115234375,-0.001668773591518402,-0.0001238747499883175,-0.00430501252412796
1771956835360274400,10.3972744140625,0.0006985270883888006,-0.002468221355229616,0.002306484617292881
1771956835380237600,10.417237548828124,-0.003335141111165285,-0.00023388024419546127,0.0022659585811197758
1771956835400200700,10.43720068359375,-0.0027524069882929325,0.0001188213936984539,0.00037262693513184786
1771956835420163600,10.45716357421875,0.0006074421107769012,-0.0004296228289604187,0.0009231825824826956
1771956835440126700,10.477126708984375,0.00011958181858062744,0.000745097640901804,-0.000651952694170177
1771956835460089600,10.497089599609374,0.0014569088816642761,0.0006898585706949234,-0.003515159245580435
1771956835480052700,10.517052734375,0.000479505630210042,-0.0027157780714333057,0.002538624219596386
1771956835500015600,10.537015625,0.000239240238443017,-0.0028650108724832535,0.0015088169602677226
1771956835519978500,10.556978515625,-0.00001818360760807991,0.0008669216185808182,-0.000956605828832835
1771956835539941600,10.576941650390625,0.0013330918736755848,0.002056764904409647,-0.0010405713692307472
1771956835559904500,10.596904541015626,0.0003862762823700905,-0.000028615817427635193,0.001964704832062125
1771956835579867600,10.61686767578125,-0.0006791446357965469,0.0027488544583320618,-0.0013322921004146338
1771956835599829000,10.6368291015625,-0.00045119691640138626,0.0007119504734873772,0.00009020499419420958
1771956835619792000,10.6567919921875,-0.0009862184524536133,-0.000680927187204361,-0.0015154595021158457
1771956835639755000,10.676755126953125,-0.0011982494033873081,0.02856001816689968,0.030475597828626633
1771956835659718100,10.69671826171875,-0.004181767348200083,0.08851400017738342,0.11158773303031921
1771956835679681000,10.716680908203125,0.003292361507192254,-0.035139769315719604,-0.0530940517783165
1771956835699644200,10.73664404296875,0.005569529719650745,-0.10165843367576599,-0.11271937191486359
1771956835719606800,10.756606689453125,0.004489686340093613,0.00020809005945920944,-0.004127738066017628
1771956835739570000,10.77656982421875,0.0010024094954133034,-0.048947837203741074,-0.04249773919582367
