time,seconds_elapsed,z,y,x
1771956838104898800,0.07489892578125,-0.00018016481772065163,-0.0004914803430438042,-0.0003878824063576758
1771956838124861700,0.09486181640625,-0.00017980672419071198,-0.0029008672572672367,0.0008159069111570716
1771956838144824800,0.114824951171875,0.001010846346616745,0.009608075022697449,0.004069171845912933
1771956838164787700,0.13478759765625,0.0024842023849487305,0.002882903441786766,-0.00045406795106828213
1771956838184750800,0.154750732421875,-0.00023167068138718605,0.004929434508085251,0.008773379027843475
1771956838204713700,0.174713623046875,0.00008361367508769035,0.0005653039552271366,0.0034042824991047382
1771956838224676600,0.194676513671875,0.0025355862453579903,-0.0106817577034235,-0.007147427648305893
1771956838244639700,0.2146396484375,0.0014382235240191221,-0.0028333053924143314,-0.004648813046514988
1771956838264601600,0.2346015625,-0.000039041973650455475,-0.0026235650293529034,-0.005811586044728756
1771956838284564700,0.254564697265625,-0.001642199233174324,-0.0006149085238575935,0.0010164676932618022
1771956838304528000,0.27452783203125,0.0002571358345448971,0.0032943543046712875,0.003497899044305086
1771956838324490800,0.29449072265625,0.00039060343988239765,0.004643935244530439,0.0044410512782633305
1771956838344454000,0.314453857421875,0.000381652032956481,-0.0023598033003509045,0.00005256745498627424
1771956838364416500,0.33441650390625,-0.00020840484648942947,-0.001362142153084278,0.000594610464759171
1771956838384379600,0.354379638671875,0.0014569086488336325,0.0025459378957748413,0.0010040653869509697
1771956838404342500,0.374342529296875,-0.00023679854348301888,0.003106899093836546,0.0006226756377145648
1771956838424305700,0.3943056640625,-0.0005862736143171787,0.006860492751002312,0.0030244137160480022
1771956838444268800,0.414268798828125,-0.0008119647391140461,0.000884142704308033,0.0014384888345375657
1771956838464231700,0.434231689453125,0.0010337929707020521,-0.0044991131871938705,-0.0022778005804866552
1771956838484194800,0.45419482421875,-0.000236384104937315,-0.004198594018816948,-0.0019701686687767506
1771956838504157700,0.47415771484375,0.0018605692312121391,-0.003358755260705948,-0.004063081461936235
1771956838524120800,0.494120849609375,-0.00046266382560133934,0.0005806335248053074,-0.0008373712189495564
1771956838544082700,0.514082763671875,0.002469878178089857,0.0015874258242547512,-0.00044611573684960604
1771956838564045600,0.534045654296875,0.00026413495652377605,0.002062791958451271,0.0005167193012312055
1771956838584008700,0.5540087890625,-0.00027508335188031197,-0.0010052616707980633,0.0006758988602086902
1771956838603971800,0.573971923828125,0.001756483456119895,-0.0011834441684186459,0.0008558665867894888
1771956838623934700,0.593934814453125,-0.001155393198132515,0.0004242067225277424,0.0018423262517899275
1771956838643897900,0.61389794921875,-0.0007780804298818111,-0.0003506150096654892,0.003071501851081848
1771956838663860700,0.63386083984375,0.0012644901871681213,-0.0003604530356824398,0.002532007172703743
1771956838683823900,0.653823974609375,-0.00015081465244293213,0.0020527206361293793,-0.0014138186816126108
1771956838703786800,0.673786865234375,-0.00003890087828040123,-0.001343749463558197,-0.002374752191826701
1771956838723749600,0.69374951171875,0.000002678949385881424,-0.0026943637058138847,-0.000047883251681923866
1771956838743712800,0.713712646484375,-0.00015651201829314232,-0.0006882539018988609,-0.002192514482885599
1771956838763675600,0.733675537109375,-0.0018865959718823433,0.0012592817656695843,0.0005162607412785292
1771956838783638800,0.753638671875,0.0005640871822834015,-0.001478663645684719,0.00006271200254559517
1771956838803601000,0.773600830078125,-0.00046071363613009453,0.0005997680127620697,0.00014924025163054466
1771956838823563800,0.793563720703125,-0.0016570081934332848,0.0017456253990530968,-0.002468888880684972
1771956838843527000,0.81352685546875,-0.0005255583673715591,0.0016075982712209225,-0.0004925040993839502
1771956838863489800,0.83348974609375,-0.0005115880630910397,0.0016605043783783913,0.0026174578815698624
1771956838883452700,0.85345263671875,0.001104874536395073,0.00015480350703001022,0.0021284890826791525
1771956838903415600,0.87341552734375,0.00007602153345942497,-0.0002239653840661049,0.0006165629019960761
1771956838923378700,0.893378662109375,-0.0014781439676880836,0.0013535325415432453,-0.0012520377058535814
1771956838943341800,0.913341796875,-0.002729283180087805,0.0027394588105380535,-0.002608394017443061
1771956838963304700,0.9333046875,-0.0004107300192117691,0.0006976635195314884,-0.0008752949652262032
1771956838983267800,0.953267822265625,0.0002496275119483471,-0.001758903730660677,0.0025282998103648424
1771956839003230700,0.973230712890625,-0.001986048649996519,-0.0029631094075739384,-0.0024123862385749817
1771956839023193900,0.99319384765625,-0.0016205566935241222,-0.0018250835128128529,0.0007523858221247792
1771956839043156700,1.01315673828125,0.0004707612097263336,-0.0005816607736051083,-0.00011065998114645481
1771956839063118600,1.03311865234375,0.0006875467952340841,0.0008012577891349792,0.0006034071557223797
1771956839083081700,1.053081787109375,0.003134838305413723,0.001108441036194563,-0.0002098023542203009
1771956839103044900,1.073044921875,-0.0009075677953660488,-0.0001714932732284069,-0.0001040600473061204
1771956839123007700,1.0930078125,0.001982583198696375,0.00030321860685944557,0.00170795526355505
1771956839142971000,1.112970947265625,0.0025347955524921417,-0.0005627823993563652,0.0004662938881665468
1771956839162933800,1.132933837890625,-0.0006227255798876286,-0.0033045057207345963,-0.0006541270995512605
1771956839182897000,1.15289697265625,-0.0026571224443614483,0.001239921897649765,-0.0012656865874305367
1771956839202859500,1.172859619140625,-0.0008834972977638245,0.0022726752795279026,-0.0033080163411796093
1771956839222822700,1.19282275390625,-0.00038037868216633797,0.0024550650268793106,-0.0036342095118016005
1771956839242785800,1.212785888671875,-0.0016115810722112656,0.001073541585355997,0.0006425210740417242
1771956839262748700,1.232748779296875,0.0008011264726519585,-0.0022319965064525604,0.0018957469146698713
1771956839282711800,1.2527119140625,-0.0003046640194952488,-0.001838157419115305,-0.0009741547983139753
1771956839302674700,1.2726748046875,0.0011461104732006788,0.00034066708758473396,0.0006935399724170566
1771956839322637800,1.292637939453125,0.0004442173521965742,0.0030037476681172848,-0.0003037169808521867
1771956839342600000,1.312599853515625,-0.0005148430354893208,0.001277858391404152,-0.0009400412673130631
1771956839362562600,1.3325625,0.0005014294292777777,0.002929347101598978,-0.0007254821248352528
1771956839382525700,1.352525634765625,-0.002009713090956211,-0.0023179445415735245,-0.00010980438673868775
1771956839402488800,1.37248876953125,0.0020639437716454268,-0.0011689933016896248,-0.0012698329519480467
1771956839422451700,1.39245166015625,0.0011071297340095043,-0.003252060618251562,-0.001516544260084629
1771956839442414800,1.412414794921875,0.0006183937657624483,0.0048217992298305035,-0.003571373177692294
1771956839462377700,1.432377685546875,-0.0007103378884494305,0.0015273191966116428,-0.00036077608820050955
1771956839482340900,1.4523408203125,-0.000603456050157547,0.00022352766245603561,-0.0011894024210050702
1771956839502303700,1.4723037109375,-0.002513983752578497,0.0028632846660912037,-0.0015022933948785067
1771956839522267000,1.492266845703125,0.0012768199667334557,-0.003381403163075447,-0.00008058239473029971
1771956839542229800,1.512229736328125,0.0003662977833300829,-0.0014544986188411713,0.0012060286244377494
1771956839562192600,1.532192626953125,-0.002173114102333784,-0.0008799051865935326,-0.0005572142545133829
1771956839582155800,1.55215576171875,-0.0009899758733808994,0.0006847023032605648,-0.0018396317027509212
1771956839602119000,1.572118896484375,0.00044616986997425556,0.0028789881616830826,-0.0006706386338919401
1771956839622082000,1.59208203125,-0.00015624426305294037,0.0014576483517885208,-0.001594287110492587
1771956839642045000,1.612044921875,-0.002142056357115507,0.002414347603917122,-0.00019041792256757617
1771956839662008000,1.632008056640625,0.00006156414747238159,-0.0030671320855617523,-0.00008817901834845543
1771956839681971200,1.65197119140625,0.0007591901812702417,0.0014133327640593052,-0.0010626052971929312
1771956839701934000,1.67193408203125,-0.0011525587178766727,0.0009736241772770882,0.00019243441056460142
1771956839721897200,1.691897216796875,-0.0012836083769798279,0.000008652918040752411,-0.00291252788156271
1771956839741860000,1.711860107421875,-0.001162244938313961,0.0018714256584644318,-0.0005166224436834455
1771956839761823200,1.7318232421875,-0.00017699738964438438,0.0006239819340407848,-0.0005798083730041981
1771956839781786000,1.7517861328125,0.001055882778018713,0.0008680671453475952,-0.001893063890747726
1771956839801749000,1.7717490234375,0.0014689581003040075,-0.0031314310617744923,-0.00010125688277184963
1771956839821712100,1.791712158203125,-0.00014614500105381012,-0.0024752537719905376,-0.0010352834360674024
1771956839841675000,1.811675048828125,0.0000683637335896492,0.0015804157592356205,-0.0033390959724783897
1771956839861637000,1.83163720703125,-0.000035402365028858185,0.0011357758194208145,0.0007648804457858205
1771956839881600300,1.851600341796875,0.0018587058875709772,0.002177769783884287,0.0012554514687508345
1771956839901563100,1.871563232421875,-0.0009502395987510681,0.0008864426054060459,-0.0004032154683955014
1771956839921526300,1.8915263671875,0.0012096629943698645,-0.0026301671750843525,0.0001821861369535327
1771956839941489000,1.911489013671875,-0.00021801795810461044,-0.002630623523145914,0.0009047845960594714
1771956839961452000,1.9314521484375,0.0008926335722208023,-0.0015372545458376408,0.001443923101760447
1771956839981415000,1.951414794921875,0.001495326403528452,-0.00024101976305246353,0.00045651395339518785
1771956840001378000,1.9713779296875,-0.00034184614196419716,0.001804504543542862,0.0007018439355306327
1771956840021341200,1.991341064453125,0.0003001936711370945,0.0016073966398835182,-0.0005465720314532518
1771956840041304000,2.011303955078125,0.0009454591199755669,-0.0018261522054672241,0.0006082259933464229
1771956840061267200,2.03126708984375,-0.002011403441429138,-0.0014188429340720177,0.0006918471772223711
1771956840081230000,2.05122998046875,-0.0002729268744587898,-0.0010923859663307667,0.0032321354374289513
1771956840101193200,2.071193115234375,-0.000323315616697073,0.00028453534469008446,0.0006946278153918684
1771956840121156000,2.091156005859375,-0.002162597607821226,0.00267600454390049,-0.001224372535943985
1771956840141118000,2.111117919921875,0.0004934084136039019,0.0019479659385979176,0.0007293380331248045
1771956840161081000,2.1310810546875,0.00009539443999528885,0.0010640663094818592,0.00008757534669712186
1771956840181044200,2.151044189453125,0.000840809429064393,-0.0005324543453752995,-0.0006606406532227993
1771956840201007000,2.171007080078125,0.0007775425910949707,-0.002272380981594324,0.0015758578665554523
1771956840220970200,2.19097021484375,-0.001990281045436859,-0.0003803819417953491,-0.00027325021801516414
1771956840240933000,2.21093310546875,0.00004612281918525696,0.0011851214803755283,-0.0002478477545082569
1771956840260896000,2.23089599609375,0.0016843483317643404,0.000996304675936699,-0.0012410053750500083
1771956840280859000,2.25085888671875,0.00008409982547163963,-0.00040069594979286194,0.0020866773556917906
1771956840300822000,2.270822021484375,-0.00028777308762073517,0.002676569391041994,-0.0023924754932522774
1771956840320785200,2.29078515625,-0.000705354381352663,-0.0019842153415083885,-0.00015017116675153375
1771956840340748000,2.310748046875,-0.0011640475131571293,-0.002267145551741123,0.0015340778045356274
1771956840360711200,2.330711181640625,0.0005426292773336172,0.0006553614512085915,0.00048033392522484064
1771956840380674000,2.350674072265625,-0.000010302290320396423,-0.0005434234626591206,-0.002057050121948123
1771956840400637200,2.37063720703125,0.0013735902030020952,0.0018950090743601322,-0.0003334712819196284
1771956840420599000,2.39059912109375,0.0001758001744747162,0.0023304936476051807,0.002989844186231494
1771956840440562000,2.41056201171875,0.0021292343735694885,0.0005461396649479866,0.001759708859026432
1771956840460525000,2.430525146484375,-0.00017481716349720955,-0.0027937591075897217,0.0012719822116196156
1771956840480488000,2.450488037109375,0.0006984735373407602,-0.0025621242821216583,-0.00001737044658511877
1771956840500451000,2.470451171875,-0.0018103918991982937,0.0006216396577656269,-0.0007855801959522069
1771956840520414200,2.490414306640625,-0.000023015309125185013,-0.001177420374006033,-0.0003011920489370823
1771956840540377000,2.510377197265625,0.0026004216633737087,0.00048803025856614113,-0.0022479325998574495
1771956840560340200,2.53034033203125,-0.0005874894559383392,-0.00006320048123598099,0.001377225387841463
1771956840580303000,2.55030322265625,-0.0009763631969690323,0.0004936354234814644,0.0008317188476212323
1771956840600266000,2.570265869140625,-0.0016177440993487835,-0.003469457384198904,0.0005836368654854596
1771956840620228600,2.590228515625,-0.0012760180979967117,0.0013595647178590298,0.002330754417926073
1771956840640191500,2.61019140625,-0.001060490496456623,0.0013791043311357498,-0.00000422564335167408
1771956840660154400,2.630154296875,-0.00020298268646001816,0.0037458911538124084,-0.00031699688406661153
1771956840680117200,2.6501171875,0.0008587511256337166,0.0017477180808782578,0.0004882856737822294
1771956840700079400,2.670079345703125,-0.0005597355775535107,0.0006520613096654415,0.0000898709986358881
1771956840720042500,2.69004248046875,-0.0016873008571565151,-0.00257681030780077,-0.00015902618179097772
1771956840740005400,2.71000537109375,-0.00047794030979275703,-0.00034693675115704536,-0.0007359797600656748
1771956840759968500,2.729968505859375,0.0011785866227000952,0.0009556235745549202,-0.0018867439357563853
1771956840779931600,2.749931640625,-0.0016513112932443619,0.001284805592149496,0.0005474205827340484
1771956840799894500,2.76989453125,-0.0014706016518175602,0.002136408817023039,-0.0023412611335515976
1771956840819857400,2.789857421875,0.00046512624248862267,0.0004037548787891865,0.0012764919083565474
1771956840839820300,2.8098203125,-0.00013294396921992302,-0.0003631073050200939,0.0034892847761511803
1771956840859783400,2.829783447265625,0.001377152744680643,-0.0032993447966873646,-0.0002717737224884331
1771956840879746600,2.84974658203125,0.0007133453618735075,-0.002548700664192438,0.0005211388343013823
1771956840899709400,2.86970947265625,0.0003715644124895334,-0.00025073764845728874,0.0006534748827107251
1771956840919672600,2.889672607421875,-0.0004630633629858494,0.001609985250979662,-0.0039005435537546873
1771956840939635500,2.909635498046875,0.00045971409417688847,0.0010360144078731537,0.0025749835185706615
1771956840959598600,2.9295986328125,-0.001960710622370243,0.001393481157720089,-0.00010017765453085303
1771956840979561500,2.9495615234375,-0.0027402942068874836,-0.002031573560088873,0.001675064442679286
1771956840999523300,2.9695234375,0.001401411835104227,-0.0006829467602074146,0.0005138572887517512
1771956841019486500,2.989486572265625,0.0002703620120882988,0.0012206155806779861,0.001664095325395465
1771956841039449300,3.009449462890625,-0.00014927564188838005,0.00011417502537369728,-0.0008788246777839959
1771956841059412500,3.02941259765625,-0.0026238588616251945,0.0033943094313144684,-0.0029133870266377926
1771956841079375600,3.049375732421875,-0.0018295906484127045,0.0028742789290845394,-0.003049118211492896
1771956841099338500,3.06933837890625,0.0015016747638583183,0.0004201470874249935,0.0008535448578186333
1771956841119301600,3.089301513671875,0.0010390679817646742,0.00014674384146928787,0.0014574641827493906
1771956841139264300,3.10926416015625,-0.0013407091610133648,-0.003350927960127592,0.0003901408053934574
1771956841159227400,3.129227294921875,0.0011221917811781168,0.0015718154609203339,-0.00146311498247087
1771956841179190300,3.149190185546875,0.0004727721679955721,0.002405715174973011,-0.0018457176629453897
1771956841199153400,3.1691533203125,-0.0003297063522040844,-0.00002959277480840683,0.00007449049735441804
1771956841219116500,3.189116455078125,0.0014462526887655258,0.0026371548883616924,-0.000514149316586554
1771956841239079400,3.209079345703125,0.0011101856362074614,-0.000013270881026983261,-0.001327425125055015
1771956841259042600,3.22904248046875,0.0010275146923959255,-0.0015532034449279308,0.0018064065370708704
1771956841279004700,3.249004638671875,-0.001580947544425726,-0.0022307266481220722,0.0023998399265110493
1771956841298967300,3.26896728515625,0.0013402439653873444,-0.0004220642149448395,0.001679742243140936
1771956841318930400,3.288930419921875,0.00013508042320609093,0.002803817391395569,0.0011081962147727609
1771956841338893300,3.308893310546875,-0.00036298250779509544,0.0013511162251234055,-0.0004187768208794296
1771956841358856400,3.3288564453125,0.000018870458006858826,-0.0005418639630079269,0.00012200087076053023
1771956841378819600,3.348819580078125,-0.00009743357077240944,-0.0007782839238643646,-0.0011795175960287452
1771956841398782500,3.368782470703125,0.0006074043922126293,-0.0022506373934447765,0.0023264067713171244
1771956841418745600,3.38874560546875,0.0015287993010133505,-0.0005004489794373512,0.0017207207856699824
1771956841438708500,3.40870849609375,-0.0025115832686424255,0.0017297589220106602,-0.001528550055809319
1771956841458671600,3.428671630859375,-0.00037584034726023674,0.0018486389890313148,-0.0009922884637489915
1771956841478634200,3.44863427734375,-0.00024468498304486275,0.0016043526120483875,0.0016926652751863003
1771956841498597400,3.468597412109375,0.00045448518358170986,-0.0007766862399876118,-0.00028464372735470533
1771956841518560500,3.488560546875,0.00024210568517446518,-0.0036028840113431215,0.0014717041049152613
1771956841538523400,3.5085234375,-0.0005965568125247955,-0.0014322185888886452,0.0014679869636893272
1771956841558485500,3.528485595703125,-0.0017348076216876507,0.0010841954499483109,0.0008095941157080233
1771956841578448600,3.54844873046875,0.0012702255044132471,0.001984022557735443,-0.00036392785841599107
1771956841598411500,3.56841162109375,0.0003773022908717394,0.00249280733987689,0.0004078293568454683
1771956841618373600,3.58837353515625,0.00019028130918741226,0.0001441887579858303,0.0011784969829022884
1771956841638336800,3.608336669921875,-0.0001875939778983593,-0.0032163644209504128,0.0027257560286670923
1771956841658299600,3.628299560546875,-0.000631310511380434,-0.0025971047580242157,-0.00025865790667012334
1771956841678262800,3.6482626953125,-0.0017701424658298492,-0.00047076214104890823,-0.0006377347745001316
1771956841698225700,3.6682255859375,-0.002221989445388317,0.004751074127852917,0.00036238646134734154
1771956841718188800,3.688188720703125,-0.001051491592079401,0.0027257059700787067,0.0009011173387989402
1771956841738151700,3.708151611328125,-0.0002011805772781372,0.0017989040352404118,0.00100358622148633
1771956841758114800,3.72811474609375,-0.00222727470099926,0.0010458528995513916,0.0000268969452008605
1771956841778077700,3.74807763671875,-0.00040956633165478706,-0.0017983936704695225,-0.000940755708143115
1771956841798040600,3.76804052734375,0.00009847059845924377,0.00005926843732595444,-0.0003521047765389085
1771956841818003700,3.788003662109375,-0.0007855133153498173,-0.0013157390058040619,0.0013543732929974794
1771956841837965800,3.8079658203125,0.0009422774892300367,0.003398706205189228,-0.0017050288151949644
1771956841857928700,3.8279287109375,0.0002141096629202366,0.0005814065225422382,0.00024926644982770085
1771956841877891800,3.847891845703125,0.0016350094228982925,0.0019327937625348568,0.0004180941032245755
1771956841897854700,3.867854736328125,-0.00030073896050453186,-0.0015875892713665962,0.0007557778153568506
1771956841917817600,3.887817626953125,0.00008766539394855499,-0.002320067025721073,0.0002705903025344014
1771956841937780700,3.90778076171875,0.0007825237698853016,0.001399379689246416,0.0012428711634129286
1771956841957743600,3.92774365234375,-0.00127387885004282,-0.00019379938021302223,-0.0021740123629570007
1771956841977706800,3.947706787109375,0.00003199838101863861,0.002558229025453329,0.0003476461861282587
1771956841997669600,3.967669677734375,0.001579922391101718,0.0032080155797302723,-0.00040741864359006286
1771956842017632800,3.9876328125,0.0023897094652056694,-0.0019650873728096485,0.0003219041973352432
1771956842037595600,4.007595703125,0.00093605718575418,-0.0015781791880726814,-0.00015557854203507304
1771956842057558800,4.027558837890625,0.0006542543414980173,-0.002614710945636034,0.0004633228527382016
1771956842077522000,4.04752197265625,-0.0006654364988207817,-0.0019340072758495808,0.0024004217702895403
1771956842097484800,4.06748486328125,-0.0010795984417200089,-0.0014667995274066925,0.00040239910595119
1771956842117446700,4.08744677734375,0.0013971191365271807,0.0015922840684652328,-0.0016524586826562881
1771956842137409800,4.107409912109375,0.0005695144645869732,0.0018633939325809479,-0.0011006115237250924
1771956842157372700,4.12737255859375,0.0019434764981269836,0.0010745162144303322,-0.0007546558626927435
1771956842177335800,4.147335693359375,0.0015621327329427004,-0.002373182214796543,0.001656459062360227
1771956842197298700,4.167298583984375,-0.00039395736530423164,-0.0020631705410778522,0.0004115948686376214
1771956842217261800,4.18726171875,0.00003455299884080887,0.0013597109355032444,-0.003496430814266205
1771956842237224700,4.207224609375,-0.0005497373640537262,0.0015319888480007648,0.0011071483604609966
1771956842257187600,4.2271875,0.00009004445746541023,0.000591508112847805,0.0000982584897428751
1771956842277150700,4.247150634765625,-0.0011328831315040588,-0.000794961117208004,0.0006891149096190929
1771956842297113600,4.267113525390625,0.0013641368132084608,-0.0032519008964300156,-0.0006356860394589603
1771956842317076700,4.28707666015625,-0.00005538715049624443,-0.0007058056071400642,0.0010599149391055107
1771956842337039600,4.30703955078125,-0.0023976359516382217,-0.002759639173746109,-0.0006783049320802093
1771956842357002800,4.327002685546875,-0.002068867441266775,-0.00008832337334752083,-0.002054415410384536
1771956842376966000,4.3469658203125,-0.0013371813111007214,0.001189637929201126,-0.0007093187887221575
1771956842396927500,4.366927490234375,0.0008602316956967115,0.0036384551785886288,-0.00013712880900129676
1771956842416890600,4.386890625,-0.00004626903682947159,0.0013614734634757042,0.0005498424870893359
1771956842436853800,4.406853759765625,0.0001883157528936863,-0.0028361929580569267,0.0009334125788882375
1771956842456816600,4.426816650390625,0.00013970909640192986,0.0000015562400221824646,-0.0009325716528110206
1771956842476779800,4.44677978515625,0.00048661278560757637,-0.00006441120058298111,-0.0013724747113883495
1771956842496742700,4.46674267578125,-0.0013605556450784206,0.0023386902175843716,-0.002254710765555501
1771956842516705800,4.486705810546875,0.0024158565793186426,0.0007883370853960514,-0.00004100089427083731
1771956842536668700,4.506668701171875,-0.0001323418691754341,0.0030462252907454967,0.0012320908717811108
1771956842556631800,4.5266318359375,0.00022512907162308693,-0.0004607480950653553,0.0005069964099675417
1771956842576594700,4.5465947265625,-0.00047948164865374565,-0.0022654160857200623,0.0002650137757882476
1771956842596557600,4.5665576171875,0.0007057688198983669,-0.0040101101621985435,0.0004160449607297778
1771956842616521500,4.586521484375,0.00018255412578582764,0.001930047757923603,0.00026030989829450846
1771956842636484400,4.606484375,0.0016087926924228668,0.001813963521271944,-0.0010067700641229749
1771956842656447500,4.626447509765625,0.0022053078282624483,0.001318538561463356,0.0005006535211578012
1771956842676409600,4.64640966796875,0.0004002358764410019,-0.00006122281774878502,0.00013219955144450068
1771956842696372200,4.666372314453125,0.0015225340612232685,-0.0003155921585857868,0.0014286574441939592
1771956842716335400,4.68633544921875,-0.0009063733741641045,-0.0007375329732894897,-0.0003636666224338114
1771956842736298200,4.70629833984375,-0.0012452825903892517,0.0015638954937458038,0.00012825388694182038
1771956842756261400,4.726261474609375,0.00019675539806485176,0.0009917309507727623,-0.0001398009480908513
1771956842776224300,4.746224365234375,0.00005328049883246422,0.00008040852844715118,0.0003208483103662729
1771956842796187400,4.7661875,-0.0021413853392004967,-0.0002736002206802368,0.00022921519121155143
1771956842816150500,4.786150634765625,-0.0009238324128091335,0.0008879941888153553,-0.0009113224223256111
1771956842836113400,4.806113525390625,0.0012868994381278753,-0.001607308629900217,-0.0006198263145051897
1771956842856076500,4.82607666015625,-0.00022921152412891388,-0.002416838426142931,-0.0002979302662424743
1771956842876039200,4.8460390625,-0.0009694616310298443,-0.0007898597978055477,-0.00022583414101973176
1771956842896002300,4.866002197265625,0.0023122148122638464,0.0022017103619873524,-0.0001797679578885436
1771956842915965400,4.88596533203125,-0.0007510199211537838,0.0031495443545281887,-0.0026699865702539682
1771956842935928300,4.90592822265625,-0.0003214580938220024,0.0020972229540348053,-0.0007691637147217989
1771956842955890400,4.925890380859375,-0.000939324963837862,0.0009436300024390221,-0.0010907925898209214
1771956842975853600,4.945853515625,0.001320874085649848,-0.0013536219485104084,-0.0007264602463692427
1771956842995816400,4.96581640625,-0.0007788101211190224,-0.0014676032587885857,-0.00048493954818695784
1771956843015779600,4.985779541015625,-0.0009578033350408077,-0.0007806918583810329,-0.0008823497337289155
1771956843035742200,5.0057421875,0.0014936425723135471,0.0006461082957684994,-0.0011520140105858445
1771956843055705300,5.025705322265625,0.00016000820323824883,0.0036576958373188972,0.0004072438459843397
1771956843075668200,5.045668212890625,0.0008197145070880651,0.00041259313002228737,0.00032834376906976104
1771956843095631400,5.06563134765625,-0.0002758442424237728,-0.0006614336743950844,0.00005489750765264034
1771956843115594500,5.085594482421875,0.0027986352797597647,-0.002393503673374653,-0.000482690375065431
1771956843135557400,5.105557373046875,0.0005610843654721975,-0.0008867313154041767,-0.0006487832870334387
1771956843155520500,5.1255205078125,0.0005719512701034546,0.0021047620102763176,-0.0010354681871831417
1771956843175483400,5.1454833984375,0.0029011955484747887,0.001629577949643135,-0.0003663506358861923
1771956843195446500,5.165446533203125,-0.00045321136713027954,0.0014471057802438736,0.0006833040388301015
1771956843215409200,5.1854091796875,0.0015060901641845703,-0.0016179047524929047,0.0015663278754800558
1771956843235371300,5.205371337890625,0.0002900057006627321,-0.0022176550701260567,0.0011042708065360785
1771956843255334400,5.22533447265625,0.00017900578677654266,-0.0015461556613445282,0.0015062604798004031
1771956843275297300,5.24529736328125,-0.0024532312527298927,-0.0013336623087525368,0.0010219230316579342
1771956843295260400,5.265260498046875,0.002214313019067049,0.002362297847867012,0.0011492975754663348
1771956843315223600,5.2852236328125,0.0012537247966974974,0.001429715659469366,0.0013412893749773502
1771956843335186400,5.3051865234375,0.0006988262757658958,0.002697703428566456,-0.0003489510854706168
1771956843355149300,5.3251494140625,-0.00016148295253515244,0.0016259346157312393,0.0020046341232955456
1771956843375112200,5.3451123046875,-0.000963007565587759,-0.0034257639199495316,0.001135503756813705
1771956843395075300,5.365075439453125,0.00040321145206689835,-0.002556346822530031,0.0015130990650504827
1771956843415038500,5.38503857421875,-0.0016573858447372913,-0.0013405201025307178,0.003818422555923462
1771956843435001300,5.40500146484375,-0.0015589222311973572,0.0021923910826444626,-0.0043599265627563
1771956843454964500,5.424964599609375,-0.0004395497962832451,0.002066131681203842,-0.0030436301603913307
1771956843474927400,5.44492724609375,-0.0005883066914975643,0.00008638482540845871,-0.001129643525928259
1771956843494890500,5.464890380859375,0.00247690686956048,0.0003672507591545582,0.0017155735986307263
1771956843514852400,5.484852294921875,0.0001667640171945095,-0.0007497994229197502,0.0012046345509588718
1771956843534815200,5.504815185546875,0.00022832630202174187,0.001280173659324646,-0.00206178892403841
1771956843554778400,5.5247783203125,0.00030210125260055065,0.0006715282797813416,0.00004287221236154437
1771956843574741200,5.5447412109375,0.00003733811900019646,0.0023698080331087112,0.000586294976528734
1771956843594704400,5.564704345703125,0.002995625603944063,0.0008114175871014595,0.00025546096730977297
1771956843614667000,5.5846669921875,-0.0015905331820249557,0.0014315461739897728,-0.00006677501369267702
1771956843634629600,5.604629638671875,0.0011827645357698202,-0.0007982873357832432,0.0004502350930124521
1771956843654592800,5.6245927734375,0.001188257010653615,-0.003176616970449686,0.00029332959093153477
1771956843674556000,5.644555908203125,0.00044534425251185894,-0.0003620525822043419,-0.000056678836699575186
1771956843694518800,5.664518798828125,-0.0003089131787419319,0.001004719641059637,0.0005555819952860475
1771956843714482000,5.68448193359375,0.0002464165445417166,0.0024474160745739937,0.0016760199796408415
1771956843734444800,5.70444482421875,0.0011574211530387402,0.0013499492779374123,-0.0012952126562595367
1771956843754408000,5.724407958984375,0.0024903370067477226,-0.00005726329982280731,0.0015720004448667169
1771956843774369800,5.744369873046875,-0.001316238660365343,0.00041538337245583534,-0.0003855614340864122
1771956843794332700,5.764332763671875,-0.001993561629205942,-0.0017404621466994286,-0.0012621551286429167
1771956843814295800,5.7842958984375,-0.0005057770758867264,-0.0008767596445977688,-0.00018932897364720702
1771956843834258700,5.8042587890625,-0.0008470346219837666,0.0020180512219667435,-0.0003882304299622774
1771956843854221800,5.824221923828125,0.00022628833539783955,0.002210263628512621,0.0007702239090576768
1771956843874185000,5.84418505859375,-0.0015208772383630276,0.0005237162113189697,-0.0009937856812030077
1771956843894147800,5.86414794921875,-0.00042697368189692497,-0.0006240955553948879,0.0011525389272719622
1771956843914111000,5.884111083984375,0.0014125669840723276,-0.0014631031081080437,-0.00015927909407764673
1771956843934073900,5.904073974609375,0.00047906371764838696,-0.00035405484959483147,0.0004171091131865978
1771956843954037000,5.924037109375,0.00001118239015340805,0.0008401465602219105,-0.0008663436747156084
1771956843973999600,5.94399951171875,-0.0004838835448026657,0.0009760973043739796,-0.0005523920990526676
1771956843993962800,5.963962646484375,-0.0009297402575612068,0.0025765891186892986,-0.0023159082047641277
1771956844013926000,5.98392578125,0.0011654493864625692,0.0006948136724531651,0.0016399193555116653
1771956844033887700,6.0038876953125,-0.000977660994976759,0.0005376739427447319,0.0016230486799031496
1771956844053851000,6.023850830078125,0.0006325284484773874,-0.00001021428033709526,0.0013605288695544004
1771956844073814000,6.04381396484375,-0.0011837254278361797,-0.0009921160526573658,0.0023627514019608498
1771956844093777000,6.06377685546875,-0.0012158923782408237,0.0013035540468990803,-0.0019507862161844969
1771956844113739800,6.08373974609375,-0.00010711746290326118,0.0027695302851498127,-0.0006045687478035688
1771956844133702700,6.10370263671875,0.00132656074129045,0.001699552871286869,-0.0012461412698030472
1771956844153665800,6.123665771484375,-0.00014895666390657425,-0.0002449830062687397,-0.00009043473983183503
1771956844173629000,6.14362890625,-0.0015707057900726795,-0.0025511770509183407,0.0008435522904619575
1771956844193591800,6.163591796875,-0.0009435741230845451,-0.002415382768958807,-0.00019380461890250444
1771956844213555000,6.183554931640625,-0.001274249516427517,0.0014938879758119583,-0.000029593007639050484
1771956844233517800,6.203517822265625,-0.00146951200440526,0.004450119100511074,0.0005197323625907302
1771956844253481000,6.22348095703125,0.0002717247698456049,0.002305535599589348,0.0003257547505199909
1771956844273443800,6.24344384765625,-0.0018511954694986343,0.0008631697855889797,-0.00001987908035516739
1771956844293405700,6.26340576171875,0.0008418990764766932,0.00009212177246809006,0.0009692591847851872
1771956844313368800,6.283368896484375,-0.00016315234825015068,0.00048459507524967194,0.0017780855996534228
1771956844333331700,6.303331787109375,-0.0016512945294380188,-0.0014048824086785316,-0.0020744362846016884
1771956844353294800,6.323294921875,-0.000524433795362711,0.0017617768608033657,0.0003327280282974243
1771956844373258000,6.343258056640625,0.0005376432090997696,0.0020654485560953617,0.0006691837916150689
1771956844393220900,6.363220947265625,0.0008549310732632875,-0.00043156230822205544,0.00009389029582962394
1771956844413184000,6.38318408203125,-0.0013920348137617111,0.0004111099988222122,-0.0021837041713297367
1771956844433147000,6.40314697265625,-0.0006017414852976799,-0.0017567598260939121,0.0008639757288619876
1771956844453109800,6.42310986328125,-0.002079267054796219,-0.0032035750336945057,-0.0013993822503834963
1771956844473072600,6.44307275390625,-0.0002503152936697006,-0.0003491961397230625,0.0001521655940450728
1771956844493035800,6.463035888671875,-0.0024685366079211235,0.000646187923848629,0.0004546829150058329
1771956844512999000,6.4829990234375,-0.002327900379896164,0.003137537743896246,-0.0006529996171593666
1771956844532961800,6.5029619140625,-0.00031093182042241096,-0.00015398254618048668,-0.00026245974004268646
1771956844552924000,6.522923828125,-0.00044548651203513145,0.0012180623598396778,-0.0006419604760594666
1771956844572887000,6.542886962890625,-0.000016848556697368622,-0.0015651006251573563,0.0011432614410296082
1771956844592849700,6.562849609375,0.0004208330065011978,-0.001965942792594433,0.0026532532647252083
1771956844612812800,6.582812744140625,-0.0014352905564010143,0.0015400014817714691,-0.0013482857029885054
1771956844632775700,6.602775634765625,-0.0004336428828537464,0.000611491035670042,-0.003235455369576812
1771956844652738800,6.62273876953125,0.0013183820992708206,0.00012553436681628227,0.0005400815280154347
1771956844672701700,6.64270166015625,-0.0003237919881939888,-0.0005813110619783401,0.0014865919947624207
1771956844692664600,6.66266455078125,0.0017628786154091358,-0.006887043826282024,0.00014180666767060757
1771956844712627700,6.682627685546875,0.0011296758893877268,-0.0019313255324959755,-0.0009662259835749865
1771956844732590600,6.702590576171875,0.0011728382669389248,-0.0007660845294594765,0.0014147397596389055
1771956844752553700,6.7225537109375,0.00042730593122541904,0.0015234346501529217,0.0004143834230490029
1771956844772516600,6.7425166015625,0.000190728809684515,0.00041903508827090263,0.0013018143363296986
1771956844792479700,6.762479736328125,0.0007486487738788128,0.0010227602906525135,-0.0009961090981960297
1771956844812441900,6.78244189453125,0.0025277314707636833,-0.00019951583817601204,0.0005959667032584548
1771956844832404700,6.80240478515625,-0.0009585786610841751,0.00036688148975372314,-0.00032914700568653643
1771956844852367600,6.82236767578125,0.0017939612735062838,0.00003373296931385994,0.0012084601912647486
1771956844872330800,6.842330810546875,-0.00015477696433663368,0.0012732045724987984,0.0003155219601467252
1771956844892293600,6.862293701171875,-0.0010045124217867851,0.0018367231823503971,0.0006405357271432877
1771956844912256800,6.8822568359375,0.0008320254273712635,0.003212356474250555,-0.0005233156261965632
1771956844932219600,6.9022197265625,0.0007426373194903135,0.00030386215075850487,0.0003771454212255776
1771956844952182800,6.922182861328125,0.0010631487239152193,-0.0023060571402311325,-0.0005127724725753069
1771956844972146000,6.94214599609375,0.0014167572371661663,-0.0026199035346508026,0.0008898513624444604
1771956844992108800,6.96210888671875,0.0007102966774255037,0.0002129613421857357,0.0018992999102920294
1771956845012071700,6.98207177734375,-0.0006070160306990147,0.00041017401963472366,0.000191879749763757
1771956845032034600,7.00203466796875,0.0015861501451581717,0.0025483695790171623,-0.0009485662449151278
1771956845051997700,7.021997802734375,0.0016328408382833004,0.001238702330738306,-0.0021146871149539948
1771956845071959800,7.041959716796875,-0.0004905303940176964,-0.0006995126605033875,0.00048789300490170717
1771956845091922700,7.061922607421875,-0.0007987702265381813,-0.00021633878350257874,0.0006744606653228402
1771956845111885800,7.0818857421875,0.0004824735224246979,-0.0011763405054807663,-0.0005228940863162279
1771956845131848700,7.1018486328125,-0.0013494649901986122,-0.0003661559894680977,-0.0019292040960863233
1771956845151811600,7.1218115234375,0.0010614646598696709,0.0005439883098006248,-0.0009276783093810081
1771956845171774700,7.141774658203125,0.0008069425821304321,0.002614544704556465,-0.0003476415586192161
1771956845191737600,7.161737548828125,0.00014789216220378876,0.0005383724346756935,0.0004693932714872062
1771956845211700700,7.18170068359375,0.0014837570488452911,-0.002789420075714588,0.0017351913265883923
1771956845231663600,7.20166357421875,0.0004760371521115303,-0.0004829308018088341,-0.00012464448809623718
1771956845251626800,7.221626708984375,-0.0009546363726258278,0.0002134907990694046,-0.001138361869379878
1771956845271589600,7.241589599609375,0.0002716085873544216,0.00212183129042387,0.00041347643127664924
1771956845291552800,7.261552734375,-0.0008889702148735523,0.002829127013683319,-0.0024372225161641836
1771956845311516000,7.281515869140625,0.0013888813555240631,-0.00025972863659262657,0.0029280884191393852
1771956845331477800,7.301477783203125,0.002021410968154669,-0.0016620052047073841,0.0015218004118651152
1771956845351440600,7.321440673828125,-0.00141060259193182,-0.001747875940054655,0.0016445929650217295
1771956845371403800,7.34140380859375,-0.0004061334766447544,-0.0024787429720163345,-0.0010497879702597857
1771956845391366700,7.36136669921875,-0.0007371511310338974,-0.0006859181448817253,0.001227746019139886
1771956845411329800,7.381329833984375,0.0002814442850649357,0.0043098097667098045,-0.0006842560251243412
1771956845431292700,7.401292724609375,-0.001140120904892683,0.002242571208626032,-0.0006050810334272683
1771956845451255800,7.421255859375,0.000189097598195076,0.000863232184201479,-0.0020005018450319767
1771956845471219000,7.441218994140625,-0.001982583664357662,-0.0013127746060490608,0.0011485308641567826
1771956845491181600,7.461181640625,-0.0005829343572258949,0.0002205902710556984,0.0015703618992120028
1771956845511144700,7.481144775390625,-0.002553822472691536,-0.0005026962608098984,0.0008886908763088286
1771956845531107600,7.501107666015625,-0.0007103327661752701,-0.0001557883806526661,-0.001285273116081953
1771956845551070700,7.52107080078125,-0.0005812118761241436,0.003561699762940407,0.001304863253608346
1771956845571032800,7.54103271484375,-0.00025197630748152733,0.0012881704606115818,0.00007974752224981785
1771956845590995700,7.56099560546875,0.0010652435012161732,-0.0005274456925690174,-0.0007086671539582312
1771956845610959600,7.580959716796875,0.0025151476729661226,-0.0002718712203204632,-0.00048661179607734084
1771956845630922500,7.600922607421875,-0.001435819547623396,-0.002447097096592188,-0.00011610338697209954
1771956845650885400,7.620885498046875,0.002050211653113365,-0.0028288117609918118,-0.0004053291922900826
1771956845670848300,7.64084814453125,-0.002225200179964304,0.0017619417048990726,-0.001783620798960328
1771956845690811400,7.660811279296875,0.0006946867797523737,0.001025233417749405,-0.0019568682182580233
1771956845710774500,7.6807744140625,0.0011845261324197054,0.000843278132379055,0.0006200843490660191
1771956845730737400,7.7007373046875,0.0016486931126564741,0.000790884718298912,0.0014221558813005686
1771956845750700500,7.720700439453125,-0.001311630941927433,-0.0034539573825895786,0.0012030641082674265
1771956845770663400,7.740663330078125,-0.001952046062797308,-0.0014748149551451206,0.001506824977695942
1771956845790626600,7.76062646484375,0.00025919824838638306,-0.001586375292390585,0.00024180312175303698
1771956845810588400,7.78058837890625,-0.00043029291555285454,-0.00030045071616768837,-0.0017440977972000837
1771956845830551300,7.80055126953125,-0.00035279756411910057,0.002283317968249321,0.00035587226739153266
1771956845850514400,7.820514404296875,-0.0003797775134444237,-0.0013511311262845993,0.001310677849687636
1771956845870477300,7.840477294921875,-0.0013039554469287395,-0.0008304980583488941,0.0003265340346843004
1771956845890440400,7.8604404296875,-0.0017280881293118,0.00025533372536301613,0.0034852675162255764
1771956845910403600,7.880403564453125,-0.0013132360763847828,0.0006692958995699883,0.0004591990145854652
1771956845930366500,7.900366455078125,-0.00023771170526742935,0.0027594994753599167,0.0002520449925214052
1771956845950329600,7.92032958984375,7.48317688703537e-7,0.0020626760087907314,0.000597851350903511
1771956845970292500,7.94029248046875,0.0023189361672848463,0.00059940991923213,0.0002859301748685539
1771956845990255400,7.96025537109375,0.0014764051884412766,0.0002665533684194088,-0.0007246047025546432
1771956846010218500,7.980218505859375,-0.001429384108632803,-0.003038236405700445,-0.0012625600211322308
1771956846030181400,8.000181396484376,-0.00044090673327445984,0.001280312892049551,0.002375482115894556
1771956846050143500,8.0201435546875,-0.0009071980603039265,-0.0023171487264335155,-0.001060308190062642
1771956846070106600,8.040106689453125,-0.0011466806754469872,0.0035851337015628815,-0.0008424004772678018
1771956846090069500,8.060069580078125,-0.00031597353518009186,0.0005690143443644047,0.000626977242063731
1771956846110032600,8.08003271484375,0.003197941929101944,-0.00046303728595376015,-0.0028583346866071224
1771956846129995300,8.099995361328125,-0.0017412994056940079,0.001574140042066574,0.002392057329416275
1771956846149958400,8.11995849609375,0.0006819858681410551,-0.0027010212652385235,0.001024898374453187
1771956846169921300,8.13992138671875,0.0017275535501539707,-0.000613420270383358,0.0016625765711069107
1771956846189884400,8.159884521484376,-0.0012935353443026543,-0.0012129219248890877,-0.00025544140953570604
1771956846209847600,8.17984765625,0.0006955771241337061,0.0025498378090560436,-0.0020846817642450333
1771956846229810400,8.199810546875,0.0022183158434927464,0.0019771517254412174,0.000431712600402534
1771956846249773600,8.219773681640625,-0.0010407655499875546,0.001715002115815878,0.0013624358689412475
1771956846269736400,8.239736328125,-0.0022059036418795586,-0.0013391915708780289,-0.001130509888753295
1771956846289698300,8.2596982421875,-0.0017168326303362846,-0.001278250478208065,0.0001440702471882105
1771956846309661400,8.279661376953126,-0.0015246635302901268,-0.002565753646194935,0.002694970928132534
1771956846329624300,8.299624267578125,0.0013256315141916275,0.0035515325143933296,-0.0009119874448515475
1771956846349587500,8.31958740234375,0.0014507216401398182,0.0003177435137331486,-0.00007565546547994018
1771956846369550600,8.339550537109375,-0.0007180748507380486,0.0009030597284436226,0.0006827315664850175
1771956846389513500,8.359513427734376,-0.00031916331499814987,-0.0019145738333463669,0.001274369191378355
1771956846409476600,8.3794765625,-0.0015428680926561356,-0.0012992378324270248,-0.0002484325086697936
1771956846429439500,8.399439453125,0.0006367908790707588,-0.000953946728259325,-0.000034120865166187286
1771956846449402600,8.419402587890625,-0.0020903833210468292,0.0011735809966921806,-0.0007173892809078097
1771956846469365200,8.439365234375,0.0011734706349670887,0.0030308435671031475,-0.0006843657465651631
1771956846489328400,8.459328369140625,0.0002457941882312298,0.001464364118874073,-0.002008960582315922
1771956846509291500,8.47929150390625,0.002417472191154957,0.0024497173726558685,-0.0003447154304012656
1771956846529253400,8.49925341796875,0.00018875673413276672,-0.0016221185214817524,0.001481301267631352
1771956846549216500,8.519216552734376,0.00012084143236279488,-0.003201664425432682,0.0005421973182819784
1771956846569179600,8.5391796875,0.0006873717065900564,-0.00444836774840951,0.001824298407882452
1771956846589142500,8.559142578125,-0.0007059979252517223,-0.0019392957910895348,-0.0002528104232624173
1771956846609105000,8.57910498046875,-0.00035526836290955544,0.0033176192082464695,-0.0035359556786715984
1771956846629067800,8.59906787109375,0.001581442542374134,0.0016840365715324879,-0.0006300348322838545
1771956846649031000,8.619031005859375,-0.00016063358634710312,-0.0005384292453527451,-0.0001241255085915327
1771956846668994000,8.638994140625,-0.00023936480283737183,-0.003366239834576845,0.0013070799177512527
1771956846688957000,8.65895703125,-0.0007020318880677223,-0.0033297897316515446,0.00040581723442301154
1771956846708920000,8.678920166015626,-0.0014622658491134644,-0.000836128368973732,-0.00005450804019346833
1771956846728883000,8.698883056640625,-0.0001752479001879692,0.001793338917195797,-0.00012653181329369545
1771956846748846000,8.71884619140625,-0.0011509046889841557,0.0023349630646407604,0.002652909606695175
1771956846768808000,8.738807861328125,-0.000024998094886541367,0.0015224502421915531,-0.0012130164541304111
1771956846788770800,8.758770751953126,0.0013997005298733711,-0.000355621799826622,0.0009755276259966195
1771956846808734000,8.77873388671875,0.0005773750599473715,-0.0014355280436575413,-0.0011235357960686088
1771956846828697000,8.798697021484376,-0.0013134977780282497,-0.0007166527211666107,0.002299353713169694
1771956846848660000,8.818659912109375,-0.0012738914228975773,-0.00248792115598917,0.0002019823295995593
1771956846868623000,8.838623046875,-0.002005739603191614,0.0006253211759030819,-0.001749927643686533
1771956846888586000,8.8585859375,-0.0012306752614676952,0.0024890857748687267,-0.0004290117649361491
1771956846908549000,8.878549072265624,0.001912461593747139,-0.00041586020961403847,-0.0005828927969560027
1771956846928511700,8.89851171875,-0.00048570940271019936,-0.002249922603368759,0.0015579878818243742
1771956846948475000,8.918474853515624,-0.00028085289523005486,-0.0021029161289334297,0.00010750809451565146
1771956846968438000,8.93843798828125,-0.0013258042745292187,-0.0019252784550189972,-0.0002011904725804925
1771956846988399900,8.95839990234375,0.0009320471435785294,0.000028183218091726303,-0.001226057531312108
1771956847008363000,8.978363037109375,-0.0010939650237560272,0.0006246156990528107,-0.0028194154147058725
1771956847028326100,8.998326171875,0.0007895531598478556,0.0014663981273770332,0.0015888760099187493
1771956847048289000,9.0182890625,-0.0011159083805978298,0.0011489111930131912,0.0008164010941982269
1771956847068252000,9.038251953125,0.0003639133647084236,-0.004515752661973238,-0.0009329656604677439
1771956847088214800,9.05821484375,0.0005143941380083561,-0.004303880501538515,0.0021570378448814154
1771956847108178000,9.078177978515624,-0.0008906316943466663,-0.002389427274465561,-0.0008123096777126193
1771956847128140800,9.098140869140625,0.00018782122060656548,-0.00028372323140501976,0.00011168344644829631
1771956847148104000,9.11810400390625,0.0006331545300781727,0.004710559733211994,-0.002248520962893963
1771956847168067000,9.138067138671875,-0.000039458274841308594,0.0008044443093240261,0.0013548952993005514
1771956847188030000,9.158030029296874,0.0015779288951307535,-0.0024282936938107014,0.0006085242494009435
1771956847207993000,9.1779931640625,-0.00014879880473017693,-0.003449538256973028,0.0011889347806572914
1771956847227955000,9.197954833984374,-0.0003330209292471409,-0.0034032301045954227,0.00014838913921266794
1771956847247917800,9.217917724609375,-0.0018903412856161594,0.002038646023720503,0.0011753442231565714
1771956847267881000,9.237880859375,0.0005222472827881575,0.002138846553862095,0.0017396742478013039
1771956847287843800,9.25784375,0.0017087177839130163,0.0013926508836448193,-0.000406647683121264
1771956847307807000,9.277806884765624,0.0016333814710378647,0.0010165967978537083,0.00006067997310310602
1771956847327770000,9.29777001953125,0.0014943915884941816,0.0003338702954351902,0.0010727784829214215
1771956847347733000,9.31773291015625,0.0000063641928136348724,-0.0021230606362223625,-0.0007176644867286086
1771956847367696100,9.337696044921875,0.0006338483653962612,-0.002710014581680298,-0.0005365824326872826
1771956847387659000,9.357658935546874,-0.00037884805351495743,-0.000300590880215168,0.0007921170326881111
1771956847407622000,9.377621826171875,-0.0002855141647160053,0.0005494211800396442,0.0014244908234104514
1771956847427584800,9.397584716796874,-0.0012675854377448559,0.0032375077717006207,-0.00018801441183313727
1771956847447547000,9.417546875,-0.00008823070675134659,0.001052821520715952,-0.00007555756019428372
1771956847467510000,9.437510009765624,0.0014815833419561386,-0.0011788555420935154,0.0012042506132274866
1771956847487473000,9.457472900390625,-0.0012076850980520248,-0.0025939582847058773,-0.0002862082910723984
1771956847507436000,9.47743603515625,-0.0005574887618422508,-0.000641645397990942,-0.001192091265693307
1771956847527399200,9.497399169921875,0.0011544921435415745,0.0028013973496854305,-0.0009586825617589056
1771956847547361800,9.51736181640625,-0.00008751964196562767,0.0017956900410354137,-0.001671621692366898
1771956847567325000,9.537324951171875,0.002005157060921192,-0.0010012290440499783,0.0016828045481815934
1771956847587287800,9.557287841796875,-0.00025561684742569923,0.0012103673070669174,0.00030556891579180956
1771956847607251000,9.5772509765625,0.00003388477489352226,-0.004567830357700586,0.001233743503689766
1771956847627214000,9.597214111328125,-0.0006936569698154926,-0.0026836562901735306,0.0004288192722015083
1771956847647177200,9.61717724609375,-0.00029123295098543167,0.00035549234598875046,-0.0024922669399529696
1771956847667139300,9.637139404296875,0.0011535030789673328,0.003494459204375744,-0.0013166680000722408
1771956847687102200,9.657102294921875,0.00018959073349833488,0.0033888905309140682,0.00015997921582311392
1771956847707065000,9.677065185546875,-0.0010563977994024754,0.0009502270258963108,-0.0009730340680107474
1771956847727028200,9.6970283203125,-0.002971891313791275,-0.0010494207963347435,-0.001063467701897025
1771956847746991000,9.7169912109375,0.00024735694751143456,-0.0005280869081616402,0.0012505017220973969
1771956847766954200,9.736954345703126,0.0004940272774547338,-0.0013644914142787457,-0.0024924741592258215
1771956847786917000,9.756917236328125,0.001408544136211276,0.0018232683651149273,0.0005034104688093066
1771956847806880300,9.77688037109375,-0.0006482419557869434,0.0040774354711174965,-0.0007017517345957458
1771956847826843100,9.796843017578125,0.0015614591538906097,0.001936186570674181,-0.0009639222407713532
1771956847846806300,9.81680615234375,0.00155210355296731,-0.0011807200498878956,0.0016953271115198731
1771956847866769400,9.836769287109375,-0.00035226624459028244,-0.00248162355273962,0.00012443371815606952
1771956847886732000,9.85673193359375,-0.00022063171491026878,-0.003420970868319273,0.00008830142905935645
1771956847906694100,9.876694091796875,0.00011948542669415474,-0.0004030768759548664,0.00010396476136520505
1771956847926657300,9.8966572265625,-0.00025111064314842224,0.002411091234534979,-0.001534437877126038
1771956847946620200,9.9166201171875,0.0016778239514678717,0.0008676247671246529,0.001964440569281578
1771956847966583300,9.936583251953126,-0.0010659582912921906,-0.0011790781281888485,-0.0035865292884409428
1771956847986546200,9.956546142578125,0.0018929042853415012,0.0017786864191293716,-0.0009431918151676655
1771956848006509300,9.97650927734375,0.0009837180841714144,-0.002362910658121109,0.0003659805515781045
1771956848026472200,9.99647216796875,-0.000511848833411932,-0.0018373383209109306,0.0001866197562776506
1771956848046435000,10.01643505859375,0.0010493674781173468,-0.0017233709804713726,0.0021951301023364067
1771956848066398200,10.036398193359375,-0.0027951369993388653,0.0007234453223645687,-0.002416968112811446
1771956848086361000,10.056361083984376,-0.0008363691158592701,0.0015859869308769703,-0.0011885620187968016
1771956848106324200,10.07632421875,0.000017754733562469482,0.0001747775822877884,0.000432819128036499
1771956848126286300,10.096286376953126,0.0010207723826169968,-0.0005815033800899982,0.0011736280284821987
1771956848146249200,10.116249267578125,-0.00038712192326784134,-0.0027198120951652527,0.0007943033124320209
1771956848166212400,10.13621240234375,0.00003893394023180008,-0.0010382863692939281,0.001478221034631133
1771956848186175200,10.15617529296875,0.0005523215513676405,0.0013194559141993523,-0.0008816693443804979
1771956848206138000,10.17613818359375,-0.0010422179475426674,0.0012547411024570465,-0.0012453472008928657
1771956848226101200,10.196101318359375,-0.0010602236725389957,-0.00025298912078142166,0.0015119006857275963
1771956848246064000,10.216064208984376,0.0014020330272614956,-0.0015621581114828587,-0.001174126984551549
1771956848266027300,10.23602734375,0.00019884342327713966,-0.0006139087490737438,0.0010665836744010448
1771956848285990100,10.255990234375,-0.0003268662840127945,-0.0027689896523952484,-0.00006542389746755362
1771956848305953300,10.275953369140625,-0.0005171392112970352,0.00013933656737208366,-0.0012158401077613235
1771956848325916400,10.29591650390625,0.0006394451484084129,0.0010308930650353432,-0.0004362521867733449
1771956848345878000,10.3158779296875,0.00039274338632822037,0.002544374205172062,-0.001230357214808464
1771956848365841200,10.335841064453126,-0.0004603811539709568,0.0021813432686030865,0.0006983081111684442
1771956848385804300,10.35580419921875,0.0015752336475998163,-0.0008483571000397205,0.0007770219235680997
1771956848405767200,10.37576708984375,0.0014898704830557108,-0.0021866844035685062,-0.0004008830292150378
1771956848425730300,10.395730224609375,-0.0005045956932008266,-0.001574764959514141,0.001093291793949902
1771956848445693200,10.415693115234374,-0.00047225039452314377,-0.0006556818261742592,0.00019623723346740007
1771956848465656300,10.43565625,-0.0009583337232470512,0.0035721100866794586,-0.0006011284422129393
1771956848485619200,10.455619140625,0.00034760567359626293,0.0032946038991212845,-0.0009805139852687716
1771956848505582000,10.47558203125,0.0010163814295083284,-0.002468682825565338,0.000836422317661345
1771956848525545200,10.495545166015624,-0.00012569734826683998,-0.001327386125922203,0.0008219183655455709
1771956848545507000,10.515507080078125,0.00169017119333148,-0.0028269137255847454,-0.0011878912337124348
1771956848565470200,10.53547021484375,-0.0007023848593235016,-0.0020785792730748653,0.001825670013204217
1771956848585433300,10.555433349609375,0.0010441706981509924,0.031090063974261284,0.0375773049890995
1771956848605396200,10.575396240234374,0.0007812476251274347,-0.009584713727235794,-0.01643664762377739
1771956848625359400,10.595359375,-0.0017806785181164742,0.00541820889338851,-0.0008468725718557835
1771956848645322200,10.615322265625,0.0006894110701978207,-0.013826115056872368,-0.007885758765041828
1771956848665285000,10.63528515625,0.00032407999970018864,-0.014949347823858261,-0.006278893910348415
1771956848685248300,10.655248291015624,-0.0007106089033186436,-0.002336825244128704,-0.0047916327603161335
1771956848705211100,10.675211181640625,-0.001104674767702818,0.0016083363443613052,0.0024621952325105667
