time,seconds_elapsed,z,y,x
1771956811380077600,0.08507763671875,-0.0012269406579434872,-0.0029400400817394257,-0.00878807995468378
1771956811400040700,0.105040771484375,-0.0006715715862810612,-0.003338365815579891,0.0007623581332154572
1771956811420003300,0.12500341796875,0.0008335046004503965,0.0038984129205346107,0.006732125300914049
1771956811439966500,0.144966552734375,-0.00044436706230044365,0.0069293128326535225,0.0029430175200104713
1771956811459929300,0.164929443359375,-0.002480893861502409,0.014281045645475388,0.012336037121713161
1771956811479892500,0.184892578125,-0.0007157549262046814,-0.005342455580830574,-0.0025036288425326347
1771956811499855600,0.204855712890625,0.0044500017538666725,-0.014213623479008675,-0.011453232727944851
1771956811519818500,0.224818603515625,-0.0004619560204446316,-0.007753947749733925,-0.008482958190143108
1771956811539781600,0.24478173828125,-0.0003363005816936493,-0.004016526974737644,-0.007235812954604626
1771956811559744500,0.26474462890625,0.0005975719541311264,0.005731138400733471,0.000875681871548295
1771956811579707000,0.284706787109375,-0.0011817286722362041,0.009555499069392681,0.007782476022839546
1771956811599670000,0.304669921875,-0.00017462391406297684,-0.0073547400534152985,-0.0031174873001873493
1771956811619633000,0.3246328125,-0.00006491178646683693,0.002283771988004446,0.008587105199694633
1771956811639594800,0.3445947265625,-0.001720308791846037,-0.00004442548379302025,0.0026667462661862373
1771956811659558000,0.364557861328125,-0.0017079119570553303,0.00002047419548034668,0.003701308509334922
1771956811679520800,0.384520751953125,0.00041178474202752113,0.0055536143481731415,0.0046234214678406715
1771956811699484000,0.40448388671875,-0.0012693172320723534,0.004772885236889124,0.0029486992862075567
1771956811719446800,0.42444677734375,-0.0009523159824311733,-0.003274231683462858,-0.002994018141180277
1771956811739410000,0.444409912109375,0.0015373572241514921,-0.00325388228520751,-0.004490841180086136
1771956811759373000,0.464373046875,-0.00029477523639798164,-0.004639695398509502,-0.007370809093117714
1771956811779336000,0.4843359375,-0.00010160263627767563,-0.004028152674436569,-0.004033259581774473
1771956811799299000,0.504299072265625,-0.001283340621739626,-0.00362102291546762,0.00039220385951921344
1771956811819261700,0.52426171875,0.00007194001227617264,0.001957880798727274,-0.000021220010239630938
1771956811839224800,0.544224853515625,0.0009388085454702377,0.003244544379413128,0.003633118700236082
1771956811859188000,0.56418798828125,-0.0009093028493225574,-0.0010342597961425781,0.0003518125740811229
1771956811879150800,0.58415087890625,0.002690349705517292,-0.0015074093826115131,0.005208860617130995
1771956811899114000,0.604114013671875,-0.002179930917918682,0.002447823528200388,0.002960911486297846
1771956811919076900,0.624076904296875,-0.00006261700764298439,0.0037148594856262207,0.004502906929701567
1771956811939040000,0.6440400390625,0.0026006423868238926,-0.0004840507172048092,0.00041226635221391916
1771956811959003000,0.6640029296875,-0.000022736378014087677,-0.00021703215315937996,-0.004657301586121321
1771956811978966000,0.683966064453125,-0.001414001453667879,-0.0003269463777542114,-0.0030337879434227943
1771956811998929000,0.703928955078125,0.0014124454464763403,-0.0021660709753632545,-0.0012987256050109863
1771956812018891800,0.723891845703125,0.00033857766538858414,-0.0035246917977929115,-0.0012126675574108958
1771956812038855000,0.74385498046875,-0.001026003621518612,-0.0019601467065513134,-0.0014482431579381227
1771956812058817800,0.76381787109375,-0.0004634391516447067,-0.001057429239153862,0.0005478212842717767
1771956812078781000,0.783781005859375,-0.00044801970943808556,-0.0013889800757169724,0.0017655834089964628
1771956812098743800,0.803743896484375,0.0004710606299340725,0.0036612534895539284,0.000131011416669935
1771956812118707000,0.82370703125,-0.0004227142781019211,0.0023333681747317314,0.0017932679038494825
1771956812138670000,0.843670166015625,-0.00176897831261158,0.001356145367026329,0.003624584060162306
1771956812158633000,0.863633056640625,0.0013164442498236895,-0.0011389702558517456,0.004332718439400196
1771956812178596000,0.88359619140625,-0.0026892791502177715,0.001126340590417385,0.0016224827850237489
1771956812198558700,0.903558837890625,-0.0008766967803239822,-0.0012214803136885166,-0.0010117258643731475
1771956812218521900,0.92352197265625,0.001741677988320589,0.00029514217749238014,-0.0016106580151244998
1771956812238484700,0.943484619140625,-0.0019003478810191154,0.001968642696738243,-0.0005758170736953616
1771956812258448000,0.96344775390625,0.0015666098333895206,-0.001687677577137947,-0.0003352448111400008
1771956812278410000,0.983409912109375,0.0002989070490002632,-0.003596017137169838,0.0024686071556061506
1771956812298372900,1.003372802734375,0.0017496636137366295,-0.0032558562234044075,0.00038473436143249273
1771956812318336000,1.0233359375,0.00007503386586904526,-0.0016071535646915436,0.0020977938547730446
1771956812338299000,1.043298828125,-0.0005304319784045219,0.0010075988247990608,-0.001364163588732481
1771956812358261800,1.06326171875,-0.002027634996920824,0.001971868798136711,0.001429606694728136
1771956812378225000,1.083224853515625,-0.001451750285923481,0.0028295284137129784,-0.00027451227651908994
1771956812398187800,1.103187744140625,0.0029139553662389517,-0.00022644363343715668,0.00353649677708745
1771956812418151000,1.12315087890625,0.0005196488928049803,-0.000822040718048811,0.0012457468546926975
1771956812438114000,1.143114013671875,0.00011820951476693153,0.00002166908234357834,-0.001247313804924488
1771956812458077000,1.163076904296875,0.0003153509460389614,-0.0008972259238362312,-0.0010268049081787467
1771956812478040000,1.1830400390625,0.0012868400663137436,0.0005175494588911533,-0.002878233790397644
1771956812498003000,1.2030029296875,0.0006261137314140797,0.0026395833119750023,-0.003064817516133189
1771956812517965800,1.2229658203125,-0.0006366604939103127,0.0016078520566225052,-0.0011237319558858871
1771956812537928700,1.2429287109375,0.00036534201353788376,0.000990923959761858,0.0006570588448084891
1771956812557891800,1.262891845703125,0.00008039921522140503,0.0017119105905294418,0.00021833833307027817
1771956812577855000,1.28285498046875,-0.0021256408654153347,-0.000008631963282823563,0.002725390950217843
1771956812597817900,1.30281787109375,0.0008123188745230436,0.00020876945927739143,-0.0011753605213016272
1771956812617781000,1.322781005859375,-0.0005162982270121574,0.002415384165942669,-0.0013374323025345802
1771956812637743900,1.342743896484375,0.001424168236553669,-0.0001652888022363186,0.0024650951381772757
1771956812657707000,1.36270703125,0.0015905059408396482,-0.001871250569820404,0.000023246335331350565
1771956812677670000,1.382669921875,-0.0014331280253827572,-0.0015831761993467808,-0.0019583539105951786
1771956812697632800,1.4026328125,-0.0006081685423851013,-0.001411972101777792,0.0005475502694025636
1771956812717596000,1.422595947265625,-0.0003301086835563183,-0.0020443671382963657,0.0014925985597074032
1771956812737558800,1.442558837890625,-0.0006672274321317673,0.0016692420467734337,0.000356216449290514
1771956812757522000,1.46252197265625,0.002236593747511506,0.001097339205443859,-0.00041334942216053605
1771956812777484800,1.48248486328125,-0.00004907604306936264,0.0002673114649951458,-0.0002972763613797724
1771956812797448000,1.502447998046875,0.00005037570372223854,-0.00030463701114058495,0.000981444027274847
1771956812817411000,1.5224111328125,0.0002519991248846054,0.001020906027406454,0.002963064005598426
1771956812837373000,1.542373046875,0.0005780768115073442,-0.0022051380947232246,0.0015581046463921666
1771956812857335800,1.562335693359375,-0.0014104838483035564,-0.0005939756520092487,-0.0010673697106540203
1771956812877299000,1.582298828125,0.001345959259197116,0.001963314600288868,-0.0008166462648659945
1771956812897261800,1.60226171875,0.0001783757470548153,0.0011042994447052479,0.000007573806215077639
1771956812917225000,1.622224853515625,-0.00030492013320326805,0.001778329722583294,0.0004828647361136973
1771956812937187800,1.642187744140625,-0.0016380376182496548,0.0003099283203482628,0.0015009307535365224
1771956812957151000,1.66215087890625,-0.002008887007832527,-0.00199214369058609,-0.0018083557952195406
1771956812977113900,1.68211376953125,-0.001033702865242958,-0.0007287105545401573,-0.0004609998140949756
1771956812997077000,1.702076904296875,0.0006304953712970018,0.0008035306818783283,-0.0014107122551649809
1771956813017040100,1.7220400390625,0.0007823007181286812,0.0004832400009036064,0.00046175322495400906
1771956813037002800,1.742002685546875,0.0016113223973661661,0.0015538162551820278,0.0001823235652409494
1771956813056966000,1.7619658203125,-0.0014031543396413326,0.0006150593981146812,0.002723380457609892
1771956813076928800,1.7819287109375,-0.000406607985496521,-0.0019061951898038387,0.0012728206347674131
1771956813096892000,1.801891845703125,-0.00010863319039344788,0.00037377234548330307,-0.00023181259166449308
1771956813116854800,1.821854736328125,-0.0006653801538050175,0.00044126156717538834,0.0004133025649935007
1771956813136818000,1.84181787109375,0.0002163848839700222,0.000459346454590559,-0.0001825992949306965
1771956813156781000,1.861781005859375,-0.000419634860008955,0.0014177318662405014,-0.0003682432579807937
1771956813176744000,1.881743896484375,0.000761944567784667,-0.00022272812202572823,0.00027293787570670247
1771956813196707000,1.90170703125,-0.0012676487676799297,-0.00008953269571065903,0.0012172709684818983
1771956813216669700,1.921669677734375,-0.0007822201587259769,0.00023724138736724854,0.0023452278692275286
1771956813236632800,1.9416328125,-0.0011224173940718174,-0.0034664266277104616,0.0006098863086663187
1771956813256596000,1.961595947265625,-0.0011584958992898464,0.0014370079152286053,0.00022684806026518345
1771956813276558800,1.981558837890625,-0.002216957975178957,0.0021690172143280506,-0.0028672979678958654
1771956813296522000,2.00152197265625,0.0006884862668812275,0.003353191539645195,-0.0011198638239875436
1771956813316484900,2.02148486328125,0.000017269980162382126,-0.00023308675736188889,-0.0019145295955240726
1771956813336448000,2.041447998046875,0.00025220075622200966,-0.0016036522574722767,0.00039982341695576906
1771956813356411000,2.061410888671875,-0.0002329004928469658,-0.003278224729001522,-0.0001747278729453683
1771956813376374000,2.0813740234375,0.0021574446000158787,0.0006595202721655369,-0.00019555195467546582
1771956813396335900,2.1013359375,0.0004396834410727024,0.0018836967647075653,-0.0007680155104026198
1771956813416298800,2.121298828125,-0.0025150030851364136,0.0027553923428058624,-0.0022889836691319942
1771956813436262000,2.141261962890625,0.0023127486929297447,0.00385113712400198,-0.003231283277273178
1771956813456225000,2.16122509765625,-0.0006308844313025475,-0.0014991830103099346,0.0006345671718008816
1771956813476188000,2.18118798828125,0.0006003209855407476,-0.00210605189204216,-0.0010844019707292318
1771956813496151000,2.201151123046875,0.0007871445268392563,-0.0021917112171649933,0.0019334668759256601
1771956813516114000,2.221114013671875,0.001138700870797038,0.00035292189568281174,0.0007049128762446344
1771956813536077000,2.2410771484375,-0.0011251606047153473,0.001194144133478403,0.00034073187271133065
1771956813556040000,2.2610400390625,0.0012449671048671007,0.001348461490124464,-0.0008193974499590695
1771956813576002800,2.2810029296875,0.0014043806586414576,0.0003525940701365471,0.0007673052605241537
1771956813595966000,2.300966064453125,0.0012926741037517786,0.000021171756088733673,-0.0024806135334074497
1771956813615928800,2.3209287109375,-0.0010394235141575336,-0.002446211874485016,0.0006313344929367304
1771956813635891700,2.3408916015625,0.0004286300390958786,-0.0004138229414820671,-0.0007328961510211229
1771956813655854600,2.3608544921875,0.001549599226564169,0.0005794740281999111,0.0003519203746691346
1771956813675817700,2.380817626953125,-0.00027219438925385475,-0.0013301786966621876,-0.000840195978526026
1771956813695780900,2.40078076171875,0.0021011740900576115,0.0002392968162894249,-0.0011390470899641514
1771956813715743700,2.42074365234375,0.0019710438791662455,-0.0006597363390028477,-0.00015187048120424151
1771956813735707000,2.440706787109375,0.0009331242181360722,-0.0008067945018410683,-0.00017864059191197157
1771956813755669800,2.460669677734375,-0.00040449295192956924,-0.003670966485515237,-0.00022802845342084765
1771956813775633000,2.4806328125,0.0010061506181955338,0.00013982271775603294,-0.0002719626063480973
1771956813795595800,2.500595703125,-0.0012729181908071041,0.0001667523756623268,-0.00023574475198984146
1771956813815558700,2.52055859375,-0.0007934193126857281,0.0018461383879184723,0.00004189205355942249
1771956813835521800,2.540521728515625,0.0001702355220913887,0.0025593843311071396,-0.000496796565130353
1771956813855484700,2.560484619140625,0.004639821592718363,-0.003116095904260874,0.0004601649707183242
1771956813875447800,2.58044775390625,0.00044232700020074844,-0.0013094316236674786,-0.00006389757618308067
1771956813895410700,2.60041064453125,-0.000060358550399541855,-0.0016952813602983952,0.002320337574928999
1771956813915373800,2.620373779296875,-0.0011396282352507114,-0.000226534903049469,-0.00014561868738383055
1771956813935336700,2.640336669921875,0.003464925102889538,0.00235076155513525,-0.0019071720307692885
1771956813955298800,2.660298828125,0.0017778277397155762,-0.00006038462743163109,-0.0003080499591305852
1771956813975261700,2.68026171875,0.0016612594481557608,-0.0009829518385231495,0.0005627981736324728
1771956813995224800,2.700224853515625,0.0007875775918364525,-0.0007847584784030914,0.0011217447463423014
1771956814015187700,2.720187744140625,-0.0011816304177045822,-0.001434236764907837,0.0022917301394045353
1771956814035150800,2.74015087890625,-0.0011148103512823582,0.00022279610857367516,-0.0007581649115309119
1771956814055113700,2.76011376953125,-0.00021446961909532547,0.000012544915080070496,-0.0006704309489578009
1771956814075076900,2.780076904296875,0.0005975186359137297,-0.0013908441178500652,-0.0030123908072710037
1771956814095039700,2.800039794921875,0.000045567285269498825,0.0036708456464111805,0.0006364182336255908
1771956814115003000,2.8200029296875,-0.0010504466481506824,-0.0013574501499533653,-0.001026801997795701
1771956814134966000,2.839966064453125,-0.0001736111007630825,-0.0001758243888616562,0.0020636061672121286
1771956814154928600,2.8599287109375,0.00031609833240509033,-0.0024029244668781757,-0.0002605287590995431
1771956814174891800,2.879891845703125,-0.0001492900773882866,-0.0011079213581979275,0.0006248349673114717
1771956814194854700,2.899854736328125,0.001025359146296978,0.0011985008604824543,-0.0009778174571692944
1771956814214817800,2.91981787109375,0.0000911438837647438,0.0035422504879534245,0.00019515480380505323
1771956814234780700,2.93978076171875,-0.00028402218595147133,0.0019840076565742493,0.00043989747064188123
1771956814254743800,2.959743896484375,0.00028395000845193863,-0.0004036417230963707,0.0033685520756989717
1771956814274707000,2.97970703125,-0.0004537743516266346,-0.0029208199121057987,-0.0014651614474132657
1771956814294669800,2.999669921875,-0.002571394667029381,0.00026109302416443825,0.00006812968058511615
1771956814314633000,3.019633056640625,-0.00014617666602134705,0.00231168232858181,-0.0014158193953335285
1771956814334595600,3.039595703125,0.000540546840056777,0.0026237540878355503,-0.0025838972069323063
1771956814354558700,3.059558837890625,-0.0013891668058931828,0.002061230130493641,-0.0004046513349749148
1771956814374521900,3.07952197265625,-0.0012261979281902313,0.0006345058791339397,-0.0012860277201980352
1771956814394484700,3.099484619140625,-0.00108999852091074,-0.00022200169041752815,0.00028219964588060975
1771956814414447900,3.11944775390625,-0.00022480497136712074,-0.0006537488661706448,0.0015887734480202198
1771956814434410800,3.13941064453125,0.0005228545051068068,-0.0010223560966551304,-0.0004937555640935898
1771956814454374000,3.159373779296875,-0.0006215814501047134,0.00454750144854188,-0.0016432406846433878
1771956814474336800,3.179336669921875,0.00016261916607618332,0.0017305058427155018,-0.003315574489533901
1771956814494300000,3.1992998046875,0.0008415409829467535,-0.0001766672357916832,-0.0013060813071206212
1771956814514262800,3.2192626953125,0.0006098586600273848,0.0017306283116340637,0.00021805381402373314
1771956814534224600,3.239224609375,-0.0023488313890993595,-0.00004649907350540161,0.0024918681010603905
1771956814554187800,3.259187744140625,0.0004733181558549404,0.0004681060090661049,0.002479364164173603
1771956814574151000,3.27915087890625,0.000265482347458601,-0.00021395133808255196,0.0011735510779544711
1771956814594114300,3.2991142578125,0.00023780763149261475,0.002882903441786766,-0.00038924318505451083
1771956814614077400,3.319077392578125,-0.0009734407067298889,0.0027388115413486958,-0.0020239991135895252
1771956814634040300,3.339040283203125,0.00005476502701640129,0.0008681262843310833,0.0009506978094577789
1771956814654003500,3.35900341796875,0.000007189344614744186,-0.0007919925265014172,0.0005202217726036906
1771956814673966300,3.37896630859375,-0.0018100515007972717,-0.0009348001331090927,-0.0012639726046472788
1771956814693929500,3.398929443359375,0.00030783703550696373,-0.002095959149301052,-0.001008895575068891
1771956814713892400,3.418892333984375,0.003193443175405264,0.0009157615713775158,0.0034522959031164646
1771956814733855500,3.43885546875,-0.0012152311392128468,0.0015784394927322865,-0.0020711328834295273
1771956814753818600,3.458818603515625,-0.0011023087427020073,0.0010629743337631226,0.0023588852491229773
1771956814773781200,3.47878125,-0.000035793986171483994,-0.000266428105533123,-0.001999690430238843
1771956814793744400,3.498744384765625,-0.0005845981650054455,-0.00213198596611619,0.0019844863563776016
1771956814813707300,3.518707275390625,-0.0005746074020862579,-0.0020764698274433613,0.001984447007998824
1771956814833670400,3.53867041015625,-0.0016013099811971188,-0.0020016483031213284,-0.0026055853813886642
1771956814853633300,3.55863330078125,0.001473654992878437,0.0015112790279090405,0.0008225823985412717
1771956814873596400,3.578596435546875,-0.0017022625543177128,0.0026570456102490425,-0.0008023841073736548
1771956814893559600,3.5985595703125,0.00006293551996350288,0.0008256249129772186,-0.0010106121189892292
1771956814913522400,3.6185224609375,-0.00007671071216464043,0.0024565928615629673,0.0013722773874178529
1771956814933485600,3.638485595703125,-0.0003265654668211937,-0.005173521116375923,-0.00023274990962818265
1771956814953448200,3.6584482421875,-0.002402238082140684,-0.0014467067085206509,0.0014183673774823546
1771956814973411300,3.678411376953125,0.0011728599201887846,-0.00047983136028051376,-0.0009676674962975085
1771956814993374500,3.69837451171875,0.0008836772758513689,0.0006546499207615852,0.0016348116332665086
1771956815013337300,3.71833740234375,-0.0009190230630338192,0.002064056694507599,-0.001741841551847756
1771956815033300500,3.738300537109375,0.002187304198741913,0.0014642160385847092,0.00022159889340400696
1771956815053262600,3.7582626953125,0.0003918397706001997,0.0018592826090753078,-0.00165071920491755
1771956815073225500,3.7782255859375,-0.002448046114295721,-0.0019011860713362694,0.00023242027964442968
1771956815093188600,3.798188720703125,-0.000498464796692133,-0.00290865171700716,-0.0026208111084997654
1771956815113151200,3.818151123046875,0.001239134930074215,0.0005252202972769737,-0.001264489023014903
1771956815133114400,3.8381142578125,0.0023630540817976,0.00021997420117259026,0.0004055917961522937
1771956815153077200,3.8580771484375,-0.00034637562930583954,0.002760773990303278,-0.000772628583945334
1771956815173040400,3.878040283203125,0.0012466621119529009,0.0007858220487833023,0.0010662715649232268
1771956815193003500,3.89800341796875,0.0011325196828693151,-0.000879904255270958,0.002001383574679494
1771956815212966400,3.91796630859375,0.001584984129294753,-0.00035997945815324783,0.002531403210014105
1771956815232929500,3.937929443359375,0.0004112937022000551,-0.0034494511783123016,0.0006295257480815053
1771956815252892400,3.957892333984375,0.0033459672704339027,-0.0012093707919120789,-0.0017353864386677742
1771956815272855600,3.97785546875,0.0006172216963022947,0.0032185236923396587,-0.0009862014558166265
1771956815292818400,3.997818359375,0.0016067512333393097,-0.00140807731077075,0.001360981841571629
1771956815312781300,4.01778125,0.002650615992024541,0.00011528562754392624,0.0004968751454725862
1771956815332744400,4.037744384765625,0.0003387611359357834,-0.002355390228331089,0.001712988712824881
1771956815352707300,4.057707275390625,-0.0009630331769585609,-0.002756326925009489,-0.0010791330132633448
1771956815372670500,4.07767041015625,0.00038720155134797096,0.001775424461811781,-0.002199093345552683
1771956815392633300,4.09763330078125,-0.00024331128224730492,0.003899009432643652,-0.0015635874588042498
1771956815412596500,4.117596435546875,0.001009670551866293,0.0027089030481874943,-0.0007927166298031807
1771956815432559600,4.1375595703125,0.0008668694645166397,-0.0012116245925426483,0.00006596813909709454
1771956815452522500,4.1575224609375,-0.0007516629993915558,0.000940550584346056,-0.0009485787595622241
1771956815472485400,4.1774853515625,-0.0012373286299407482,-0.0022324309684336185,0.0009182513458654284
1771956815492448300,4.1974482421875,-0.00009312573820352554,-0.003376130713149905,0.0026596584357321262
1771956815512411400,4.217411376953125,-0.00013642990961670876,-0.0009601349011063576,0.0006100480677559972
1771956815532374300,4.237374267578125,0.0011012132745236158,0.0004756865091621876,-0.0013098573544993997
1771956815552337400,4.25733740234375,0.0007779463194310665,-0.001061718910932541,0.0006805211305618286
1771956815572300500,4.277300537109375,-0.0005661486648023129,0.000044819433242082596,-0.00012078456347808242
1771956815592262100,4.29726220703125,0.00008786842226982117,-0.0007980610243976116,0.001573121058754623
1771956815612225300,4.317225341796875,-0.0007150829769670963,0.0003938772715628147,0.0006685804110020399
1771956815632188400,4.3371884765625,0.0011258262675255537,-0.0033093802630901337,-0.00046314881183207035
1771956815652151300,4.3571513671875,0.0002947859466075897,0.0009315991774201393,-0.0017230167286470532
1771956815672114400,4.377114501953125,0.0010090311989188194,0.0023626936599612236,0.001620289171114564
1771956815692077300,4.397077392578125,0.0009809446055442095,0.002589696552604437,0.0016401878092437983
1771956815712040200,4.417040283203125,0.00021893857046961784,-0.001434448640793562,-0.0010203823912888765
1771956815732003300,4.43700341796875,0.0015865960158407688,-0.0010131625458598137,-0.0009423475130461156
1771956815751966200,4.45696630859375,0.001490989001467824,-0.0010643918067216873,0.0013628507731482387
1771956815771929300,4.476929443359375,0.00037924153730273247,-0.0006356355734169483,0.0012605220545083284
1771956815791892200,4.496892333984375,0.0006048786453902721,0.001242766622453928,-0.001013876055367291
1771956815811855400,4.51685546875,-0.00033502373844385147,-0.00007615331560373306,-0.0005801700172014534
1771956815831818200,4.536818359375,0.00264689140021801,0.0009927689097821712,0.001299179857596755
1771956815851781400,4.556781494140625,-0.00011682184413075447,-0.0020495899952948093,0.0011964860605075955
1771956815871744500,4.57674462890625,-0.0015496723353862762,0.00007448578253388405,0.0007318569114431739
1771956815891707100,4.59670703125,0.000265240203589201,-0.0021554753184318542,0.0010734691750258207
1771956815911670300,4.616670166015625,0.0005942408461123705,0.00008622882887721062,-0.0006382709834724665
1771956815931633200,4.636633056640625,0.00008941255509853363,0.0008598314598202705,0.0009378050453960896
1771956815951596300,4.65659619140625,0.0010188180021941662,-0.00015909923240542412,-0.00097623624606058
1771956815971559200,4.67655908203125,0.0010142149403691292,0.00035595428198575974,0.001380619127303362
1771956815991522300,4.696522216796875,-0.000161836389452219,-0.0018597906455397606,0.0022614982444792986
1771956816011485400,4.7164853515625,-0.0013501700013875961,-0.000979133415967226,0.0010508710984140635
1771956816031448300,4.7364482421875,-0.00029579363763332367,0.0006171357817947865,-0.00012230465654283762
1771956816051411500,4.756411376953125,-0.0007116347551345825,-0.00011149095371365547,-0.0012917036656290293
1771956816071374000,4.7763740234375,0.0011676508001983166,-0.00113309221342206,-0.0009466720512136817
1771956816091336200,4.796336181640625,0.0013421634212136269,0.0027338992804288864,0.00143198121804744
1771956816111299300,4.81629931640625,0.0003021326847374439,0.002812545746564865,0.001524770981632173
1771956816131262200,4.83626220703125,0.0012598719913512468,-0.003964457660913467,0.0015720294322818518
1771956816151225300,4.856225341796875,0.001646501710638404,-0.0016531981527805328,0.0011521634878590703
1771956816171188500,4.8761884765625,-0.0016538244672119617,0.002258379478007555,0.0005329123232513666
1771956816191151400,4.8961513671875,0.001259698299691081,0.0012439400888979435,0.0005728646647185087
1771956816211114200,4.9161142578125,0.0007777872961014509,0.0018725576810538769,-0.0022267522290349007
1771956816231077000,4.9360771484375,0.00017697131261229515,-0.0030609741806983948,-0.0003121404442936182
1771956816251040300,4.956040283203125,0.0001917639747262001,-0.0015205331146717072,-0.00005261762998998165
1771956816271003100,4.976003173828125,0.0003950109239667654,-0.001966844778507948,-0.0024658055044710636
1771956816290966300,4.99596630859375,0.00013052532449364662,-0.001352183986455202,-0.001111905905418098
1771956816310929400,5.015929443359375,-0.0011594993993639946,-0.00007427530363202095,0.0016569282161071897
1771956816330892300,5.035892333984375,0.0021620544139295816,0.0015314863994717598,-0.0008037904626689851
1771956816350855400,5.05585546875,-0.0011580074205994606,0.002269395627081394,0.000009118812158703804
1771956816370818300,5.075818359375,0.001098911976441741,-0.003072756342589855,-0.0008776199538260698
1771956816390781200,5.09578125,-0.001004805788397789,-0.00190010666847229,0.001630399259738624
1771956816410744000,5.115744140625,0.00041402154602110386,-0.002124565187841654,0.0014005708508193493
1771956816430707200,5.135707275390625,0.000128893181681633,0.0005943472497165203,0.001135065802372992
1771956816450670300,5.15567041015625,-0.0008147130720317364,0.00217773811891675,-0.0002655584830790758
1771956816470633200,5.17563330078125,0.0014155327808111906,0.0016901521012187004,-0.0035220501013100147
1771956816490596400,5.195596435546875,0.0021000513806939125,0.0021510226652026176,-0.0014074869686737657
1771956816510559200,5.215559326171875,-0.00036647776141762733,-0.0029735974967479706,0.001965031260624528
1771956816530522400,5.2355224609375,0.0016734458040446043,-0.0021256357431411743,-0.00017563276924192905
1771956816550485200,5.2554853515625,0.0006379096303135157,-0.0005412600003182888,-0.00006478000432252884
1771956816570448400,5.275448486328125,0.0013867933303117752,0.00015625590458512306,-0.00030378816882148385
1771956816590409500,5.295409423828125,-0.0009864475578069687,0.002092279028147459,-0.002582716755568981
1771956816610372600,5.31537255859375,-0.0003820126876235008,0.0029391897842288017,-0.002314046025276184
1771956816630335500,5.33533544921875,0.0008056813385337591,-0.000997156836092472,-0.001344666350632906
1771956816650298600,5.355298583984375,0.0015895685646682978,-0.003966919146478176,0.0005526224849745631
1771956816670261500,5.375261474609375,0.002264895709231496,-0.002278003841638565,0.000036561163142323494
1771956816690224600,5.395224609375,0.00006402749568223953,0.0006156540475785732,0.0012865894241258502
1771956816710187500,5.4151875,-0.0004191040061414242,0.0019296202808618546,0.00023338920436799526
1771956816730150400,5.435150390625,0.00031139981001615524,-0.0005586543120443821,0.0005594524554908276
1771956816750113500,5.455113525390625,0.0018723811954259872,0.0037138289771974087,0.0009459401480853558
1771956816770076400,5.475076416015625,-0.0019411565735936165,-0.000056696124374866486,0.0014045849675312638
1771956816790039600,5.49503955078125,-0.00007710466161370277,-0.001425374299287796,0.0015881932340562344
1771956816810002700,5.515002685546875,0.0013228515163064003,-0.0009425850585103035,-0.0015477756969630718
1771956816829965600,5.534965576171875,-0.00017347466200590134,0.0004300810396671295,-0.0015299487859010696
1771956816849928700,5.5549287109375,-0.00009446637704968452,0.0025586136616766453,0.0009314112830907106
1771956816869891600,5.5748916015625,-0.001010062638670206,0.0034163715317845345,-0.0007167643634602427
1771956816889854500,5.5948544921875,-0.0011061611585319042,0.0008948254399001598,0.0014548773178830743
1771956816909817300,5.6148173828125,0.0011094275396317244,0.0006609228439629078,0.000049319700337946415
1771956816929780500,5.634780517578125,0.0006783227436244488,0.00047300010919570923,0.0011134810047224164
1771956816949743600,5.65474365234375,-0.0001886943355202675,-0.0004068054258823395,-0.00021728238789364696
1771956816969706500,5.67470654296875,0.0023372643627226353,-0.0006096703000366688,0.0033763800747692585
1771956816989669600,5.694669677734375,-0.000007460359483957291,0.003978407941758633,-0.0013989352155476809
1771956817009632500,5.714632568359375,-0.0035591498017311096,0.002449930179864168,-0.001506992382928729
1771956817029595600,5.734595703125,-0.0011506108567118645,0.001781392376869917,-0.0020279628224670887
1771956817049558500,5.75455859375,-0.0010665073059499264,-0.000556399580091238,0.001230351161211729
1771956817069521400,5.774521484375,0.0012938696891069412,-0.0009032678790390491,0.002100588520988822
1771956817089483500,5.7944833984375,0.0019919604528695345,-0.0008973334915935993,-0.0024837362580001354
1771956817109446400,5.8144462890625,-0.00036556506529450417,0.0019268686883151531,-0.0019622636027634144
1771956817129409500,5.834409423828125,0.0007027310784906149,-0.0011758129112422466,-0.0009727319120429456
1771956817149372700,5.85437255859375,-0.00040333252400159836,0.004421738442033529,-0.000584920053370297
1771956817169335600,5.87433544921875,-0.0015086694620549679,-0.0008145011961460114,-0.0011503980495035648
1771956817189298700,5.894298583984375,0.0005513846408575773,-0.002347234170883894,-0.0003205072716809809
1771956817209261300,5.91426123046875,-0.0009910818189382553,-0.00048317573964595795,0.00010110053699463606
1771956817229224400,5.934224365234375,-0.00006449269130825996,-0.002669353038072586,0.0010357149876654148
1771956817249187600,5.9541875,-0.0016077845357358456,0.0034997188486158848,-0.003006394486874342
1771956817269150500,5.974150390625,-0.0003047650679945946,0.0028378539718687534,-0.0003677850472740829
1771956817289113600,5.994113525390625,-0.0011276467703282833,0.0017833840101957321,0.0003850838402286172
1771956817309076500,6.014076416015625,-0.00031745387241244316,0.0007542455568909645,0.0022567291744053364
1771956817329039600,6.03403955078125,0.0014639392029494047,-0.0014210627414286137,-0.001865136087872088
1771956817349002500,6.05400244140625,-0.0015281839296221733,0.00033491989597678185,-0.0013428112724795938
1771956817368965600,6.073965576171875,-0.000058696139603853226,-0.0005535110831260681,0.000526804244145751
1771956817388928500,6.093928466796875,-0.000441565178334713,0.00404497841373086,-0.0019143784884363413
1771956817408891400,6.113891357421875,0.0004872237332165241,0.0008845990523695946,-0.002232107799500227
1771956817428854500,6.1338544921875,0.0006409951020032167,-0.0006726221181452274,-0.0009346809820272028
1771956817448817400,6.1538173828125,-0.00044243223965168,-0.0013218000531196594,0.0012183412909507751
1771956817468780500,6.173780517578125,0.0005779878702014685,-0.0019073733128607273,0.000724307494238019
1771956817488743400,6.193743408203125,-0.0002140747383236885,-0.0007476015016436577,-0.003397344145923853
1771956817508706600,6.21370654296875,-0.0009079193696379662,0.003947611432522535,-0.002107837703078985
1771956817528669700,6.233669677734375,0.0004837797023355961,0.003312333021312952,0.0004407527158036828
1771956817548631600,6.253631591796875,0.001856211107224226,0.0007141153328120708,-0.001281806849874556
1771956817568594400,6.273594482421875,0.0022864523343741894,-0.003028404898941517,0.002254938008263707
1771956817588557800,6.293557861328125,0.00048598041757941246,-0.001998024992644787,-0.0006539095193147659
1771956817608520700,6.313520751953125,-0.0017733392305672169,-0.00006978493183851242,0.0023854756727814674
1771956817628483800,6.33348388671875,-0.0014958521351218224,0.0017157681286334991,-0.0004568747244775295
1771956817648446700,6.35344677734375,0.0015454946551471949,0.0005867225117981434,0.00001893029548227787
1771956817668409900,6.373409912109375,0.001249037915840745,0.0025874339044094086,-0.00200264947488904
1771956817688372700,6.393372802734375,0.0010867735836654902,0.001112805213779211,-0.001279801712371409
1771956817708335900,6.4133359375,-0.0015955506823956966,0.000362468883395195,0.0021702556405216455
1771956817728298800,6.433298828125,0.0002188272774219513,-0.0016572917811572552,-0.0026300973258912563
1771956817748261600,6.45326171875,-0.0007094182074069977,-0.0004408573731780052,-0.00023085036082193255
1771956817768224800,6.473224853515625,-0.00042176805436611176,0.0002432204782962799,-0.0017466677818447351
1771956817788187600,6.493187744140625,0.0010663969442248344,0.0003606993705034256,-0.00027024123119190335
1771956817808150800,6.51315087890625,0.000833204947412014,0.0019367644563317299,-0.0033269128762185574
1771956817828114000,6.533114013671875,0.000731955748051405,0.000579513143748045,-0.0023439971264451742
1771956817848076800,6.553076904296875,0.0009657358750700951,-0.0025241333059966564,0.0010278322733938694
1771956817868040000,6.5730400390625,-0.0012527969665825367,-0.0004187203012406826,0.00027154781855642796
1771956817888002800,6.5930029296875,-0.0021819272078573704,0.0014032279141247272,-0.003736543469130993
1771956817907966000,6.612966064453125,0.00041702925227582455,0.0012121074832975864,0.0003054337576031685
1771956817927928600,6.632928466796875,-0.002544362097978592,0.0035555833019316196,0.0007467265240848064
1771956817947891700,6.6528916015625,0.0009081424213945866,0.0010510766878724098,0.0002832682803273201
1771956817967853800,6.672853759765625,0.0006080819293856621,-0.0027398066595196724,-0.00013097061309963465
1771956817987816700,6.692816650390625,0.001085162628442049,-0.0024083545431494713,-0.0008821633527986705
1771956818007779800,6.71277978515625,0.0002900608815252781,-0.0011433768086135387,0.0026120878756046295
1771956818027743000,6.732742919921875,0.0012681656517088413,-0.0007804622873663902,-0.00030721514485776424
1771956818047705900,6.752705810546875,-0.0014803307130932808,0.00043393950909376144,-0.0014178992714732885
1771956818067668700,6.772668701171875,0.0010359317529946566,-0.0001624738797545433,-0.001935367938131094
1771956818087631600,6.792631591796875,-0.0005095708183944225,-0.0018512466922402382,-0.0026499268133193254
1771956818107594800,6.8125947265625,-0.0006238040514290333,-0.0026507913134992123,0.000943767954595387
1771956818127557600,6.8325576171875,0.00038232142105698586,-0.00415185559540987,0.0007932628504931927
1771956818147520800,6.852520751953125,-0.001117417123168707,-0.0022008256055414677,-0.0009905787883326411
1771956818167484000,6.87248388671875,0.0010853707790374756,-0.001205333974212408,0.0010095899924635887
1771956818187446800,6.89244677734375,0.0007620530668646097,0.0030738902278244495,-0.0005232958937995136
1771956818207410000,6.912409912109375,0.0008710427209734917,0.0006136554293334484,0.000028988695703446865
1771956818227372800,6.932372802734375,0.001155600417405367,-0.00045933760702610016,0.0012440240243449807
1771956818247335700,6.952335693359375,-0.001530311070382595,-0.0012327847070991993,-0.0002705871593207121
1771956818267298800,6.972298828125,-0.0001756688579916954,-0.0012531392276287079,0.0003919533919543028
1771956818287261700,6.99226171875,-0.0011601382866501808,0.0004898165352642536,-0.002425639657303691
1771956818307224800,7.012224853515625,-0.0022285575978457928,0.002516678534448147,-0.00028575718170031905
1771956818327187700,7.032187744140625,0.0011358002666383982,0.0016711433418095112,0.0025678672827780247
1771956818347150800,7.05215087890625,-0.0004929699935019016,0.0032863528467714787,0.00023583718575537205
1771956818367113700,7.07211376953125,0.0012292393948882818,-0.0007504420354962349,-0.00019605515990406275
1771956818387076900,7.092076904296875,-0.00009050313383340836,0.0004762699827551842,-0.0024771573953330517
1771956818407038700,7.112038818359375,0.0007611110340803862,-0.0006422316655516624,-0.0010368668008595705
1771956818427001600,7.132001708984375,0.0008895897772163153,0.00043917587026953697,-0.00038932275492697954
1771956818446964700,7.15196484375,0.0020858105272054672,0.0014097164385020733,-0.00005076779052615166
1771956818466927900,7.171927978515625,-0.0018178788013756275,0.0033429618924856186,-0.00027558498550206423
1771956818486890800,7.191890869140625,0.0005592331290245056,-0.000280777458101511,0.00011566444300115108
1771956818506854000,7.21185400390625,-0.0022538616321980953,0.00008692825213074684,-0.0013437835732474923
1771956818526816800,7.231816650390625,0.0003911755047738552,-0.006316613405942917,0.0010221307165920734
1771956818546780000,7.25177978515625,-0.0009784824214875698,0.00006485776975750923,-0.001262705191038549
1771956818566742800,7.27174267578125,-0.002365425694733858,-0.0014674263074994087,0.0005947471363469958
1771956818586706200,7.2917060546875,0.002309836447238922,0.0023741587065160275,0.0016532066510990262
1771956818606669300,7.31166943359375,-0.000052819959819316864,0.0011662393808364868,-0.0008749674307182431
1771956818626632200,7.331632080078125,0.0004334673285484314,-0.0021835225634276867,-0.0009905985789373517
1771956818646595300,7.35159521484375,0.0012199014890938997,0.0012113596312701702,0.0013191815232858062
1771956818666558200,7.37155810546875,0.00039170263335108757,0.00034135812893509865,0.0013182152761146426
1771956818686521000,7.39152099609375,-0.0015723919495940208,-0.0006135022267699242,-0.000952522037550807
1771956818706484000,7.41148388671875,0.0009597567841410637,0.000708878505975008,0.0010743956081569195
1771956818726447000,7.431447021484375,-0.0006636260077357292,0.0025699823163449764,0.001977143809199333
1771956818746410200,7.45141015625,0.0006680127698928118,0.0020535243675112724,0.000622534891590476
1771956818766373000,7.471373046875,-0.0005557788535952568,-0.000684437807649374,0.00015453598462045193
1771956818786336300,7.491336181640625,-0.00006519118323922157,-0.0005019796080887318,0.0017034837510436773
1771956818806298400,7.51129833984375,0.001598062226548791,-0.0034020934253931046,-0.0003898778813891113
1771956818826261000,7.531260986328125,-0.0014583435840904713,0.0009224754758179188,-0.0024824999272823334
1771956818846224100,7.55122412109375,0.00007074465975165367,0.0025855782441794872,0.0005168389761820436
1771956818866187000,7.57118701171875,-0.001141269225627184,0.00003124075010418892,-0.002344215754419565
1771956818886150100,7.591150146484375,0.0000938274897634983,-0.002178420778363943,-0.0007668291218578815
1771956818906113000,7.611113037109375,-0.00004437752068042755,-0.001680942252278328,-0.001829436980187893
1771956818926076200,7.631076171875,0.00012615835294127464,-0.001292436383664608,0.000026576104573905468
1771956818946039300,7.651039306640625,-0.0014090756885707378,-0.0002918378449976444,0.0003041764721274376
1771956818966002200,7.671002197265625,-0.00014402903616428375,0.000852582510560751,0.0013042830396443605
1771956818985965300,7.69096533203125,0.00038544321432709694,0.0026425900869071484,-0.0025028809905052185
1771956819005928000,7.710927978515625,0.0009806696325540543,0.0012465864419937134,-0.00020232447423040867
1771956819025891000,7.73089111328125,-0.0012107118964195251,0.0014182510785758495,-0.0010093520395457745
1771956819045854200,7.750854248046875,-0.0008093956857919693,-0.0028657345101237297,0.0013450735714286566
1771956819065817000,7.770817138671875,-0.000035289209336042404,0.0003912998363375664,0.000678422162309289
1771956819085780200,7.7907802734375,0.00010542292147874832,0.0007526050321757793,-0.000849998788908124
1771956819105743000,7.8107431640625,0.00005807261914014816,0.0037040780298411846,-0.0016461263876408339
1771956819125706200,7.830706298828125,0.0000841156579554081,0.0034249299205839634,0.0013897181488573551
1771956819145669000,7.850669189453125,-0.002088064793497324,-0.0007514888420701027,0.0004709819331765175
1771956819165632300,7.87063232421875,-0.0005127163603901863,-0.0024618529714643955,-0.00015380658442154527
1771956819185595400,7.890595458984375,-0.00008749868720769882,-0.0005433489568531513,0.0026546353474259377
1771956819205557000,7.910556884765625,0.00069768400862813,-0.0009227767586708069,-0.0012836979003623128
1771956819225520000,7.93052001953125,0.0007153365295380354,0.001018280629068613,-0.002435090020298958
1771956819245483300,7.950483154296875,0.0009580277837812901,0.0012705898843705654,-0.000832249061204493
1771956819265446100,7.970446044921875,0.0010114703327417374,0.00041667232289910316,-0.0014928163727745414
1771956819285409300,7.9904091796875,-0.00041644787415862083,0.000549709890037775,0.0021745851263403893
1771956819305372200,8.0103720703125,-0.0009485427290201187,0.0003644251264631748,0.0014241489116102457
1771956819325335300,8.030335205078124,-0.0016242065466940403,-0.001034799963235855,0.0009314510971307755
1771956819345298200,8.050298095703125,0.0012251173611730337,-0.0007843975909054279,0.00039412418846040964
1771956819365261000,8.070260986328124,-0.001516569871455431,0.0018112012185156345,-0.0014527023304253817
1771956819385224200,8.09022412109375,-0.0003555011935532093,0.002596421167254448,-0.0010641096159815788
1771956819405187000,8.11018701171875,-0.0024445941671729088,0.0033174720592796803,-0.00039876223308965564
1771956819425150200,8.130150146484375,-0.0007064151577651501,-0.0019115968607366085,0.000175136374309659
1771956819445113000,8.150113037109374,-0.0012847972102463245,-0.00046272948384284973,0.0025088516995310783
1771956819465076200,8.170076171875,-0.00004721758887171745,-0.00014209235087037086,-0.00019592500757426023
1771956819485039400,8.190039306640625,0.0014855784829705954,0.001001517754048109,-0.002242604736238718
1771956819505002200,8.210002197265625,0.0016439033206552267,0.0010555451735854149,-0.003562792669981718
1771956819524965000,8.229965087890625,0.0015075975097715855,0.0005866223946213722,0.001276722177863121
1771956819544928000,8.249927978515625,0.0012296070344746113,0.0016306433826684952,0.0005095333326607943
1771956819564891100,8.26989111328125,0.0005646124482154846,0.0016218661330640316,0.0000391501234844327
1771956819584853500,8.289853515625,-0.0009805597364902496,-0.002432885579764843,0.00023910030722618103
1771956819604816400,8.30981640625,0.000175506342202425,-0.00034216325730085373,-0.0023906012065708637
1771956819624779300,8.329779296875,0.00083335698582232,0.001638028770685196,-0.0002193931140936911
1771956819644742100,8.3497421875,-0.0012363358400762081,0.003501200582832098,-0.0020123873837292194
1771956819664705300,8.369705322265625,0.00006489641964435577,0.0018744990229606628,0.00046945270150899887
1771956819684668400,8.38966845703125,0.001648788107559085,0.0014106528833508492,-0.0006989542162045836
1771956819704631300,8.40963134765625,0.0011506625451147556,-0.0011941725388169289,0.00026606139726936817
1771956819724594400,8.429594482421875,0.0006295996718108654,-0.002281450666487217,-0.0010662561981007457
1771956819744557300,8.449557373046876,0.0004252716898918152,0.0009788940660655499,0.003207971341907978
1771956819764520400,8.4695205078125,-0.0019055693410336971,0.003371929284185171,-0.0024028620682656765
1771956819784483300,8.4894833984375,-0.001352683175355196,0.0036560730077326298,-0.0014892901526764035
1771956819804446200,8.5094462890625,0.0021187621168792248,0.0012160860933363438,0.00009418511763215065
1771956819824409300,8.529409423828126,0.000010316725820302963,0.001615382730960846,-0.00017693534027785063
1771956819844372200,8.549372314453125,0.0011412992607802153,-0.0021548476070165634,0.001512759132310748
1771956819864335400,8.56933544921875,-0.001556245144456625,-0.0022561135701835155,-0.00010964088141918182
1771956819884298200,8.58929833984375,-0.00010845670476555824,0.002561430912464857,-0.0011576967081055045
1771956819904261400,8.609261474609376,0.0005443794652819633,0.0015731300227344036,-0.0014830383006483316
1771956819924224300,8.629224365234375,-0.0016828356310725212,0.0019085975363850594,0.0026767668314278126
1771956819944187400,8.6491875,-0.00014977995306253433,-0.00013543525710701942,0.0004625322762876749
1771956819964149200,8.669149169921875,0.0013022252824157476,-0.0033141677267849445,0.002216019667685032
1771956819984112400,8.6891123046875,0.0013455904554575682,-0.0009412928484380245,-0.000458334106951952
1771956820004075300,8.7090751953125,-0.0010897284373641014,0.0002344353124499321,-0.0025866711512207985
1771956820024038400,8.729038330078126,0.0023311004042625427,0.0010713241063058376,-0.00009982736082747579
1771956820044001300,8.749001220703125,0.0012925653718411922,0.0024689584970474243,-0.0009253239841200411
1771956820063964400,8.76896435546875,0.0018213677685707808,0.0002274792641401291,0.0004986837739124894
1771956820083927300,8.78892724609375,0.0002645370550453663,-0.002452727872878313,0.0002384509425610304
1771956820103890400,8.808890380859374,0.0011833121534436941,-0.003532213158905506,0.0009578457102179527
1771956820123853300,8.828853271484375,0.0004959204234182835,-0.0016832095570862293,0.0008763771038502455
1771956820143816200,8.848816162109374,0.000035095494240522385,0.001043924130499363,-0.0002135084941983223
1771956820163779300,8.868779296875,0.0008918130770325661,0.0031253048218786716,-0.00007905712118372321
1771956820183742200,8.8887421875,0.000102196354418993,-0.0003264090046286583,-0.0009431791258975863
1771956820203705300,8.908705322265625,-0.001532606314867735,-0.0023570959456264973,-0.0004508724668994546
1771956820223668200,8.928668212890624,-0.0008398881182074547,0.001176424790173769,0.002683668164536357
1771956820243631400,8.94863134765625,0.0011761770583689213,-0.0019874311983585358,0.0021454868838191032
1771956820263594500,8.968594482421874,0.000460771843791008,-0.0014516082592308521,-0.00019389123190194368
1771956820283557400,8.988557373046875,-0.0014497009105980396,0.0017366907559335232,-0.0014198386343196034
1771956820303520500,9.0085205078125,0.0006980993784964085,0.0016807746142148972,0.00010687438771128654
1771956820323483100,9.028483154296875,0.001975984312593937,0.0005775946192443371,0.00021083420142531395
1771956820343445200,9.0484453125,-0.0003600749187171459,-0.0021866285242140293,0.0003515593707561493
1771956820363408400,9.068408447265625,-0.00010319054126739502,-0.0007813768461346626,-0.00035579316318035126
1771956820383371300,9.088371337890624,-0.001312632579356432,-0.0008867289870977402,0.0025106172543019056
1771956820403334400,9.10833447265625,0.00041729467920958996,-0.0008159875869750977,-0.0006519679445773363
1771956820423297300,9.12829736328125,-0.0007851114496588707,0.001523833256214857,-0.0018252485897392035
1771956820443260400,9.148260498046875,0.0011086990125477314,0.00013542966917157173,-0.0007935657049529254
1771956820463223300,9.168223388671874,0.00005493778735399246,-0.00014408258721232414,-0.0008932907367125154
1771956820483186200,9.188186279296875,-0.0013944362290203571,0.0008056759834289551,0.00001890864223241806
1771956820503149300,9.2081494140625,0.0016642208211123943,-0.0026123714633286,0.001109921489842236
1771956820523112200,9.2281123046875,-0.0005208933725953102,-0.001733576413244009,-0.0014512399211525917
1771956820543075300,9.248075439453125,0.0024259507190436125,-0.0012318259105086327,-0.0025192012544721365
1771956820563038500,9.26803857421875,-0.0003492687828838825,0.002580233383923769,0.0003140269545838237
1771956820583001300,9.28800146484375,-0.0005566049367189407,0.0012713586911559105,0.002042348962277174
1771956820602964700,9.30796484375,0.001775830751284957,-0.0008144434541463852,0.0015577578451484442
1771956820622927600,9.327927734375,-0.0024661808274686337,0.0006231344304978848,0.0011567157926037908
1771956820642890800,9.347890869140626,0.0011866821441799402,-0.002416000235825777,-0.0002849880838766694
1771956820662853600,9.367853515625,0.0003537330776453018,-0.0024546836502850056,-0.0010499557247385383
1771956820682815500,9.3878154296875,-0.0013249288313090801,0.0017978828400373459,-0.0023869043216109276
1771956820702778600,9.407778564453125,0.0011096436064690351,0.0023477161303162575,-0.000014975666999816895
1771956820722741500,9.427741455078126,0.0004245953168720007,0.0013240999542176723,-0.0012577781453728676
1771956820742704600,9.44770458984375,0.0015810639597475529,-0.0013202046975493431,-0.00008800829527899623
1771956820762667800,9.467667724609376,0.0005369104910641909,-0.001671481877565384,-0.0013064463855698705
1771956820782630700,9.487630615234375,0.0004205014556646347,-0.0007020607590675354,0.0006214110180735588
1771956820802593800,9.50759375,-0.0007158084772527218,0.0003253915347158909,0.00027509103529155254
1771956820822556700,9.527556640625,0.0010095096658915281,0.0025947177782654762,0.0004928095731884241
1771956820842519800,9.547519775390626,0.0020624236203730106,0.002471230924129486,0.00033875019289553165
1771956820862482400,9.567482421875,0.0017751955892890692,0.000548067968338728,-0.0025353594683110714
1771956820882445600,9.587445556640626,-0.0004401705227792263,-0.0020011737942695618,-0.000017831334844231606
1771956820902408700,9.60740869140625,0.000034646131098270416,-0.0008472469635307789,-0.000013017328456044197
1771956820922371600,9.62737158203125,0.0001780693419277668,-0.0018340027891099453,0.0017411938169971108
1771956820942334700,9.647334716796875,-0.0003280937671661377,0.0007730317302048206,-2.849847078323364e-7
1771956820962297600,9.667297607421874,-0.0011191465891897678,0.001266340259462595,0.0011982041178271174
1771956820982260700,9.6872607421875,-0.0003235558979213238,0.00017001433297991753,-0.001852367422543466
1771956821002223600,9.7072236328125,-0.0026763430796563625,0.0011973804794251919,0.0016865115612745285
1771956821022185500,9.727185546875,0.0006115196738392115,0.0004225596785545349,0.00115755177102983
1771956821042148600,9.747148681640626,-0.0011527282185852528,-0.0014407620765268803,0.00039549352368339896
1771956821062111700,9.76711181640625,0.00029851612634956837,-0.0012122816406190395,0.0021213041618466377
1771956821082074600,9.78707470703125,-0.0010093026794493198,0.002697258722037077,-0.00019302521832287312
1771956821102037800,9.807037841796875,0.0018476739060133696,0.0015334426425397396,0.001823527505621314
1771956821122000600,9.827000732421874,0.00007444480434060097,0.00018896721303462982,0.0032201686408370733
1771956821141963800,9.8469638671875,0.0012477580457925797,0.002185254357755184,0.0017457643989473581
1771956821161926700,9.8669267578125,0.0009790619369596243,-0.000128153245896101,-0.0003773810458369553
1771956821181889800,9.886889892578125,0.0006655862089246511,-0.002297373954206705,0.002823332091793418
1771956821201852700,9.906852783203124,0.0001523410901427269,-0.0005150642246007919,-0.0012179797049611807
1771956821221815600,9.926815673828125,0.001693593105301261,0.004569780081510544,-0.0020016245543956757
1771956821241778700,9.94677880859375,-0.00009666290134191513,0.0017509115859866142,-0.001110500656068325
1771956821261741600,9.966741455078125,-0.0002170470543205738,-0.0029445765540003777,-0.0015563208144158125
1771956821281704700,9.98670458984375,0.0017211975064128637,-0.0006477152928709984,0.0009429496712982655
1771956821301667600,10.00666748046875,0.002201871247962117,-0.0027997554279863834,0.00008528376929461956
1771956821321630700,10.026630615234374,-0.00040685152634978294,-0.0005806679837405682,-0.00042466592276468873
1771956821341593900,10.04659375,-0.0027897791005671024,-0.0018168729729950428,0.001778098288923502
1771956821361555500,10.066555419921874,0.0009784568101167679,-0.0024772495962679386,0.00027235003653913736
1771956821381518600,10.0865185546875,0.0014175884425640106,0.0015254300087690353,-0.00016909907571971416
1771956821401481700,10.106481689453124,0.00013703759759664536,-0.0019015218131244183,0.0016158954240381718
1771956821421444600,10.126444580078125,-0.001199902966618538,-0.0006316322833299637,0.0013901145430281758
1771956821441407700,10.14640771484375,-0.00006352458149194717,-0.0010328819043934345,-0.0020230666268616915
1771956821461370600,10.16637060546875,-0.0013921032659709454,0.00042673246935009956,0.0011316211894154549
1771956821481333800,10.186333740234375,0.00016666390001773834,-0.0002495129592716694,0.0005952800856903195
1771956821501296600,10.206296630859375,0.00009674066677689552,0.0009455201216042042,-0.0023234549444168806
1771956821521259500,10.226259521484375,-0.00251011922955513,-0.0002750246785581112,-0.0008432242320850492
1771956821541222700,10.24622265625,-0.000680240336805582,0.0008252346888184547,0.00009572086855769157
1771956821561185500,10.266185546875,0.000031035859137773514,-0.0022713802754878998,-0.001212696311995387
1771956821581148700,10.286148681640626,-0.0016594231128692627,-0.0036541123408824205,0.0009117916924878955
1771956821601110800,10.30611083984375,-0.00016188668087124825,-0.001110617071390152,0.00037331925705075264
1771956821621073700,10.32607373046875,0.0014593859668821096,0.0011028749868273735,0.0008708165260031819
1771956821641036800,10.346036865234375,0.001087188022211194,0.0010962770320475101,0.00003665965050458908
1771956821660999700,10.365999755859375,0.0029278730507940054,-0.000026376452296972275,0.0013294925447553396
1771956821680961800,10.3859619140625,0.0005048727616667747,-0.00047887396067380905,-0.00005938485264778137
1771956821700925000,10.405925048828125,-0.0008918861858546734,-0.004066113848239183,0.0001143172848969698
1771956821720887800,10.4258876953125,0.0006480405572801828,-0.002209849189966917,0.0012691713636741042
1771956821740850700,10.4458505859375,-0.00007478473708033562,0.0005127075128257275,-0.00018370285397395492
1771956821760813800,10.465813720703125,0.0005397831555455923,0.0018629701808094978,-0.0009261898812837899
1771956821780776700,10.485776611328125,-0.00001129182055592537,0.0007980139926075935,-0.000662593636661768
1771956821800739800,10.50573974609375,-0.0014809686690568924,-0.0005963677540421486,0.0016626151045784354
1771956821820702700,10.52570263671875,0.0011686962097883224,-0.000472022220492363,0.0035501900129020214
1771956821840665900,10.545665771484375,-0.0022514997981488705,0.00015692459419369698,-0.0009887932101264596
1771956821860628700,10.565628662109376,0.0011889210436493158,-0.0005382108502089977,0.0002978870179504156
1771956821880592000,10.585591796875,-0.0010198745876550674,0.0033643762581050396,0.0002040374092757702
1771956821900555000,10.605554931640626,0.0013525374233722687,0.0019287350587546825,0.0006649586139246821
1771956821920517600,10.625517578125,-0.000006161630153656006,0.0026238104328513145,-0.002587435767054558
1771956821940480800,10.645480712890626,-0.00042273057624697685,-0.0018970537930727005,-0.002568993251770735
1771956821960443600,10.665443603515625,-0.000009874813258647919,-0.0012033302336931229,0.0021331938914954662
1771956821980406800,10.68540673828125,-0.00033992109820246696,-0.00463597197085619,-0.00023525342112407088
1771956822000369700,10.70536962890625,0.0017776214517652988,0.0007811705581843853,-0.00007432757411152124
1771956822020331800,10.725331787109376,-0.0003627557307481766,0.0020465883426368237,-0.00039766705594956875
1771956822040295000,10.745294921875,0.003192406613379717,0.0021108542568981647,0.0001588052837178111
1771956822060257800,10.7652578125,0.001413355814293027,-0.0005858317017555237,0.002331295982003212
1771956822080220700,10.785220703125,0.0017050213646143675,-0.001957137603312731,0.0015600413316860795
1771956822100183800,10.805183837890626,-0.0012932280078530312,-0.0024370593018829823,0.000627872534096241
1771956822120146700,10.825146728515625,0.000361061654984951,-0.0018255491741001606,0.0044449688866734505
1771956822140109800,10.84510986328125,-0.0005262377671897411,-0.0014442326501011848,0.0007695526583120227
1771956822160072700,10.86507275390625,0.0006919889710843563,0.002810393925756216,0.00037504895590245724
1771956822180035800,10.885035888671876,-0.0022279713302850723,0.0025155586190521717,-0.0005749303381890059
1771956822199999000,10.9049990234375,-0.001146084163337946,0.00025137560442090034,-0.002549388911575079
1771956822219961900,10.9249619140625,-0.00017775502055883408,-0.003131241537630558,0.001384266884997487
1771956822239924700,10.9449248046875,-0.0005124565213918686,-0.0015684189274907112,-0.00046118604950606823
1771956822259887600,10.9648876953125,-0.0013869893737137318,0.0002817697823047638,0.0005581970326602459
1771956822279850800,10.984850830078125,0.0016234696377068758,-0.002284048590809107,-0.004142072983086109
1771956822299813600,11.004813720703124,-0.0009956592693924904,0.00032983021810650826,-0.0025225686840713024
1771956822319775700,11.024775634765625,0.0016177501529455185,-0.0007358724251389503,-0.002627365756779909
1771956822339739000,11.04473876953125,-0.00028716959059238434,0.0000600544735789299,6.182817742228508e-7
1771956822359701800,11.06470166015625,-0.0006316578947007656,-0.00011451449245214462,-0.0005209643859416246
1771956822379665000,11.084664794921874,0.0012514733243733644,-0.0025674430653452873,-0.0012845040764659643
1771956822399627800,11.104627685546875,0.0004958005156368017,0.0016489848494529724,-0.0007461657514795661
1771956822419590700,11.124590576171874,-0.00028525572270154953,0.00047509046271443367,0.001548888860270381
1771956822439553800,11.1445537109375,0.0009617058094590902,-0.00002148328348994255,-0.0015622229548171163
1771956822459516700,11.1645166015625,-0.0021051610819995403,0.010281477123498917,0.012319479137659073
1771956822479479800,11.184479736328125,-0.0028617680072784424,0.12530797719955444,0.21153999865055084
1771956822499442700,11.204442626953124,0.002303896239027381,-0.01801331713795662,-0.07029853016138077
1771956822519405800,11.22440576171875,0.005463373847305775,-0.11545547842979431,-0.12158617377281189
1771956822539369000,11.244368896484374,0.00035396264865994453,-0.056096844375133514,-0.0839092954993248
1771956822559331800,11.264331787109375,-0.0013473941944539547,-0.012773309834301472,-0.01107404287904501
