time,seconds_elapsed,z,y,x
1771957080964024000,0.029024169921875,0.02341119945049286,-0.08450178056955338,0.03162790834903717
1771957080983989000,0.048989013671875,0.015361462719738483,-0.05762093514204025,0.02265988662838936
1771957081003954000,0.068953857421875,0.0043023498728871346,-0.0531935840845108,0.01627178117632866
1771957081023919000,0.088919189453125,0.002153314184397459,-0.03639781475067139,0.01758606918156147
1771957081043884000,0.108884033203125,0.0012485731858760118,-0.07036975771188736,0.011924684047698975
1771957081063849000,0.128848876953125,0.004792508203536272,-0.10077223181724548,0.011944642290472984
1771957081083812900,0.148812744140625,-0.00014585815370082855,-0.08060348033905029,0.006384510546922684
1771957081103778000,0.168778076171875,-0.00003620237112045288,-0.076938696205616,-0.0012908658245578408
1771957081123743000,0.188742919921875,0.0024336115457117558,-0.05222820118069649,-0.006956798955798149
1771957081143708000,0.2087080078125,0.009755842387676239,-0.04036685824394226,-0.00624511856585741
1771957081163672800,0.2286728515625,0.023135893046855927,-0.023319346830248833,-0.005635211244225502
1771957081183638000,0.248637939453125,0.018617572262883186,-0.003689136356115341,-0.007237686309963465
1771957081203603000,0.26860302734375,-0.0016850982792675495,-0.0009010317735373974,0.0019822886679321527
1771957081223567000,0.288567138671875,-0.011694456450641155,-0.015646932646632195,0.002887205220758915
1771957081243532000,0.308531982421875,-0.0027349828742444515,-0.024875551462173462,-0.012000836431980133
1771957081263497200,0.328497314453125,0.007940564304590225,0.000014839693903923035,-0.020588945597410202
1771957081283462100,0.348462158203125,0.009044378995895386,0.01533180195838213,-0.003943322692066431
1771957081303427000,0.368427001953125,0.013415224850177765,0.01797422394156456,0.024821840226650238
1771957081323392000,0.38839208984375,0.01971273496747017,0.004082519561052322,0.050107501447200775
1771957081343357200,0.408357177734375,0.020578257739543915,-0.0010127220302820206,0.05576469004154205
1771957081363322000,0.428322021484375,0.015564927831292152,0.003162163309752941,0.03750231862068176
1771957081383286000,0.4482861328125,0.011083025485277176,-0.010981692932546139,0.015887796878814697
1771957081403251000,0.4682509765625,0.01233065314590931,-0.022438202053308487,-0.014158288948237896
1771957081423216000,0.488216064453125,0.009323544800281525,-0.043118469417095184,-0.02943042665719986
1771957081443181000,0.50818115234375,0.014205384068191051,-0.030225355178117752,-0.01787358708679676
1771957081463146000,0.52814599609375,0.014677485451102257,-0.015723831951618195,0.0013106114929541945
1771957081483111000,0.54811083984375,0.02459956333041191,-0.017408236861228943,0.024374717846512794
1771957081503076000,0.568076171875,0.03212405741214752,-0.0382504016160965,0.03935420140624046
1771957081523041000,0.588041015625,0.04108252748847008,-0.04279966652393341,0.03225482627749443
1771957081543006000,0.608005859375,0.03150168061256409,-0.024567265063524246,0.019899168983101845
1771957081562969900,0.627969970703125,0.021751780062913895,-0.007572106551378965,0.013745096512138844
1771957081582935000,0.64793505859375,0.01724071614444256,-0.015381570905447006,0.003695538267493248
1771957081602900000,0.66789990234375,0.018285732716321945,-0.02382679283618927,0.014124051667749882
1771957081622865000,0.687864990234375,0.008960544131696224,-0.03395877033472061,0.03494248911738396
1771957081642829800,0.707829833984375,-0.024028830230236053,-0.0629613921046257,0.0687933936715126
1771957081662795000,0.727794921875,-0.040700819343328476,-0.09505757689476013,0.07164368778467178
1771957081682760000,0.747760009765625,-0.05807281658053398,-0.10404597967863083,0.06916464120149612
1771957081702724900,0.767724853515625,-0.07685038447380066,-0.09006556123495102,0.0762736052274704
1771957081722690000,0.78768994140625,-0.061413612216711044,-0.08736415207386017,0.07194516062736511
1771957081742655000,0.807655029296875,-0.025242773815989494,-0.06231297552585602,0.06837257742881775
1771957081762619100,0.827619140625,0.0006572091951966286,-0.05593781918287277,0.051958996802568436
1771957081782584000,0.847583984375,0.007576302625238895,-0.06731031090021133,0.04368520528078079
1771957081802549200,0.86754931640625,0.015082071535289288,-0.07904326170682907,0.04756523296236992
1771957081822514200,0.88751416015625,0.03195113688707352,-0.07718700915575027,0.05748533830046654
1771957081842479000,0.90747900390625,0.05283164605498314,-0.04431484639644623,0.06876680254936218
1771957081862444300,0.9274443359375,0.06800446659326553,-0.02723602205514908,0.08678154647350311
1771957081882409200,0.9474091796875,0.054316677153110504,-0.030055277049541473,0.11057283729314804
1771957081902374100,0.9673740234375,0.026746969670057297,-0.030401211231946945,0.12270883470773697
1771957081922339300,0.98733935546875,0.008445259183645248,-0.016132265329360962,0.1350031942129135
1771957081942304300,1.00730419921875,-0.005124215967953205,-0.008086335845291615,0.1278955042362213
1771957081962269200,1.027269287109375,0.008184269070625305,-0.004536862950772047,0.10835933685302734
1771957081982233300,1.0472333984375,0.007837727665901184,-0.01580682024359703,0.10304245352745056
1771957082002198300,1.0671982421875,-0.008549956604838371,-0.019814828410744667,0.09524022787809372
1771957082022163200,1.0871630859375,-0.015220342203974724,-0.019953157752752304,0.08358367532491684
1771957082042128400,1.10712841796875,0.0027076639235019684,-0.011168976314365864,0.08318869769573212
1771957082062093300,1.12709326171875,0.008715626783668995,-0.0029403287917375565,0.10944104939699173
1771957082082058200,1.147058349609375,-0.023575838655233383,0.028201797977089882,0.16347427666187286
1771957082102023400,1.1670234375,-0.04240989312529564,0.059531524777412415,0.2294679582118988
1771957082121988400,1.18698828125,-0.014974862337112427,0.05343850702047348,0.29911714792251587
1771957082141953300,1.206953369140625,-0.046630535274744034,0.10454054921865463,0.356591135263443
1771957082161918200,1.226918212890625,-0.25356325507164,0.2121594250202179,0.40607038140296936
1771957082181883400,1.24688330078125,-0.3912881314754486,0.1880607008934021,0.4513205289840698
1771957082201848300,1.266848388671875,-0.4072156548500061,0.2034444510936737,0.5417561531066895
1771957082221813200,1.286813232421875,-0.31047695875167847,0.18276318907737732,0.6138144135475159
1771957082241778400,1.3067783203125,-0.16771826148033142,0.0994996502995491,0.6559509038925171
1771957082261742300,1.326742431640625,-0.07427066564559937,-0.013421313837170601,0.6648489832878113
1771957082281707300,1.346707275390625,-0.056152164936065674,-0.1386236846446991,0.5926446318626404
1771957082301672200,1.366672119140625,-0.033587746322155,-0.19027811288833618,0.4478914439678192
1771957082321637000,1.38663720703125,0.013455534353852272,-0.13497969508171082,0.23256714642047882
1771957082341602300,1.406602294921875,0.04215186834335327,-0.003998000640422106,0.01998388022184372
1771957082361567200,1.426567138671875,0.010783838108181953,0.09369102120399475,-0.11771278828382492
1771957082381532200,1.4465322265625,-0.0130201680585742,0.07803508639335632,-0.159248486161232
1771957082401497300,1.466497314453125,-0.017188090831041336,0.019769109785556793,-0.12382480502128601
1771957082421462300,1.486462158203125,-0.016062667593359947,-0.07924936711788177,-0.06982003897428513
1771957082441427200,1.50642724609375,-0.006414882838726044,-0.09865181893110275,-0.044276271015405655
1771957082461392100,1.52639208984375,-0.006316255312412977,-0.0638650506734848,-0.04584537446498871
1771957082481357300,1.546357421875,-0.026358511298894882,-0.040553368628025055,-0.04018427059054375
1771957082501322200,1.566322265625,-0.06030113250017166,-0.059441015124320984,-0.04693605750799179
1771957082521287200,1.586287109375,-0.04108450934290886,-0.0892319530248642,-0.05779063329100609
1771957082541252400,1.60625244140625,0.01894182339310646,-0.13424283266067505,-0.06918342411518097
1771957082561217300,1.62621728515625,0.10174573957920074,-0.23338034749031067,-0.0979289710521698
1771957082581182200,1.64618212890625,0.1658044457435608,-0.33945244550704956,-0.13189515471458435
1771957082601147100,1.666147216796875,0.17420430481433868,-0.39038220047950745,-0.17116260528564453
1771957082621111000,1.686111083984375,0.13519366085529327,-0.32345882058143616,-0.20980697870254517
1771957082641076200,1.706076171875,0.07899539917707443,-0.209615096449852,-0.2568778097629547
1771957082661041200,1.726041259765625,0.036675628274679184,-0.05834995210170746,-0.28084778785705566
1771957082681006000,1.746006103515625,-0.000289328396320343,0.1054253876209259,-0.25190556049346924
1771957082700971300,1.76597119140625,-0.024573879316449165,0.2320999801158905,-0.1789667010307312
1771957082720936200,1.785936279296875,-0.01626119762659073,0.39109525084495544,-0.078599713742733
1771957082740901000,1.805901123046875,-0.01062933448702097,0.6633083820343018,0.053748827427625656
1771957082760866000,1.825865966796875,-0.037022996693849564,0.9715250730514526,0.21807947754859924
1771957082780831200,1.845831298828125,-0.0616229847073555,1.2816758155822754,0.3502589166164398
1771957082800796200,1.865796142578125,-0.07382255792617798,1.374142050743103,0.4330090880393982
1771957082820761000,1.885760986328125,-0.06258588284254074,1.2853000164031982,0.4671013057231903
1771957082840725800,1.905725830078125,-0.029088471084833145,1.0836797952651978,0.5049583315849304
1771957082860690700,1.925690673828125,-0.0037072612904012203,0.8269111514091492,0.5334491729736328
1771957082880656000,1.94565576171875,0.03123200312256813,0.6041523814201355,0.5198456645011902
1771957082900620800,1.965620849609375,0.06861526519060135,0.49630874395370483,0.44346073269844055
1771957082920585700,1.985585693359375,0.07642200589179993,0.4518648087978363,0.3513472080230713
1771957082940550700,2.005550537109375,0.07223039120435715,0.4542992413043976,0.28149253129959106
1771957082960515800,2.025515869140625,0.09310279041528702,0.47379088401794434,0.23701807856559753
1771957082980480800,2.045480712890625,0.12314163893461227,0.40787339210510254,0.2244275063276291
1771957083000445700,2.06544580078125,0.16904538869857788,0.3630494773387909,0.2457309067249298
1771957083020411000,2.085410888671875,0.20247362554073334,0.3311506509780884,0.24410071969032288
1771957083040375800,2.105375732421875,0.21579571068286896,0.32223600149154663,0.23706622421741486
1771957083060340700,2.1253408203125,0.23072560131549835,0.3317405581474304,0.22332420945167542
1771957083080305700,2.1453056640625,0.2075481116771698,0.2902354598045349,0.23685720562934875
1771957083100270800,2.165270751953125,0.16461347043514252,0.23922313749790192,0.24970218539237976
1771957083120234800,2.18523486328125,0.1244291365146637,0.1893533170223236,0.2648569643497467
1771957083140199700,2.20519970703125,0.0811012014746666,0.14902186393737793,0.2511768937110901
1771957083160164600,2.22516455078125,0.049408137798309326,0.12107624858617783,0.22116363048553467
1771957083180129800,2.2451298828125,0.022242220118641853,0.10526453703641891,0.1970498263835907
1771957083200094700,2.2650947265625,-0.02058379538357258,0.12411358952522278,0.1748657524585724
1771957083220059600,2.2850595703125,-0.043141771107912064,0.02411961369216442,0.159611314535141
1771957083240024600,2.305024658203125,0.008569426834583282,-0.11515464633703232,0.0707765445113182
1771957083259989800,2.32498974609375,0.06420650333166122,-0.15554416179656982,-0.02731963060796261
1771957083279954700,2.34495458984375,0.06995552778244019,-0.17974749207496643,-0.095374695956707
1771957083299919600,2.364919677734375,0.04335688054561615,-0.15189482271671295,-0.1214919313788414
1771957083319884800,2.384884765625,0.012484025210142136,-0.15761315822601318,-0.11323098093271255
1771957083339849700,2.404849609375,0.0057970513589680195,-0.1696099042892456,-0.12987008690834045
1771957083359814700,2.424814697265625,0.019679224118590355,-0.18338537216186523,-0.14676879346370697
1771957083379779600,2.444779541015625,0.04695723205804825,-0.20364776253700256,-0.13865865767002106
1771957083399744800,2.464744873046875,0.046085454523563385,-0.24691136181354523,-0.11874178051948547
1771957083419709700,2.484709716796875,0.03811309114098549,-0.2676326334476471,-0.12940312922000885
1771957083439674600,2.504674560546875,0.03235974162817001,-0.23224718868732452,-0.15772214531898499
1771957083459639800,2.524639892578125,0.021052394062280655,-0.2094031274318695,-0.17920827865600586
1771957083479604700,2.544604736328125,-0.0009867376647889614,-0.1893862783908844,-0.1806040108203888
1771957083499569700,2.564569580078125,-0.017270758748054504,-0.22547797858715057,-0.17930202186107635
1771957083519534600,2.58453466796875,-0.01113893836736679,-0.2710968554019928,-0.1771809160709381
1771957083539499800,2.604499755859375,0.006336360704153776,-0.29708024859428406,-0.19068555533885956
1771957083559464700,2.624464599609375,0.01889197528362274,-0.2568089962005615,-0.21162602305412292
1771957083579429600,2.6444296875,0.010581277310848236,-0.24504020810127258,-0.23910167813301086
1771957083599394600,2.66439453125,-0.0012505524791777134,-0.2725794315338135,-0.257051557302475
1771957083619359700,2.68435986328125,0.008226120844483376,-0.2449110597372055,-0.2595449686050415
1771957083639324700,2.70432470703125,-0.01140289194881916,-0.24432781338691711,-0.25894322991371155
1771957083659289600,2.72428955078125,-0.036068886518478394,-0.28850141167640686,-0.2655675411224365
1771957083679254800,2.7442548828125,-0.04719899222254753,-0.3017396926879883,-0.28156059980392456
1771957083699219700,2.7642197265625,-0.034691233187913895,-0.28370264172554016,-0.2924337685108185
1771957083719184600,2.7841845703125,-0.022494753822684288,-0.2348882555961609,-0.2779901325702667
1771957083739149600,2.804149658203125,-0.020117882639169693,-0.21322262287139893,-0.25343629717826843
1771957083759114800,2.82411474609375,-0.014464340172708035,-0.22264835238456726,-0.22301562130451202
1771957083779079700,2.84407958984375,-0.009233009070158005,-0.2244345247745514,-0.1897645741701126
1771957083799044600,2.864044677734375,0.0036190752871334553,-0.2431509792804718,-0.16739876568317413
1771957083819009800,2.884009765625,0.009310987778007984,-0.2213711142539978,-0.15367643535137177
1771957083838975200,2.903975341796875,0.014515340328216553,-0.22367367148399353,-0.1540856957435608
1771957083858940400,2.9239404296875,0.02592737227678299,-0.2526131868362427,-0.16845642030239105
1771957083878905300,2.9439052734375,0.038311176002025604,-0.26786723732948303,-0.19301867485046387
1771957083898870300,2.963870361328125,0.03315775468945503,-0.22867003083229065,-0.2054549604654312
1771957083918835200,2.983835205078125,-0.0020769312977790833,-0.19448861479759216,-0.21162496507167816
1771957083938800400,3.00380029296875,0.009086383506655693,-0.2138569951057434,-0.1934443861246109
1771957083958765300,3.023765380859375,0.029335463419556618,-0.21466127038002014,-0.18192142248153687
1771957083978730200,3.043730224609375,0.03418659791350365,-0.2382933646440506,-0.17481274902820587
1771957083998695400,3.0636953125,0.012816018424928188,-0.2310386300086975,-0.17794689536094666
1771957084018660400,3.083660400390625,0.01015259139239788,-0.2221902757883072,-0.19384703040122986
1771957084038625300,3.103625244140625,0.012541037052869797,-0.20937807857990265,-0.2068730592727661
1771957084058590200,3.123590087890625,-0.0014194170944392681,-0.16583380103111267,-0.2044740468263626
1771957084078555400,3.143555419921875,-0.010711455717682838,-0.14843668043613434,-0.17380182445049286
1771957084098520300,3.163520263671875,-0.016169417649507523,-0.13993829488754272,-0.1493285894393921
1771957084118485200,3.1834853515625,-0.00031945155933499336,-0.14897677302360535,-0.1293405145406723
1771957084138450200,3.2034501953125,0.008945685811340809,-0.17708803713321686,-0.11175647377967834
1771957084158415400,3.223415283203125,0.011016681790351868,-0.15678595006465912,-0.09037365019321442
1771957084178380300,3.24338037109375,0.002222023904323578,-0.10013123601675034,-0.07682045549154282
1771957084198345200,3.26334521484375,0.00206772331148386,-0.07327614724636078,-0.07337747514247894
1771957084218310400,3.283310302734375,0.010769684799015522,-0.09092758595943451,-0.06887931376695633
1771957084238275300,3.303275390625,0.020159786567091942,-0.08793395012617111,-0.06716042757034302
1771957084258240300,3.323240234375,0.015491120517253876,-0.07044653594493866,-0.06393790245056152
1771957084278205200,3.343205078125,-0.002190527506172657,-0.061706580221652985,-0.055950313806533813
1771957084298170400,3.36317041015625,0.0020579732954502106,-0.05638214945793152,-0.054966822266578674
1771957084318135300,3.38313525390625,0.02354658953845501,-0.06776100397109985,-0.055116064846515656
1771957084338100200,3.403100341796875,0.03011210262775421,-0.059721220284700394,-0.05817669630050659
1771957084358065400,3.4230654296875,0.01801280863583088,-0.02864266186952591,-0.07084902375936508
1771957084378030300,3.4430302734375,0.0014132231008261442,-0.012920677661895752,-0.08873777091503143
1771957084397995300,3.462995361328125,-0.01393953338265419,0.00044627580791711807,-0.09310578554868698
1771957084417960200,3.482960205078125,-0.022563565522432327,0.0012702494859695435,-0.07211307436227798
1771957084437925400,3.50292529296875,-0.01248747855424881,0.007101532071828842,-0.04314026981592178
1771957084457890300,3.522890380859375,0.004060117062181234,-0.009913160465657711,-0.021018845960497856
1771957084477855200,3.542855224609375,0.006069330498576164,-0.004033187869936228,-0.012181449681520462
1771957084497820200,3.562820068359375,-0.0002550967037677765,0.003657029941678047,-0.016017712652683258
1771957084517785300,3.582785400390625,-0.0028827283531427383,-0.008435611613094807,-0.03120303340256214
1771957084537750300,3.602750244140625,0.0017711687833070755,-0.006102162413299084,-0.04303738474845886
1771957084557715200,3.622715087890625,0.0025619445368647575,0.003766171634197235,-0.043201349675655365
1771957084577680400,3.642680419921875,0.004867670126259327,0.00994043331593275,-0.04057728126645088
1771957084597645300,3.662645263671875,0.018592506647109985,0.012982613407075405,-0.03237248212099075
1771957084617610200,3.6826103515625,0.025524351745843887,0.012521597556769848,-0.018821880221366882
1771957084637575200,3.7025751953125,0.014093386009335518,-0.000022948719561100006,-0.010979106649756432
1771957084657540400,3.722540283203125,0.0017146863974630833,0.011372181586921215,-0.013041606172919273
1771957084677505300,3.74250537109375,-0.00995810516178608,0.025723107159137726,-0.024652499705553055
1771957084697470200,3.76247021484375,-0.0121690034866333,0.023857593536376953,-0.042524490505456924
1771957084717435400,3.782435302734375,-0.00010434817522764206,-0.00539912236854434,-0.06085855886340141
1771957084737400300,3.802400390625,0.01587703451514244,-0.004326383583247662,-0.07499834150075912
1771957084757365200,3.822365234375,0.007884697988629341,-0.00866464339196682,-0.07942675799131393
1771957084777330200,3.842330078125,0.0006205616518855095,-0.014361697249114513,-0.08018717914819717
1771957084797295400,3.86229541015625,-0.002415647730231285,-0.005463540554046631,-0.07699976116418839
1771957084817260300,3.88226025390625,0.004808975383639336,-0.010344316251575947,-0.05851209908723831
1771957084837224400,3.902224365234375,0.012804074212908745,-0.020852893590927124,-0.02898729033768177
1771957084857189400,3.922189453125,0.022009873762726784,-0.014841028489172459,0.00044565158896148205
1771957084877154600,3.942154541015625,0.020735090598464012,0.012078164145350456,0.012632355093955994
1771957084897119500,3.962119384765625,0.0035563912242650986,0.016269702464342117,0.017796162515878677
1771957084917084400,3.98208447265625,-0.0016339048743247986,0.026913270354270935,0.014184169471263885
1771957084937049300,4.00204931640625,-0.007221878040581942,0.022870909422636032,0.013887863606214523
1771957084957014500,4.0220146484375,-0.0024777990765869617,-0.005006557796150446,0.015219287946820259
1771957084976980500,4.04198046875,0.006696623750030994,-0.017574531957507133,0.017940066754817963
1771957084996945700,4.061945556640625,-0.0031000804156064987,-0.018136724829673767,0.01045951247215271
1771957085016910600,4.08191064453125,-0.016665518283843994,0.013123255223035812,-0.003907456528395414
1771957085036875500,4.10187548828125,-0.037501707673072815,-0.02089017629623413,-0.024148326367139816
1771957085056840400,4.12184033203125,-0.031252745538949966,-0.025050295516848564,-0.03984949737787247
1771957085076805600,4.1418056640625,-0.027425745502114296,-0.0051604630425572395,-0.03450645133852959
1771957085096770600,4.1617705078125,-0.062376514077186584,0.030789270997047424,0.01634681411087513
1771957085116735500,4.181735595703125,-0.0741710513830185,0.08020472526550293,0.054128363728523254
1771957085136700400,4.201700439453125,-0.052763380110263824,0.10002876818180084,0.07994667440652847
1771957085156665600,4.22166552734375,-0.03700794279575348,0.13971950113773346,0.1134771853685379
1771957085176630500,4.241630615234375,-0.03163154423236847,0.27170997858047485,0.16623006761074066
1771957085196595500,4.261595458984375,-0.035928379744291306,0.5608296990394592,0.20725232362747192
1771957085216560600,4.281560546875,-0.014652219600975513,0.7985780835151672,0.22192464768886566
1771957085236525600,4.301525634765625,0.0027820877730846405,1.1094740629196167,0.277290016412735
1771957085256490500,4.321490478515625,0.021561777219176292,1.3276914358139038,0.37865760922431946
1771957085276455400,4.341455322265625,0.040011316537857056,1.2153593301773071,0.4849306344985962
1771957085296420600,4.361420654296875,0.05319024994969368,0.7877715229988098,0.5979887843132019
1771957085316385500,4.381385498046875,0.07854387909173965,0.35250958800315857,0.6552125215530396
1771957085336350500,4.4013505859375,0.0860687643289566,0.12088986486196518,0.5900803804397583
1771957085356315600,4.421315673828125,0.0596281997859478,0.07921461015939713,0.41026729345321655
1771957085376280600,4.441280517578125,0.019741913303732872,0.09911027550697327,0.18058718740940094
1771957085396245500,4.46124560546875,0.0077080088667571545,0.07003495842218399,-0.035451073199510574
1771957085416210400,4.48121044921875,0.024426983669400215,-0.04673878848552704,-0.20858219265937805
1771957085436175600,4.501175537109375,0.05817402899265289,-0.15207266807556152,-0.30284130573272705
1771957085456140500,4.521140625,0.07362543046474457,-0.23557524383068085,-0.31333789229393005
1771957085476105500,4.54110546875,0.07274842262268066,-0.28430554270744324,-0.28576934337615967
1771957085496070700,4.561070556640625,0.06905544549226761,-0.2808383107185364,-0.2529211640357971
1771957085516035600,4.58103564453125,0.05667993426322937,-0.27321985363960266,-0.22642019391059875
1771957085536000500,4.60100048828125,0.04820907488465309,-0.2785147428512573,-0.2047678679227829
1771957085555965400,4.62096533203125,0.02637924812734127,-0.26802191138267517,-0.1796494424343109
1771957085575930600,4.6409306640625,-0.0033328873105347157,-0.27977415919303894,-0.16497263312339783
1771957085595895600,4.6608955078125,-0.03224833309650421,-0.2870648503303528,-0.17342069745063782
1771957085615860500,4.680860595703125,-0.045624442398548126,-0.3039391338825226,-0.1944843977689743
1771957085635825400,4.700825439453125,-0.0402790792286396,-0.3397786617279053,-0.2150419056415558
1771957085655790600,4.72079052734375,-0.022176362574100494,-0.4233878254890442,-0.23171918094158173
1771957085675755500,4.740755615234375,-0.015645265579223633,-0.46368199586868286,-0.2245139479637146
1771957085695720400,4.760720458984375,-0.03004399500787258,-0.5258976817131042,-0.21219530701637268
1771957085715685600,4.780685546875,-0.04302295669913292,-0.5619826912879944,-0.206995889544487
1771957085735650600,4.800650634765625,-0.049824438989162445,-0.5535320043563843,-0.2134806364774704
1771957085755615500,4.820615478515625,-0.03742697834968567,-0.46568813920021057,-0.2352299690246582
1771957085775580400,4.840580322265625,-0.029352929443120956,-0.3550465703010559,-0.24745124578475952
1771957085795545600,4.860545654296875,-0.02053225040435791,-0.18056772649288177,-0.23417703807353973
1771957085815510500,4.880510498046875,-0.011596797034144402,0.01986553892493248,-0.20030322670936584
1771957085835475700,4.900475830078125,-0.02227778732776642,0.29120272397994995,-0.11125601083040237
1771957085855440600,4.920440673828125,-0.0332149937748909,0.7202484011650085,0.05980479344725609
1771957085875405800,4.94040576171875,-0.03414487838745117,1.2588673830032349,0.2706936001777649
1771957085895370800,4.960370849609375,0.005524314008653164,1.4946587085723877,0.4440823197364807
1771957085915335700,4.980335693359375,0.07977261394262314,1.5295127630233765,0.6018968820571899
1771957085935300600,5.000300537109375,0.12356344610452652,1.311827540397644,0.7316201329231262
1771957085955265800,5.020265869140625,0.1558997929096222,0.970373809337616,0.8010684847831726
1771957085975230700,5.040230712890625,0.19579486548900604,0.7124535441398621,0.7651533484458923
1771957085995195600,5.060195556640625,0.21483175456523895,0.5034308433532715,0.6396254301071167
1771957086015160600,5.08016064453125,0.16982930898666382,0.2619452476501465,0.4655005633831024
1771957086035125800,5.100125732421875,0.07613508403301239,0.10927396267652512,0.29118654131889343
1771957086055091700,5.120091796875,-0.005653057713061571,0.06952179968357086,0.09416178613901138
1771957086075055600,5.1400556640625,-0.04141131043434143,0.04886787012219429,-0.08129825443029404
1771957086095021800,5.160021728515625,-0.03706242889165878,0.01570006273686886,-0.17484405636787415
1771957086114986800,5.17998681640625,-0.02474302053451538,0.012441706843674183,-0.15875139832496643
1771957086134951700,5.19995166015625,-0.011098483577370644,0.005403261631727219,-0.09336697310209274
1771957086154916900,5.219916748046875,0.024449365213513374,-0.036215536296367645,-0.016649765893816948
1771957086174881800,5.2398818359375,0.07836645096540451,-0.08150532841682434,0.03350801393389702
1771957086194846700,5.2598466796875,0.10667736083269119,-0.11039870977401733,0.048922374844551086
1771957086214811600,5.279811767578125,0.09997295588254929,-0.0929395779967308,0.03864232823252678
1771957086234776800,5.29977685546875,0.0767146646976471,-0.058589041233062744,-0.0025453446432948112
1771957086254741800,5.31974169921875,0.049324922263622284,-0.07457444071769714,-0.045610710978507996
1771957086274706700,5.339706787109375,0.05822232738137245,-0.12552599608898163,-0.07028867304325104
1771957086294672000,5.359671875,0.06487634778022766,-0.1169450432062149,-0.08140309154987335
1771957086314636800,5.37963671875,0.04752613976597786,-0.16081130504608154,-0.07199180871248245
1771957086334601700,5.399601806640625,0.02604672871530056,-0.25092384219169617,-0.07356710731983185
1771957086354566700,5.419566650390625,-0.0035033547319471836,-0.3713916838169098,-0.09722574800252914
1771957086374531800,5.43953173828125,-0.033725861459970474,-0.4454813599586487,-0.1774340122938156
1771957086394496800,5.459496826171875,-0.04920056834816933,-0.49894699454307556,-0.3028486371040344
1771957086414461700,5.479461669921875,-0.06627076864242554,-0.5858784914016724,-0.39376235008239746
1771957086434427000,5.499427001953125,-0.0587925985455513,-0.6199418902397156,-0.46240049600601196
1771957086454391800,5.519391845703125,-0.03754299506545067,-0.5005179643630981,-0.49398738145828247
1771957086474356700,5.539356689453125,-0.022156352177262306,-0.35896992683410645,-0.46027037501335144
1771957086494321700,5.55932177734375,-0.017740968614816666,-0.020804431289434433,-0.3248681426048279
1771957086514286800,5.579286865234375,-0.03407464921474457,0.41333022713661194,-0.08709743618965149
1771957086534251800,5.599251708984375,-0.04204989969730377,0.9336565732955933,0.15351766347885132
1771957086554216700,5.619216796875,0.02950536459684372,1.2039234638214111,0.33330610394477844
1771957086574181600,5.639181640625,0.14590413868427277,1.4374339580535889,0.4696330428123474
1771957086594146800,5.659146728515625,0.2241663634777069,1.3969491720199585,0.5935310125350952
1771957086614111700,5.67911181640625,0.22749541699886322,1.0683815479278564,0.6778656244277954
1771957086634076700,5.69907666015625,0.18294648826122284,0.7578650712966919,0.6920146942138672
1771957086654041900,5.719041748046875,0.10710266977548599,0.40822046995162964,0.5685530304908752
1771957086674006800,5.7390068359375,0.060647670179605484,-0.03621155768632889,0.3102229833602905
1771957086693971700,5.7589716796875,0.03524760529398918,-0.46058008074760437,-0.09493132680654526
1771957086713936600,5.7789365234375,0.034438833594322205,-0.5627723336219788,-0.5035871267318726
1771957086733901800,5.79890185546875,-0.018287360668182373,-0.562608003616333,-0.7635116577148438
1771957086753866800,5.81886669921875,-0.09052606672048569,-0.5735198259353638,-0.8487425446510315
1771957086773831700,5.838831787109375,-0.09502622485160828,-0.633227527141571,-0.8437010049819946
1771957086793796900,5.858796875,-0.0699494257569313,-0.626049280166626,-0.7574917078018188
1771957086813761800,5.87876171875,-0.05901891738176346,-0.6502017974853516,-0.6474149227142334
1771957086833726700,5.898726806640625,-0.0592963881790638,-0.6793324947357178,-0.5646439790725708
1771957086853692000,5.91869189453125,-0.06399359554052353,-0.6932991743087769,-0.5136703848838806
1771957086873656800,5.93865673828125,-0.09088605642318726,-0.5804405212402344,-0.4709024131298065
1771957086893621800,5.958621826171875,-0.13396641612052917,-0.39535802602767944,-0.39668014645576477
1771957086913587000,5.9785869140625,-0.15944834053516388,-0.3140021860599518,-0.2901241183280945
1771957086933551900,5.9985517578125,-0.14032188057899475,-0.249055415391922,-0.14245301485061646
1771957086953516800,6.018516845703125,-0.07847954332828522,-0.23193368315696716,-0.01363297738134861
1771957086973482800,6.038482666015625,-0.02317734807729721,-0.1712713986635208,0.09419616311788559
1771957086993447700,6.05844775390625,0.024940036237239838,-0.1431942582130432,0.13588914275169373
1771957087013412600,6.07841259765625,0.0442739874124527,-0.11236892640590668,0.10974480211734772
1771957087033377500,6.09837744140625,0.04556579887866974,-0.09309428930282593,0.06314098834991455
1771957087053342700,6.1183427734375,0.03524040803313255,-0.07991807907819748,0.02289295196533203
1771957087073307600,6.1383076171875,0.03614817187190056,-0.054322682321071625,-0.005733124911785126
1771957087093272600,6.1582724609375,0.031859684735536575,-0.056373849511146545,-0.02959265187382698
1771957087113237800,6.17823779296875,0.03709466755390167,-0.09473245590925217,-0.03806157037615776
1771957087133202700,6.19820263671875,0.04035373032093048,-0.06591380387544632,-0.03193012997508049
1771957087153167600,6.218167724609375,0.03891609236598015,-0.05099876970052719,-0.02791529707610607
1771957087173132500,6.238132568359375,0.015201550908386707,-0.040366388857364655,-0.021007567644119263
1771957087193097700,6.25809765625,-0.0007681422866880894,-0.05530163645744324,-0.006778172682970762
1771957087213062700,6.278062744140625,-0.0049612801522016525,-0.03639687970280647,0.012250921688973904
1771957087233027600,6.298027587890625,-0.0030136113055050373,-0.00409626355394721,0.018325340002775192
1771957087252992800,6.31799267578125,0.000848541734740138,-0.008948259055614471,0.026515305042266846
1771957087272957700,6.337957763671875,0.009366199374198914,-0.018466167151927948,0.03342415392398834
1771957087292922600,6.357922607421875,0.01644514687359333,-0.00029941508546471596,0.04918820410966873
1771957087312887600,6.377887451171875,0.014049841091036797,0.021630994975566864,0.07469136267900467
1771957087332852700,6.397852783203125,0.02055072784423828,0.015908893197774887,0.07763364166021347
1771957087352817700,6.417817626953125,0.02268027514219284,0.020106825977563858,0.06459862738847733
1771957087372782600,6.437782470703125,0.00773990573361516,0.025041911751031876,0.051535073667764664
1771957087392747500,6.45774755859375,-0.005879402160644531,0.020681537687778473,0.05446331575512886
1771957087412712700,6.477712646484375,-0.013649889267981052,0.002253517508506775,0.0638963133096695
1771957087432677600,6.497677734375,-0.006714499089866877,-0.049790456891059875,0.07230425626039505
1771957087452642600,6.517642578125,0.003280576318502426,-0.09097307175397873,0.070724256336689
1771957087472607700,6.537607666015625,0.0024898480623960495,-0.1017082929611206,0.061105772852897644
1771957087492572700,6.55757275390625,-0.00843220017850399,-0.07129740715026855,0.058826930820941925
1771957087512537600,6.57753759765625,-0.01908586174249649,-0.041440125554800034,0.07430464774370193
1771957087532502500,6.59750244140625,-0.033997904509305954,-0.038672298192977905,0.09734752774238586
1771957087552467700,6.6174677734375,-0.03909061849117279,-0.07278823107481003,0.10181725025177002
1771957087572432600,6.6374326171875,-0.036182038486003876,-0.06341390311717987,0.0770396962761879
1771957087592397600,6.6573974609375,-0.02768980711698532,-0.030257288366556168,0.05485328659415245
1771957087612362800,6.67736279296875,-0.019689444452524185,-0.0012383442372083664,0.06271880865097046
1771957087632327700,6.69732763671875,-0.013835886493325233,-0.005892532877624035,0.0770144909620285
1771957087652292600,6.717292724609375,0.0029252220410853624,-0.010006110183894634,0.06713681668043137
1771957087672257500,6.737257568359375,0.013058421202003956,-0.01912500709295273,0.033215101808309555
1771957087692222700,6.75722265625,0.015560157597064972,-0.01707918383181095,0.0024966616183519363
1771957087712187600,6.777187744140625,0.005077832378447056,-0.0073002418503165245,-0.03630448132753372
1771957087732152600,6.797152587890625,-0.014494959264993668,0.0033931145444512367,-0.05638682469725609
1771957087752117800,6.81711767578125,-0.023241156712174416,-0.016392625868320465,-0.05918803811073303
1771957087772082700,6.837082763671875,-0.014397171325981617,-0.02630409225821495,-0.05467214062809944
1771957087792048600,6.857048583984375,-0.00866917334496975,-0.03586666285991669,-0.04246005788445473
1771957087812013800,6.877013916015625,-0.017602045089006424,-0.03112412989139557,-0.020705854520201683
1771957087831978800,6.896978759765625,-0.03895403444766998,-0.02347768470644951,-0.0020912522450089455
1771957087851944000,6.91694384765625,-0.042082779109478,-0.027196258306503296,0.0005824125837534666
1771957087871908900,6.936908935546875,-0.027186034247279167,-0.04278694838285446,0.0008972844807431102
1771957087891873800,6.956873779296875,-0.010427899658679962,-0.04513821005821228,-0.0006444974569603801
1771957087911838700,6.976838623046875,-0.017942287027835846,-0.03522063046693802,0.0013544629327952862
1771957087931804000,6.996803955078125,-0.033136527985334396,-0.04210727661848068,0.015637239441275597
1771957087951768800,7.016768798828125,-0.053471639752388,-0.0634852945804596,0.04827160760760307
1771957087971733800,7.036733642578125,-0.06895241141319275,-0.0341218076646328,0.09427256882190704
1771957087991699000,7.056698974609375,-0.09629303216934204,-0.015191019512712955,0.14108625054359436
1771957088011664000,7.076663818359375,-0.10553216189146042,-0.04679284244775772,0.19790691137313843
1771957088031628800,7.09662890625,-0.14703209698200226,-0.08606597036123276,0.26176154613494873
1771957088051593700,7.11659375,-0.17170314490795135,-0.07684025168418884,0.3009706139564514
1771957088071559000,7.136558837890625,-0.17692331969738007,-0.00844363123178482,0.2820335328578949
1771957088091523800,7.15652392578125,-0.1540469527244568,0.10691820085048676,0.2467719316482544
1771957088111488800,7.17648876953125,-0.11208702623844147,0.2184135466814041,0.2119346559047699
1771957088131454000,7.196453857421875,-0.09425729513168335,0.21292074024677277,0.18056921660900116
1771957088151419000,7.2164189453125,-0.08594746142625809,0.20267236232757568,0.15960142016410828
1771957088171383800,7.2363837890625,-0.07919787615537643,0.17745494842529297,0.15660472214221954
1771957088191348700,7.2563486328125,-0.05832533538341522,0.1301020085811615,0.16035890579223633
1771957088211314000,7.27631396484375,-0.05696971341967583,0.14774176478385925,0.17406156659126282
1771957088231278800,7.29627880859375,-0.06226452440023422,0.18981890380382538,0.1936478614807129
1771957088251243800,7.316243896484375,-0.06863558292388916,0.22749702632427216,0.23445835709571838
1771957088271209000,7.336208984375,-0.058303073048591614,0.28935667872428894,0.28764066100120544
1771957088291174000,7.356173828125,-0.02052772231400013,0.3569016754627228,0.3654521405696869
1771957088311138800,7.376138916015625,0.023017432540655136,0.41931840777397156,0.46851494908332825
1771957088331103700,7.396103759765625,0.04977015405893326,0.5434757471084595,0.6201304197311401
1771957088351069000,7.41606884765625,0.09027048200368881,0.8829899430274963,0.7066437005996704
1771957088371033900,7.436033935546875,0.19283141195774078,0.7583315968513489,0.6045517921447754
1771957088390998800,7.455998779296875,0.20790894329547882,0.6589094400405884,0.47420623898506165
1771957088410963700,7.475963623046875,0.13110841810703278,0.644057035446167,0.384538471698761
1771957088430929000,7.495928955078125,0.0315668098628521,0.6116649508476257,0.3300202488899231
1771957088450893800,7.515893798828125,-0.011999140493571758,0.6096502542495728,0.31893423199653625
1771957088470858800,7.535858642578125,0.0029298465233296156,0.5414196252822876,0.3616407811641693
1771957088490824000,7.555823974609375,0.03957537189126015,0.45972999930381775,0.4320962131023407
1771957088510788900,7.575788818359375,0.03611493110656738,0.27189144492149353,0.5158138871192932
1771957088530753800,7.59575390625,0.051200903952121735,0.12944984436035156,0.534047544002533
1771957088550718700,7.61571875,0.09326331317424774,0.09479494392871857,0.4599231481552124
1771957088570684000,7.635683837890625,0.1344713568687439,-0.08236759901046753,0.2546674609184265
1771957088590649900,7.65564990234375,0.13858309388160706,-0.07969756424427032,0.022122913971543312
1771957088610614800,7.67561474609375,0.09165522456169128,-0.06596042215824127,-0.1652146279811859
1771957088630580000,7.695580078125,0.0130515331402421,-0.07328169792890549,-0.27080315351486206
1771957088650545000,7.715544921875,-0.03988394886255264,-0.07980088144540787,-0.2855837941169739
1771957088670509800,7.735509765625,-0.06174536794424057,-0.10327398031949997,-0.2422972023487091
1771957088690475000,7.75547509765625,-0.054103776812553406,-0.1700889617204666,-0.20424602925777435
1771957088710440000,7.77543994140625,-0.0279240682721138,-0.19465020298957825,-0.1808140128850937
1771957088730404900,7.79540478515625,-0.021815722808241844,-0.21853502094745636,-0.16978314518928528
1771957088750369800,7.815369873046875,-0.033637046813964844,-0.2226431965827942,-0.18247000873088837
1771957088770335000,7.8353349609375,-0.044319991022348404,-0.21691207587718964,-0.21903373301029205
1771957088790300000,7.8552998046875,-0.05263184756040573,-0.13740211725234985,-0.251028448343277
1771957088810264800,7.875264892578125,-0.0642029196023941,-0.06237924471497536,-0.22580210864543915
1771957088830230000,7.89522998046875,-0.05331439524888992,-0.06921481341123581,-0.1634342223405838
1771957088850194700,7.915194580078125,-0.009230905212461948,-0.10113359242677689,-0.103005051612854
1771957088870159600,7.93515966796875,0.02946922928094864,-0.12531882524490356,-0.07512445002794266
1771957088890124500,7.95512451171875,0.03131445124745369,-0.12304394692182541,-0.0794103667140007
1771957088910089700,7.97508984375,0.007511479780077934,-0.12916865944862366,-0.10113180428743362
1771957088930054700,7.9950546875,-0.03641168400645256,-0.16018836200237274,-0.13175727427005768
1771957088950019600,8.01501953125,-0.06498116999864578,-0.16034632921218872,-0.15575872361660004
1771957088969984500,8.034984619140625,-0.0880168005824089,-0.16390110552310944,-0.19465933740139008
1771957088989949700,8.05494970703125,-0.10231055319309235,-0.17650480568408966,-0.23435530066490173
1771957089009914600,8.07491455078125,-0.09788642823696136,-0.15584444999694824,-0.2428775131702423
1771957089029879600,8.094879638671875,-0.08746447414159775,-0.15374189615249634,-0.2505885660648346
1771957089049844700,8.1148447265625,-0.0888395681977272,-0.1474374532699585,-0.26678574085235596
1771957089069809700,8.1348095703125,-0.09173131734132767,-0.08983699232339859,-0.2926930785179138
1771957089089774600,8.154774658203126,-0.09612821787595749,-0.06628477573394775,-0.28880825638771057
1771957089109739500,8.174739501953125,-0.12346154451370239,-0.11245495080947876,-0.24243976175785065
1771957089129704700,8.19470458984375,-0.15551415085792542,-0.16792722046375275,-0.19289666414260864
1771957089149669600,8.214669677734374,-0.15359681844711304,-0.2749386727809906,-0.18203021585941315
1771957089169634600,8.234634521484375,-0.12811550498008728,-0.35232213139533997,-0.23441068828105927
1771957089189599500,8.254599609375,-0.09192252904176712,-0.6129915118217468,-0.40802818536758423
1771957089209564700,8.274564697265625,-0.07038143277168274,-0.9734634160995483,-0.6764013171195984
1771957089229529600,8.294529541015624,-0.06546907126903534,-1.369194507598877,-1.0076380968093872
1771957089249494500,8.31449462890625,-0.024649670347571373,-1.7159446477890015,-1.2833595275878906
1771957089269459700,8.334459716796875,0.03152153640985489,-2.0460078716278076,-1.4135041236877441
1771957089289424600,8.354424560546875,0.10045365989208221,-2.3071491718292236,-1.3659464120864868
1771957089309389600,8.3743896484375,0.2660321891307831,-1.8647435903549194,-1.1953734159469604
1771957089329354500,8.3943544921875,0.3167319893836975,-1.5175235271453857,-1.03762948513031
1771957089349319700,8.414319580078125,0.22234150767326355,-0.9820725917816162,-0.8479461073875427
1771957089369284600,8.43428466796875,0.09033022820949554,-0.3376123905181885,-0.6433961987495422
1771957089389249500,8.45424951171875,-0.015159064903855324,0.2013954073190689,-0.4009699523448944
1771957089409215700,8.4742158203125,-0.07915177941322327,0.3808530569076538,-0.17808517813682556
1771957089429180700,8.4941806640625,-0.07123483717441559,0.3387434184551239,0.001455798395909369
1771957089449145600,8.5141455078125,-0.025438832119107246,0.21877387166023254,0.11507631093263626
1771957089469110800,8.53411083984375,0.026727033779025078,0.09797817468643188,0.1514664888381958
1771957089489075700,8.55407568359375,0.04679704084992409,0.1337234079837799,0.1298048496246338
1771957089509040600,8.57404052734375,-0.021178221330046654,0.21251384913921356,0.05942964181303978
1771957089529005600,8.594005615234375,-0.09007546305656433,0.26683562994003296,-0.02972652204334736
1771957089548970800,8.613970703125,-0.09737636893987656,0.22509270906448364,-0.10223590582609177
1771957089568935700,8.633935791015626,-0.04123001918196678,0.16793784499168396,-0.14456439018249512
1771957089588900600,8.653900634765625,0.009544973261654377,0.12521272897720337,-0.1438298225402832
1771957089608865800,8.67386572265625,0.02601214125752449,0.08559055626392365,-0.12017913907766342
1771957089628830700,8.693830810546874,0.030667459592223167,0.0897011011838913,-0.08908911049365997
1771957089648795600,8.713795654296876,0.03226177394390106,0.08672235161066055,-0.052893586456775665
1771957089668760600,8.733760498046875,0.03544706851243973,0.08687330037355423,-0.04666615277528763
1771957089688725800,8.753725830078125,0.0502597913146019,0.1023649349808693,-0.06448017805814743
1771957089708690700,8.773690673828124,0.04266958683729172,0.15163879096508026,-0.10482558608055115
1771957089728655600,8.793655517578125,0.03606189787387848,0.1701810359954834,-0.13420560956001282
1771957089748620800,8.813620849609375,0.02123785950243473,0.18346382677555084,-0.1298314481973648
1771957089768585700,8.833585693359375,0.005467366427183151,0.1677972972393036,-0.09852266311645508
1771957089788550700,8.853550537109374,-0.007999619469046593,0.13118493556976318,-0.05099660903215408
1771957089808515600,8.873515625,-0.004058407619595528,0.1500033587217331,-0.001291635911911726
1771957089828480800,8.893480712890625,-0.0037042172625660896,0.15337248146533966,0.037432581186294556
1771957089848446200,8.9134462890625,-0.0015767142176628113,0.1502845287322998,0.06742820143699646
1771957089868411100,8.9334111328125,0.016615640372037888,0.18869824707508087,0.09177476167678833
1771957089888376000,8.9533759765625,0.04008780047297478,0.22836443781852722,0.10746560990810394
1771957089908341000,8.973341064453125,0.05452915281057358,0.29707401990890503,0.1223202794790268
1771957089928306200,8.99330615234375,0.059345684945583344,0.4184851348400116,0.1341903805732727
1771957089948271000,9.01327099609375,0.05527738109230995,0.527952253818512,0.14686287939548492
1771957089968236000,9.033236083984375,0.050011277198791504,0.5561928749084473,0.17182108759880066
1771957089988201200,9.053201171875,0.037809718400239944,0.45958325266838074,0.20998957753181458
1771957090008166100,9.073166259765625,0.022220443934202194,0.3112231194972992,0.2591266334056854
1771957090028131000,9.093131103515624,0.018225092440843582,0.26114481687545776,0.27556946873664856
1771957090048096000,9.113095947265625,0.0349205881357193,0.25083673000335693,0.2589417099952698
1771957090068061200,9.133061279296875,0.041659872978925705,0.2654116153717041,0.2262960523366928
1771957090088026000,9.153026123046875,0.03638511896133423,0.2580006718635559,0.19670459628105164
1771957090107991000,9.172990966796876,0.00900522992014885,0.19704999029636383,0.18263819813728333
1771957090127957000,9.19295703125,0.005848783068358898,0.14076802134513855,0.15703867375850677
1771957090147922000,9.212921875,0.0224427692592144,0.11031614243984222,0.11907646805047989
1771957090167886800,9.232886962890625,0.0370924174785614,0.0871918648481369,0.08340418338775635
1771957090187852000,9.25285205078125,0.03943503275513649,0.08636391162872314,0.04297776147723198
1771957090207817000,9.27281689453125,0.03566858544945717,0.10807108134031296,0.01874367706477642
1771957090227782000,9.292781982421875,0.02820967510342598,0.12655043601989746,0.016565287485718727
1771957090247747000,9.3127470703125,0.02038559503853321,0.1216372475028038,0.03980351984500885
1771957090267712000,9.3327119140625,0.0015831626951694489,0.08266795426607132,0.07777958363294601
1771957090287677000,9.352677001953126,-0.012037359178066254,0.04255199432373047,0.10284698009490967
1771957090307641900,9.372641845703125,-0.0048702857457101345,0.05625104531645775,0.09285460412502289
1771957090327607000,9.39260693359375,-0.0048112571239471436,0.11137765645980835,0.07147838175296783
1771957090347572000,9.412572021484374,-0.009642558172345161,0.14049984514713287,0.06247727945446968
1771957090367537000,9.432536865234376,-0.004196321126073599,0.15449443459510803,0.07733087241649628
1771957090387502000,9.452502197265625,0.012799005024135113,0.15928630530834198,0.10566619783639908
1771957090407467000,9.472467041015625,0.04104015231132507,0.207355335354805,0.13127401471138
1771957090427432000,9.492431884765624,0.05611065402626991,0.26368147134780884,0.1585070788860321
1771957090447397000,9.512397216796876,0.06657113879919052,0.31152647733688354,0.191136434674263
1771957090467362000,9.532362060546875,0.08901960402727127,0.35198336839675903,0.21947215497493744
1771957090487327000,9.552326904296875,0.114637590944767,0.3831831216812134,0.23901531100273132
1771957090507292200,9.572292236328124,0.11880690604448318,0.4328611195087433,0.27503931522369385
1771957090527257000,9.592257080078125,0.11862542480230331,0.45747804641723633,0.31770312786102295
1771957090547222000,9.612221923828125,0.11827500909566879,0.47362321615219116,0.3555696904659271
1771957090567187000,9.63218701171875,0.11469120532274246,0.4740581512451172,0.38648900389671326
1771957090587152100,9.652152099609374,0.10604701936244965,0.5021395087242126,0.4042969048023224
1771957090607117000,9.672116943359375,0.10661881417036057,0.5010998845100403,0.39834609627723694
1771957090627082000,9.69208203125,0.11804034560918808,0.49847859144210815,0.3694707155227661
1771957090647047200,9.712047119140625,0.11721857637166977,0.4479304254055023,0.3485186696052551
1771957090667012000,9.73201220703125,0.08791106939315796,0.3706965744495392,0.3176107108592987
1771957090686977000,9.75197705078125,0.05929527059197426,0.3193780481815338,0.2811131477355957
1771957090706942200,9.771942138671875,0.04418966546654701,0.29523512721061707,0.2345089465379715
1771957090726907100,9.7919072265625,0.027877099812030792,0.24436451494693756,0.18440726399421692
1771957090746872000,9.8118720703125,0.008566133677959442,0.18642611801624298,0.1357659101486206
1771957090766837200,9.831837158203125,-0.0003986055962741375,0.11724166572093964,0.08744630962610245
1771957090786803000,9.851802978515625,0.004529314115643501,-0.018016502261161804,0.01960681937634945
1771957090806767900,9.871767822265625,0.01281663030385971,-0.13874049484729767,-0.07531613856554031
1771957090826733000,9.891733154296874,-0.01847740449011326,-0.31364116072654724,-0.16720497608184814
1771957090846697700,9.91169775390625,-0.1076950654387474,-0.5971131920814514,-0.27453091740608215
1771957090866663000,9.931662841796875,-0.23757587373256683,-0.8586089611053467,-0.4196200370788574
1771957090886627800,9.9516279296875,-0.2598191499710083,-0.93016117811203,-0.5803518891334534
1771957090906592800,9.9715927734375,-0.22716638445854187,-0.7855405807495117,-0.6999406814575195
1771957090926558000,9.991557861328126,-0.22797337174415588,-0.772962212562561,-0.7514508366584778
1771957090946523000,10.01152294921875,-0.22788412868976593,-0.9332086443901062,-0.7585168480873108
1771957090966487800,10.03148779296875,-0.16458015143871307,-1.0152266025543213,-0.6974886059761047
1771957090986452700,10.05145263671875,-0.1388886570930481,-0.9442266225814819,-0.6046382188796997
1771957091006418000,10.07141796875,-0.1412891149520874,-0.8809366822242737,-0.5186082720756531
1771957091026382800,10.0913828125,-0.09001210331916809,-0.6908263564109802,-0.4205290377140045
1771957091046347800,10.11134765625,-0.03266635164618492,-0.5015174150466919,-0.30425018072128296
1771957091066313000,10.13131298828125,-0.032694846391677856,-0.3482069671154022,-0.22249992191791534
1771957091086278000,10.15127783203125,-0.023194054141640663,-0.17019730806350708,-0.15656399726867676
1771957091106242800,10.171242919921875,0.00010574376210570335,-0.11141063272953033,-0.10708443075418472
1771957091126207700,10.191207763671875,0.012572212144732475,-0.04679005220532417,-0.07442489266395569
1771957091146173000,10.2111728515625,-0.021941617131233215,0.13966555893421173,-0.039267584681510925
1771957091166137900,10.231137939453125,-0.05939101427793503,0.1476273238658905,-0.010008982382714748
1771957091186102800,10.251102783203125,0.0001571429893374443,-0.16803263127803802,-0.07678564637899399
1771957091206068000,10.27106787109375,0.08169642090797424,-0.2319050431251526,-0.15814723074436188
1771957091226033000,10.291032958984376,0.02865518443286419,-0.20764611661434174,-0.18601350486278534
1771957091245997800,10.310997802734375,-0.08237030357122421,0.0726839080452919,-0.12408692389726639
1771957091265962800,10.330962646484375,-0.09116220474243164,-0.07051383703947067,-0.12687821686267853
1771957091285928000,10.350927978515625,-0.0004898537881672382,-0.15242275595664978,-0.12699557840824127
1771957091305892900,10.370892822265626,-0.00557646993547678,-0.06488923728466034,-0.07147806137800217
1771957091325857800,10.39085791015625,-0.09284461289644241,0.023452088236808777,-0.01508970744907856
1771957091345822700,10.41082275390625,-0.1518971025943756,0.09561790525913239,0.013998317532241344
1771957091365789000,10.430788818359375,-0.13550472259521484,0.13847972452640533,0.005080300383269787
1771957091385753900,10.45075390625,-0.09886571764945984,0.06124429032206535,-0.014205845072865486
1771957091405719000,10.470718994140626,-0.06383766978979111,0.04754256829619408,-0.035831041634082794
1771957091425684000,10.49068408203125,-0.03909965232014656,0.012341723777353764,-0.06746122986078262
1771957091445649000,10.51064892578125,-0.026996301487088203,-0.021961461752653122,-0.08897150307893753
1771957091465613800,10.53061376953125,-0.020128505304455757,-0.0052886544726789,-0.08993347734212875
1771957091485579000,10.5505791015625,0.0028113429434597492,0.025412816554307938,-0.07832484692335129
1771957091505544000,10.5705439453125,0.027929596602916718,-0.0031421734020113945,-0.054426152259111404
1771957091525508900,10.5905087890625,0.0472593791782856,-0.00555448979139328,-0.005400882102549076
1771957091545473800,10.610473876953124,0.05902474746108055,0.040880873799324036,0.04550797492265701
1771957091565439000,10.63043896484375,0.07127760350704193,0.07264254987239838,0.07076504081487656
1771957091585404000,10.65040380859375,0.05788878723978996,0.07024088501930237,0.06624278426170349
1771957091605368800,10.670368896484375,0.027758236974477768,0.05560555309057236,0.03331831470131874
1771957091625334000,10.690333984375,0.027273599058389664,0.05682794749736786,-0.009771213866770267
1771957091645299000,10.710298828125,0.024438636377453804,0.03001074120402336,-0.06056109443306923
1771957091665263900,10.730263916015625,0.021747775375843048,0.003290655091404915,-0.10566253960132599
1771957091685228800,10.750228759765625,0.022474464029073715,0.008038822561502457,-0.14359162747859955
1771957091705194000,10.770194091796874,0.010927650146186352,0.016765214502811432,-0.16165076196193695
1771957091725159000,10.790158935546875,-0.006518036127090454,-0.011946010403335094,-0.18206976354122162
1771957091745123800,10.810123779296875,0.009479152038693428,-0.03652948513627052,-0.2096364051103592
1771957091765089000,10.830089111328125,0.05712969973683357,-0.039803579449653625,-0.2286890745162964
1771957091785054000,10.850053955078126,0.07730652391910553,-0.07575458288192749,-0.22584541141986847
1771957091805019000,10.870018798828125,0.08263802528381348,-0.046781301498413086,-0.1849600225687027
1771957091824983800,10.88998388671875,0.07089679688215256,-0.014364542439579964,-0.1265140026807785
1771957091844949800,10.90994970703125,0.0603410005569458,0.006315183825790882,-0.05213066563010216
1771957091864916000,10.929916015625,0.045722197741270065,-0.029341626912355423,0.021265339106321335
1771957091884881000,10.949880859375,0.026351023465394974,-0.043072231113910675,0.06911547482013702
1771957091904845800,10.969845703125,0.006949213333427906,0.0020078476518392563,0.09721717238426208
1771957091924810800,10.989810791015625,-0.02111811190843582,0.056269969791173935,0.12066895514726639
1771957091944776000,11.00977587890625,-0.028034815564751625,0.06679292023181915,0.12575946748256683
1771957091964740900,11.029740966796876,0.006663102190941572,0.043264761567115784,0.10802952200174332
1771957091984705800,11.049705810546875,0.026161525398492813,0.03363235294818878,0.12516863644123077
1771957092004671000,11.0696708984375,0.013784483075141907,0.047019265592098236,0.1850210577249527
1771957092024636000,11.089635986328124,0.011402785778045654,0.057950709015131,0.25938987731933594
1771957092044600800,11.109600830078126,0.02319965325295925,0.09733077138662338,0.3175452947616577
1771957092064565800,11.129565673828125,0.0394446887075901,0.07127396762371063,0.3502528965473175
1771957092084531000,11.149531005859375,0.03204391524195671,0.09834929555654526,0.40325620770454407
1771957092104495900,11.169495849609374,-0.010462804697453976,0.11015503108501434,0.4437125325202942
1771957092124460800,11.189460693359376,-0.02899393066763878,0.11265898495912552,0.47380319237709045
1771957092144426000,11.209426025390625,-0.03896540030837059,0.07005133479833603,0.49497276544570923
1771957092164391000,11.229390869140625,-0.03576173633337021,0.024180233478546143,0.5173481106758118
1771957092184355800,11.24935595703125,-0.03633100911974907,0.020260555669665337,0.5245822668075562
1771957092204320800,11.26932080078125,-0.03895650804042816,0.0047963447868824005,0.5091090798377991
1771957092224286000,11.289285888671875,-0.04463648051023483,0.014530297368764877,0.4658697843551636
1771957092244251000,11.3092509765625,-0.03695157542824745,-0.010217411443591118,0.4023212194442749
1771957092264215800,11.3292158203125,-0.017087146639823914,-0.04532584547996521,0.30123475193977356
1771957092284181800,11.349181640625,-0.010369502007961273,-0.02527545765042305,0.17185847461223602
1771957092304146700,11.369146728515625,-0.012066674418747425,0.016724994406104088,0.03079710155725479
1771957092324111600,11.389111572265625,-0.0246223546564579,0.02698589488863945,-0.07481839507818222
1771957092344076800,11.409076904296874,-0.024562077596783638,-0.004625845700502396,-0.13648353517055511
1771957092364041700,11.429041748046876,-0.024519674479961395,-0.048239096999168396,-0.1734379380941391
1771957092384006700,11.449006591796875,-0.011343453079462051,-0.08433428406715393,-0.20907045900821686
1771957092403971600,11.4689716796875,0.005972603335976601,-0.085547536611557,-0.2438221126794815
1771957092423936800,11.488936767578124,0.004261876922100782,-0.10371298342943192,-0.28454041481018066
1771957092443901700,11.508901611328126,0.0011739109177142382,-0.12321693450212479,-0.3371002674102783
1771957092463866600,11.52886669921875,-0.006754821632057428,-0.06548143923282623,-0.34313955903053284
1771957092483831600,11.54883154296875,-0.024660438299179077,-0.0035312678664922714,-0.3009093105792999
1771957092503796700,11.568796630859374,-0.03360501676797867,0.005493670701980591,-0.22260606288909912
1771957092523761700,11.58876171875,-0.02722177468240261,-0.008683912456035614,-0.13380677998065948
1771957092543726600,11.6087265625,-0.015202605165541172,-0.05233471095561981,-0.06006849184632301
1771957092563691800,11.62869189453125,-0.009157378226518631,-0.07886863499879837,-0.011549140326678753
1771957092583656700,11.64865673828125,-0.006670042872428894,-0.062391601502895355,-0.00508498540148139
1771957092603621600,11.66862158203125,-0.013147477060556412,-0.051307618618011475,-0.035319164395332336
1771957092623586600,11.688586669921875,-0.020068999379873276,-0.008148401975631714,-0.05608441308140755
1771957092643551700,11.7085517578125,-0.008590093813836575,0.008737948723137379,-0.06330399960279465
1771957092663516700,11.7285166015625,-0.002625915687531233,-0.008852523751556873,-0.051925178617239
1771957092683482600,11.748482666015626,-0.0003085522912442684,-0.016136281192302704,-0.03764960169792175
1771957092703447800,11.76844775390625,0.002140314783900976,-0.02167987823486328,-0.029182780534029007
1771957092723412700,11.788412841796875,0.011069448664784431,-0.0015951376408338547,-0.022951964288949966
1771957092743377700,11.808377685546875,0.015206285752356052,0.00851560290902853,-0.009941376745700836
1771957092763342800,11.8283427734375,0.019928840920329094,0.005980238318443298,0.0017046785214915872
1771957092783307800,11.848307861328125,0.015664109960198402,-0.011883232742547989,0.002424667589366436
1771957092803272700,11.868272705078125,0.009097556583583355,-0.01807262748479843,0.0014821876538917422
1771957092823237600,11.888237548828124,-0.005913321860134602,-0.001417243853211403,-0.008721779100596905
1771957092843201300,11.908201171875,-0.016604963690042496,0.010716431774199009,-0.010140997357666492
1771957092863166500,11.92816650390625,-0.015481526032090187,0.012521802447736263,-0.014503754675388336
1771957092883131400,11.94813134765625,-0.005567761138081551,-0.003015892580151558,-0.02207515388727188
1771957092903096300,11.968096435546874,-0.004994620103389025,-0.010027159005403519,-0.03187457099556923
1771957092923061500,11.9880615234375,0.0010163984261453152,-0.018960587680339813,-0.053161513060331345
1771957092943026400,12.0080263671875,0.0022555110044777393,-0.007547828834503889,-0.060475751757621765
1771957092962991400,12.027991455078125,-0.0023685074411332607,0.014695796184241772,-0.05236087366938591
1771957092982956300,12.047956298828124,-0.005300587043166161,0.03226780518889427,-0.04219811409711838
1771957093002921500,12.06792138671875,0.0010148037690669298,0.004149848595261574,-0.0361470989882946
1771957093022886400,12.087886474609375,0.015530718490481377,-0.006903559900820255,-0.028562316671013832
1771957093042851300,12.107851318359375,0.018948055803775787,-0.011642957106232643,-0.022967228665947914
1771957093062817500,12.127817626953124,0.010461272671818733,0.000002800486981868744,-0.022870905697345734
1771957093082782500,12.147782470703126,0.010548179969191551,-0.004554953426122665,-0.0329306460916996
1771957093102747400,12.167747314453125,0.013704556040465832,-0.016924064606428146,-0.053028739988803864
1771957093122712600,12.187712646484375,0.015765491873025894,-0.0395645834505558,-0.07364779710769653
1771957093142677500,12.207677490234374,0.007273527793586254,-0.01907661184668541,-0.07291767746210098
1771957093162642400,12.227642333984376,-0.0033805957064032555,-0.006717397831380367,-0.05537167564034462
1771957093182607400,12.247607421875,-0.0007472322322428226,-0.02861154079437256,-0.04133901372551918
1771957093202572500,12.267572509765625,0.003370842896401882,-0.03274499624967575,-0.03868602588772774
1771957093222537500,12.287537353515624,-0.002819114364683628,-0.03799271583557129,-0.05523202568292618
1771957093242502400,12.30750244140625,-0.003482535947114229,-0.04255448281764984,-0.08730282634496689
1771957093262467600,12.327467529296875,-0.006501381751149893,-0.0033995327539741993,-0.10304632037878036
1771957093282432500,12.3474326171875,-0.014111654832959175,0.012285572476685047,-0.0986693799495697
1771957093302397400,12.3673974609375,-0.006796103436499834,0.005522564053535461,-0.0914071574807167
1771957093322362400,12.3873623046875,0.0074930014088749886,-0.028471406549215317,-0.07765123248100281
1771957093342327600,12.40732763671875,0.009011147543787956,-0.05823989585042,-0.0627513974905014
1771957093362292500,12.42729248046875,-0.002755019348114729,-0.03887879475951195,-0.03117658942937851
1771957093382257400,12.44725732421875,-0.013377105817198753,-0.040918368846178055,0.0027053579688072205
1771957093402222300,12.467222412109376,0.0012003665324300528,-0.03653307631611824,0.021793566644191742
1771957093422188500,12.4871884765625,0.011841559782624245,-0.01805340126156807,0.037024982273578644
1771957093442153500,12.507153564453125,0.004143129102885723,-0.017110344022512436,0.05070970207452774
1771957093462118700,12.52711865234375,-0.0002502291463315487,-0.011664170771837234,0.06713330000638962
1771957093482083600,12.54708349609375,0.0025631061289459467,-0.01029454730451107,0.08785167336463928
1771957093502048500,12.567048583984375,-0.006159752141684294,-0.026755603030323982,0.11374839395284653
1771957093522013400,12.587013427734375,-0.022549564018845558,-0.04961252212524414,0.15567226707935333
1771957093541978600,12.606978515625,-0.03477619215846062,-0.04128357768058777,0.17755262553691864
1771957093561943600,12.626943603515626,-0.027656879276037216,-0.01882701739668846,0.17055967450141907
1771957093581908500,12.646908447265625,-0.012490944936871529,0.006699083372950554,0.16565965116024017
1771957093601873400,12.666873291015625,-0.022162510082125664,-0.008976783603429794,0.16677959263324738
1771957093621838600,12.686838623046874,-0.024151507765054703,-0.041256144642829895,0.17899180948734283
1771957093641803500,12.706803466796876,-0.020201247185468674,-0.06880167126655579,0.19387277960777283
1771957093661768400,12.7267685546875,-0.013830175623297691,-0.07847472280263901,0.19719216227531433
1771957093681733600,12.746733642578125,-0.007097929250448942,-0.061297982931137085,0.18053345382213593
1771957093701698600,12.766698486328124,-0.00810939446091652,-0.02757418528199196,0.1577596813440323
1771957093721663500,12.78666357421875,-0.010823724791407585,-0.014558940194547176,0.13521212339401245
1771957093741629700,12.806629638671875,-0.007830118760466576,-0.00703772809356451,0.12521710991859436
1771957093761594600,12.8265947265625,-0.013104775920510292,-0.009590900503098965,0.13278287649154663
1771957093781559600,12.8465595703125,-0.017253926023840904,-0.01876194030046463,0.1476259082555771
1771957093801524500,12.8665244140625,-0.02380036935210228,-0.019112346693873405,0.16374148428440094
1771957093821489700,12.88648974609375,-0.03063030354678631,-0.01964985765516758,0.175587996840477
1771957093841454600,12.90645458984375,-0.03296121954917908,-0.008412932977080345,0.1727956384420395
1771957093861420000,12.926419921875,-0.023219265043735504,-0.016037726774811745,0.16514363884925842
1771957093881385000,12.946385009765624,-0.030942458659410477,-0.0017475192435085773,0.17780008912086487
1771957093901350000,12.966349853515625,-0.05680032819509506,0.006629957817494869,0.1964937150478363
1771957093921315000,12.986315185546875,-0.05822095274925232,-0.0051302663050591946,0.2036260962486267
1771957093941280000,13.006280029296875,-0.04396231845021248,-0.0011670221574604511,0.2279139906167984
1771957093961245000,13.026244873046876,-0.035852327942848206,-0.016673658043146133,0.2798736095428467
1771957093981210000,13.046210205078125,-0.021253297105431557,-0.01997622475028038,0.32305091619491577
1771957094001175000,13.066175048828125,-0.0101889967918396,0.01554665993899107,0.37031418085098267
1771957094021140700,13.086140625,-0.01586461439728737,0.061819445341825485,0.4369204342365265
1771957094041106000,13.10610595703125,-0.012373795732855797,0.13223600387573242,0.481347918510437
1771957094061070800,13.12607080078125,-0.016800666227936745,0.21693748235702515,0.5028747916221619
1771957094081035800,13.146035888671875,-0.00829501822590828,0.27954185009002686,0.48262593150138855
1771957094101000700,13.166000732421875,0.09039487689733505,0.3630819320678711,0.3910745680332184
1771957094120966000,13.1859658203125,0.22126977145671844,0.5488152503967285,0.2780122458934784
1771957094140930800,13.205930908203126,0.23782935738563538,0.5890035629272461,0.2452816367149353
1771957094160895700,13.225895751953125,0.11588530242443085,0.436583012342453,0.26299625635147095
1771957094180861000,13.24586083984375,-0.03437456488609314,0.36950060725212097,0.3351944088935852
1771957094200825900,13.265825927734374,-0.14340919256210327,0.4015437364578247,0.40750250220298767
1771957094220790800,13.285790771484375,-0.19744272530078888,0.4506213366985321,0.4633210301399231
1771957094240755700,13.305755615234375,-0.20524349808692932,0.4636029899120331,0.47934067249298096
1771957094260721000,13.325720947265625,-0.20339195430278778,0.5190221071243286,0.49199071526527405
1771957094280685800,13.345685791015624,-0.17748261988162994,0.5197824835777283,0.48455551266670227
1771957094300651800,13.36565185546875,-0.17482425272464752,0.5101370811462402,0.44512927532196045
1771957094320617000,13.385616943359375,-0.14304094016551971,0.4586043357849121,0.40822938084602356
1771957094340582000,13.405581787109375,-0.10280012339353561,0.2865840196609497,0.3822043240070343
1771957094360546800,13.425546875,-0.04070631414651871,0.1634824126958847,0.34334760904312134
1771957094380512000,13.445511962890626,0.017979301512241364,0.17542597651481628,0.29182490706443787
1771957094400477000,13.465476806640625,0.06607432663440704,0.2504028379917145,0.24909807741641998
1771957094420441900,13.48544189453125,0.0620666965842247,0.3116101622581482,0.2177659273147583
1771957094440406800,13.50540673828125,0.01968410797417164,0.30354055762290955,0.17925550043582916
1771957094460372000,13.5253720703125,-0.006519833579659462,0.37946999073028564,0.14366987347602844
1771957094480337000,13.5453369140625,-0.000607767142355442,0.4010152518749237,0.14441639184951782
1771957094500301800,13.5653017578125,0.009767469018697739,0.4159073233604431,0.18223069608211517
1771957094520266800,13.585266845703124,-0.001635527703911066,0.3768538534641266,0.2086612582206726
1771957094540233000,13.60523291015625,0.006610637530684471,0.38375958800315857,0.17745548486709595
1771957094560198000,13.625197998046875,0.021617397665977478,0.3920662999153137,0.1564788669347763
1771957094580162800,13.645162841796875,-0.0249929241836071,0.39968398213386536,0.14010590314865112
1771957094600128000,13.6651279296875,-0.07117567956447601,0.40709686279296875,0.08555439859628677
1771957094620093000,13.685093017578126,-0.10292236506938934,0.3687595725059509,0.08930854499340057
1771957094640057900,13.705057861328125,-0.12866301834583282,0.322601318359375,0.1446799486875534
1771957094660023000,13.72502294921875,-0.12617790699005127,0.2401709258556366,0.19047436118125916
1771957094679988000,13.744988037109374,-0.1174853965640068,0.23351985216140747,0.19542820751667023
1771957094699953000,13.764952880859376,-0.10391528904438019,0.21607564389705658,0.20665723085403442
1771957094719917800,13.784917724609375,-0.10993865877389908,0.19338634610176086,0.2752183675765991
1771957094739883000,13.804883056640625,-0.11752454936504364,0.32702237367630005,0.12606936693191528
1771957094759848000,13.824847900390624,-0.10313176363706589,0.1284581422805786,-0.21869440376758575
1771957094779814000,13.84481396484375,-0.16538070142269135,0.0242769792675972,-0.1802200824022293
1771957094799778800,13.86477880859375,-0.1361946314573288,0.0038356631994247437,-0.12373384088277817
1771957094819743700,13.88474365234375,-0.07942409813404083,-0.11829057335853577,-0.033332403749227524
1771957094839709000,13.904708984375,-0.029295627027750015,-0.26631680130958557,0.07864807546138763
1771957094859673600,13.924673583984376,0.07137830555438995,-0.3597777485847473,-0.029400745406746864
1771957094879638500,13.944638427734375,0.13380682468414307,-0.5198977589607239,-0.3437166213989258
1771957094899603700,13.964603759765625,0.08759785443544388,-0.5012635588645935,-0.593732476234436
1771957094919568600,13.984568603515624,-0.047744765877723694,-0.4772489368915558,-0.7002794742584229
1771957094939533600,14.004533447265626,-0.15353703498840332,-0.4288252592086792,-0.6556138396263123
1771957094959498500,14.02449853515625,-0.19690345227718353,-0.46154388785362244,-0.5537734627723694
1771957094979463700,14.044463623046875,-0.11242260038852692,-0.5758436322212219,-0.4993811845779419
1771957094999429400,14.064429443359375,0.003126019611954689,-0.6215582489967346,-0.448233425617218
1771957095019394300,14.084394287109374,0.034390926361083984,-0.6388213038444519,-0.40699291229248047
1771957095039359500,14.104359375,-0.00019088946282863617,-0.642755925655365,-0.4212682247161865
1771957095059324400,14.124324462890625,-0.0402769036591053,-0.6111024022102356,-0.49016478657722473
1771957095079289300,14.144289306640625,-0.0726902186870575,-0.5540249347686768,-0.5719544887542725
1771957095099254500,14.164254638671874,-0.07526841014623642,-0.4721727669239044,-0.6245633959770203
1771957095119219500,14.184219482421875,-0.04757083207368851,-0.4183931350708008,-0.6243603229522705
1771957095139184400,14.204184326171875,-0.0018511973321437836,-0.40946587920188904,-0.5801735520362854
1771957095159149300,14.2241494140625,0.04198159649968147,-0.4099527597427368,-0.498304158449173
1771957095179114500,14.244114501953124,0.04972938075661659,-0.39205202460289,-0.370880126953125
1771957095199079400,14.264079345703125,0.018114296719431877,-0.340493381023407,-0.23319438099861145
1771957095219044400,14.28404443359375,0.008777953684329987,-0.2652924954891205,-0.1515727937221527
1771957095239010600,14.304010498046875,0.03489542379975319,-0.19887402653694153,-0.12611694633960724
1771957095258975500,14.3239755859375,0.0402500294148922,-0.1310632824897766,-0.08457335084676743
1771957095278940400,14.3439404296875,0.022186513990163803,-0.08890563249588013,-0.03212486207485199
1771957095298905600,14.363905517578125,0.013457788154482841,-0.06370298564434052,0.005055699031800032
1771957095318870500,14.38387060546875,0.008971542119979858,-0.026057317852973938,0.01640399359166622
1771957095338835500,14.40383544921875,0.009812985546886921,-0.058507420122623444,-0.002061066683381796
1771957095358800400,14.42380029296875,0.0371924564242363,-0.06384056061506271,-0.03285582736134529
1771957095378765600,14.443765625,0.05256055295467377,-0.1012696847319603,-0.07058174908161163
1771957095398730500,14.46373046875,0.0559714250266552,-0.16580165922641754,-0.0984581783413887
1771957095418695400,14.4836953125,0.03849523887038231,-0.23362955451011658,-0.17301791906356812
1771957095438660600,14.50366064453125,0.0096901785582304,-0.27189263701438904,-0.26477357745170593
1771957095458626600,14.52362646484375,-0.004375712014734745,-0.20328541100025177,-0.3268183171749115
1771957095478591500,14.543591552734375,0.015720339491963387,-0.0918503850698471,-0.3541950285434723
1771957095498556700,14.563556640625,0.025965161621570587,-0.04085800424218178,-0.3097892701625824
1771957095518521600,14.583521484375,-0.005952408071607351,-0.08049225807189941,-0.21498796343803406
1771957095538486500,14.603486572265625,-0.015251494944095612,-0.09248676151037216,-0.09996124356985092
1771957095558451500,14.623451416015625,0.02681886777281761,-0.03555097430944443,0.0048559620045125484
1771957095578416600,14.643416748046874,0.06780867278575897,-0.00971011258661747,0.07933224737644196
1771957095598381600,14.663381591796876,0.08331219851970673,-0.061659231781959534,0.11796341091394424
1771957095618346500,14.683346435546875,0.07548792660236359,-0.057242944836616516,0.13869699835777283
1771957095638311700,14.703311767578125,0.049687765538692474,-0.022915177047252655,0.14141446352005005
1771957095658276600,14.723276611328124,0.008894044905900955,0.013421914540231228,0.11385545134544373
1771957095678242600,14.74324267578125,-0.019145753234624863,0.050351403653621674,0.06939299404621124
1771957095698207700,14.763207763671875,0.01485543791204691,0.040943849831819534,0.05134298652410507
1771957095718172700,14.783172607421875,0.05945558100938797,-0.016926433891057968,0.07526765763759613
1771957095738137600,14.8031376953125,0.07410535216331482,-0.0431094765663147,0.0819639265537262
1771957095758102500,14.8231025390625,0.04626712203025818,0.0013378961011767387,0.09056130051612854
1771957095778067700,14.843067626953125,0.027955329045653343,0.021422002464532852,0.09075657278299332
1771957095798032600,14.86303271484375,0.03817809000611305,0.0772915631532669,0.09697754681110382
1771957095817997600,14.88299755859375,0.07232581079006195,0.17300671339035034,0.11933130770921707
1771957095837962500,14.90296240234375,0.12643879652023315,0.24969534575939178,0.17462530732154846
1771957095857928000,14.922927978515625,0.15626558661460876,0.19643017649650574,0.2625470757484436
1771957095877892900,14.942892822265625,0.1266099512577057,0.0026109376922249794,0.29378461837768555
1771957095897859000,14.962859130859375,0.1133684292435646,-0.0788150429725647,0.1808146983385086
1771957095917824000,14.982823974609374,0.10323654115200043,-0.05566788837313652,-0.04149583727121353
1771957095937789000,15.002788818359376,0.05122463032603264,-0.028009649366140366,-0.2270420342683792
1771957095957753900,15.02275390625,-0.018730325624346733,-0.030885707587003708,-0.3250243067741394
1771957095977719000,15.042718994140625,-0.022865505889058113,0.00524782482534647,-0.3868406414985657
1771957095997684000,15.06268408203125,0.006208894774317741,0.06045868620276451,-0.34652915596961975
1771957096017649000,15.08264892578125,0.04469311982393265,0.06661395728588104,-0.20723243057727814
1771957096037614000,15.102614013671875,0.07251901179552078,0.11550667881965637,-0.04427223652601242
1771957096057579000,15.1225791015625,0.07082481682300568,0.12360599637031555,0.09912678599357605
1771957096077544000,15.1425439453125,0.04224222153425217,-0.034377455711364746,0.1717422902584076
1771957096097508900,15.1625087890625,0.0269745122641325,-0.1397220939397812,0.1666976362466812
1771957096117475000,15.18247509765625,0.010493272915482521,-0.11937874555587769,0.0946551263332367
1771957096137440000,15.20243994140625,-0.013805549591779709,-0.07184431701898575,0.003386212047189474
1771957096157405000,15.222405029296874,-0.03555665165185928,-0.07966388761997223,-0.055134352296590805
1771957096177370000,15.2423701171875,-0.014102733694016933,-0.07991577684879303,-0.089095838367939
1771957096197335000,15.2623349609375,0.029781483113765717,-0.07420860230922699,-0.09691324084997177
1771957096217300000,15.282300048828125,0.04201100766658783,-0.03356152027845383,-0.04377284273505211
1771957096237265200,15.30226513671875,0.05568975210189819,-0.02136807329952717,0.0015020591672509909
1771957096257230000,15.32222998046875,0.07391634583473206,-0.010067803785204887,-0.001669866032898426
1771957096277195000,15.342195068359375,0.08545573800802231,-0.025571182370185852,-0.0432075560092926
1771957096297160000,15.362159912109375,0.06959749758243561,-0.03247830271720886,-0.08016040921211243
1771957096317125000,15.382125,0.043355122208595276,-0.03797455132007599,-0.11903407424688339
1771957096337090000,15.402090087890626,0.024198142811655998,-0.021772608160972595,-0.14415472745895386
1771957096357056000,15.422055908203125,0.013987289741635323,-0.045662276446819305,-0.15795332193374634
1771957096377021200,15.442021240234375,-0.00047508440911769867,-0.04358856379985809,-0.15341994166374207
1771957096396986000,15.461986083984375,-0.017298700287938118,-0.03655661270022392,-0.11317844688892365
1771957096416951000,15.481950927734376,-0.03942786902189255,-0.004272064194083214,-0.06175968050956726
1771957096436916200,15.501916259765625,-0.04042010381817818,-0.01944568008184433,-0.035656556487083435
1771957096456881200,15.521881103515625,-0.02952633984386921,-0.040000349283218384,-0.0365166962146759
1771957096476846000,15.54184619140625,-0.03542070835828781,-0.02405714988708496,-0.03707651048898697
1771957096496811000,15.56181103515625,-0.05585837736725807,0.00946897454559803,-0.02700994163751602
1771957096516776200,15.581776123046875,-0.053418055176734924,0.03663766756653786,-0.0127781443297863
1771957096536741000,15.6017412109375,-0.026807088404893875,0.033717408776283264,-0.0035436288453638554
1771957096556706000,15.6217060546875,0.0005638145375996828,0.017905954271554947,0.0045007155276834965
1771957096576672000,15.641672119140624,0.008373487740755081,0.007635101675987244,-0.0006737096700817347
1771957096596637000,15.661636962890626,0.008883634582161903,-0.0042319633066654205,-0.01910947635769844
1771957096616601900,15.681601806640625,0.005516507662832737,-0.009831230156123638,-0.03616790473461151
1771957096636567000,15.701567138671875,0.0023664510808885098,-0.010976837947964668,-0.058964960277080536
1771957096656532000,15.721531982421874,-0.001139913685619831,-0.04445713758468628,-0.07505888491868973
1771957096676497000,15.741496826171876,-0.01086174976080656,-0.03595290333032608,-0.07962094247341156
1771957096696461800,15.7614619140625,-0.02642214670777321,-0.03198381885886192,-0.08020508289337158
1771957096716427000,15.781427001953125,-0.02290358953177929,-0.0245785154402256,-0.09771241247653961
1771957096736392000,15.801391845703124,-0.018437378108501434,0.005075490102171898,-0.08044359087944031
1771957096756356900,15.82135693359375,-0.02295042760670185,-0.009112776257097721,-0.04893108829855919
1771957096776322000,15.841322021484375,-0.013215834274888039,0.015737170353531837,-0.010595567524433136
1771957096796287000,15.861286865234375,-0.018237268552184105,0.04707604646682739,0.050619937479496
1771957096816253000,15.8812529296875,-0.008823491632938385,0.06423874199390411,0.09863480180501938
1771957096836218000,15.901218017578126,0.006282629445195198,0.05445942282676697,0.09798204153776169
1771957096856183000,15.92118310546875,0.018039247021079063,0.033006034791469574,0.05109504610300064
1771957096876148000,15.94114794921875,0.010829084552824497,0.018807988613843918,-0.0025132177397608757
1771957096896113000,15.96111279296875,0.0047628083266317844,0.00935892853885889,-0.048934247344732285
1771957096916078000,15.981078125,-0.005472369026392698,-0.006601415108889341,-0.06140826269984245
1771957096936043000,16.00104296875,-0.00525263324379921,-0.014392444863915443,-0.049031004309654236
1771957096956008000,16.021008056640625,0.0030963770113885403,-0.006233052350580692,-0.022715779021382332
1771957096975972900,16.040972900390624,0.011744791641831398,-0.013666542246937752,-0.011098138988018036
1771957096995938000,16.06093798828125,0.009365439414978027,-0.013063122518360615,-0.016206713393330574
1771957097015903000,16.080903076171875,-0.0174709502607584,-0.0036005177535116673,-0.007340018171817064
1771957097035868000,16.100867919921875,-0.02035604417324066,0.020011896267533302,-0.004312619566917419
1771957097055834000,16.120834228515626,-0.0034684650599956512,0.03471812978386879,-0.008759715594351292
1771957097075799000,16.140799072265626,0.010069312527775764,0.005811765789985657,-0.007783401757478714
1771957097095764000,16.160763916015625,0.00816014502197504,-0.0030231825076043606,-0.0002949590561911464
1771957097115729200,16.180729248046877,-0.003078186884522438,-0.005895943380892277,0.005184344947338104
1771957097135694000,16.200694091796876,-0.002074579242616892,0.003301710821688175,-0.00509278941899538
1771957097155659000,16.220658935546876,-0.004446412902325392,-0.020760802552103996,-0.029876118525862694
1771957097175624000,16.2406240234375,-0.008779598399996758,-0.011646822094917297,-0.019065910950303078
1771957097195589000,16.260589111328127,-0.010558193549513817,-0.010212255641818047,0.01055963896214962
1771957097215554000,16.280553955078126,0.006749942898750305,0.005908784456551075,0.01857525110244751
1771957097235519000,16.30051904296875,0.022090159356594086,0.001615302637219429,0.007526312954723835
1771957097255484200,16.320484130859374,0.020472612231969833,-0.0053006503731012344,0.002896291669458151
1771957097275449000,16.340448974609377,0.006480178330093622,0.007206150330603123,0.018964042887091637
1771957097295415000,16.3604150390625,0.01118241623044014,0.015086331404745579,0.02282663993537426
1771957097315380200,16.380380126953124,0.01302456296980381,0.005423203110694885,0.008064653724431992
1771957097335345200,16.40034521484375,0.01080417912453413,-0.006285722833126783,-0.005886097438633442
1771957097355310000,16.42031005859375,-0.004096554592251778,-0.017793036997318268,-0.01277260109782219
1771957097375275000,16.44027490234375,-0.007903959602117538,0.011166996322572231,-0.017164384946227074
1771957097395240200,16.460240234375,-0.012490734457969666,0.006655429489910603,-0.013195723295211792
1771957097415205000,16.480205078125,-0.0060263387858867645,-0.0007727835327386856,-0.01411152072250843
1771957097435170000,16.500170166015625,-0.012445474043488503,-0.027220122516155243,-0.012336292304098606
1771957097455135200,16.52013525390625,-0.010385986417531967,-0.02810436487197876,-0.017818011343479156
1771957097475100200,16.54010009765625,-0.018381251022219658,-0.017776750028133392,-0.014376820996403694
1771957097495065000,16.560065185546875,-0.0154847651720047,-0.008013376034796238,0.004574697930365801
1771957097515031000,16.580031005859375,0.0021501558367162943,-0.011503981426358223,0.017153074964880943
1771957097534996000,16.599995849609375,0.009280109778046608,-0.011099375784397125,0.012902121990919113
1771957097554961000,16.6199609375,0.01052964199334383,0.004202829673886299,0.0015512449899688363
1771957097574925800,16.63992578125,0.004290375858545303,0.01018944475799799,-0.016934802755713463
1771957097594891000,16.65989111328125,0.0045508104376494884,0.011838686652481556,-0.028661983087658882
1771957097614856000,16.67985595703125,0.006284794770181179,-0.00765112554654479,-0.022471997886896133
1771957097634820900,16.69982080078125,0.005896457936614752,-0.011601224541664124,-0.01836024597287178
1771957097654786000,16.7197861328125,0.004714339040219784,-0.023667730391025543,-0.012481434270739555
1771957097674751000,16.7397509765625,-0.00002810126170516014,-0.03318558260798454,-0.023350028321146965
1771957097694716000,16.7597158203125,-0.015713587403297424,-0.045775413513183594,-0.034366726875305176
1771957097714680800,16.779680908203126,-0.02242691069841385,-0.025494180619716644,-0.050092652440071106
1771957097734647000,16.79964697265625,-0.013199448585510254,-0.02043248526751995,-0.05132836475968361
1771957097754612000,16.819612060546874,0.005045151337981224,-0.030663222074508667,-0.030599016696214676
1771957097774577000,16.839576904296877,0.009533004835247993,-0.032311562448740005,-0.0026459977962076664
1771957097794542000,16.8595419921875,0.008910764008760452,-0.025445865467190742,0.021056652069091797
1771957097814507000,16.879507080078124,0.018506307154893875,-0.02391904592514038,0.02887720987200737
1771957097834472000,16.899471923828123,0.03036261908710003,-0.03279249370098114,0.022870082408189774
1771957097854437000,16.91943701171875,0.014096006751060486,-0.04914141818881035,0.012484068982303143
1771957097874402000,16.939402099609374,-0.0015052654780447483,-0.045070767402648926,-0.0026595797389745712
1771957097894367000,16.959366943359374,0.005116626154631376,-0.04045099392533302,-0.031232252717018127
1771957097914332000,16.979331787109373,0.007242211140692234,-0.05305891111493111,-0.03706693649291992
1771957097934297000,16.999297119140625,0.012406904250383377,-0.07754209637641907,-0.020526094362139702
1771957097954262000,17.019261962890624,0.012346633709967136,-0.08389698714017868,-0.01811736449599266
1771957097974227000,17.03922705078125,0.009748212061822414,-0.056377433240413666,-0.03895771503448486
1771957097994193200,17.059193115234375,0.003713814076036215,-0.040040530264377594,-0.059844471514225006
1771957098014158000,17.079157958984375,-0.004890351090580225,-0.054436031728982925,-0.06758410483598709
1771957098034123000,17.099123046875,-0.009699370712041855,-0.04087120294570923,-0.059324804693460464
1771957098054088200,17.119088134765626,-0.013292944058775902,-0.027460429817438126,-0.05242316052317619
1771957098074053000,17.13905322265625,-0.01172672025859356,-0.013922387734055519,-0.0458047017455101
1771957098094018000,17.15901806640625,-0.009110846556723118,-0.010320442728698254,-0.03434615209698677
1771957098113983000,17.17898291015625,0.006713639013469219,-0.006603333167731762,-0.026036791503429413
1771957098133948200,17.1989482421875,0.013689698651432991,0.003865579143166542,-0.011147141456604004
1771957098153913000,17.2189130859375,0.007978507317602634,0.0018097441643476486,0.000501610804349184
1771957098173878000,17.2388779296875,-0.000486176460981369,0.018059585243463516,0.015538002364337444
1771957098193843200,17.25884326171875,-0.005837081000208855,0.016637660562992096,0.026226498186588287
1771957098213808000,17.27880810546875,-0.00044062500819563866,0.0143313342705369,0.021495208144187927
1771957098233773000,17.29877294921875,0.00261105690151453,0.008405840024352074,0.00489366240799427
1771957098253739000,17.318739013671873,-0.004821084439754486,0.025424763560295105,-0.014345429837703705
1771957098273704000,17.338703857421876,-0.006085902452468872,0.019870679825544357,-0.013336459174752235
1771957098293668900,17.3586689453125,0.0010676274541765451,0.033622853457927704,0.0009953128173947334
1771957098313633800,17.3786337890625,0.004013044759631157,0.03475450724363327,0.011906363070011139
1771957098333599000,17.398598876953123,0.010581006295979023,0.03149015083909035,0.017275679856538773
1771957098353564000,17.41856396484375,0.006246271543204784,0.02253817208111286,0.011209082789719105
1771957098373528800,17.43852880859375,-0.007282785605639219,0.026282764971256256,0.009737817570567131
1771957098393494000,17.458493896484374,-0.007671651430428028,0.02127349004149437,0.007700053043663502
1771957098413459000,17.478458984375,-0.0019780569709837437,0.02676950767636299,-0.000005585257895290852
1771957098433424000,17.498423828125,-0.0062711527571082115,0.021201573312282562,-0.016505036503076553
1771957098453389000,17.51838916015625,-0.0010381806641817093,0.04598354548215866,-0.007440952118486166
1771957098473354000,17.53835400390625,-0.001961949747055769,0.03365796431899071,0.009188193827867508
1771957098493320000,17.55831982421875,0.0029815477319061756,0.03971140831708908,0.030065497383475304
1771957098513284900,17.578284912109375,0.0015645844396203756,0.037370093166828156,0.036421727389097214
1771957098533250000,17.59825,-0.003448931500315666,0.031105786561965942,0.026890238747000694
1771957098553215000,17.618215087890626,-0.005098436027765274,0.027528638020157814,0.01454104669392109
1771957098573180000,17.638179931640625,-0.009457509033381939,0.033423371613025665,0.0036101206205785275
1771957098593144800,17.658144775390625,-0.008146525360643864,0.022071847692131996,-0.008586998097598553
1771957098613110000,17.678110107421876,-0.0073757111094892025,0.02024807780981064,-0.00518100056797266
1771957098633075000,17.698074951171876,0.0006130831316113472,0.01714428886771202,0.0014719023602083325
1771957098653039900,17.718039794921875,0.010404576547443867,0.011575109325349331,-0.005448554176837206
1771957098673005000,17.738005126953126,0.016774727031588554,0.014886031858623028,-0.0121384272351861
1771957098692970000,17.757969970703126,0.015509648248553276,0.022250134497880936,-0.0009426014148630202
1771957098712936000,17.77793603515625,0.014043022878468037,0.028627287596464157,0.004883111454546452
1771957098732901000,17.797901123046874,0.013974964618682861,0.01234597060829401,0.0073364232666790485
1771957098752866000,17.817865966796877,0.020715616643428802,0.0013534342870116234,0.001983632566407323
1771957098772831000,17.8378310546875,0.011297972872853279,0.01974785141646862,-0.004217456094920635
1771957098792796000,17.8577958984375,-0.004073030315339565,0.028785869479179382,0.0011419577058404684
1771957098812761000,17.877760986328123,-0.009119763039052486,0.027627013623714447,0.005410834215581417
1771957098832726000,17.89772607421875,-0.008008839562535286,0.027602698653936386,0.009804791770875454
1771957098852691500,17.91769140625,-0.018207799643278122,0.02734098955988884,0.016134051606059074
1771957098872656400,17.937656494140626,-0.017761511728167534,0.027876272797584534,0.017460955306887627
1771957098892621300,17.957621337890625,-0.017816081643104553,0.028271976858377457,0.02017863653600216
1771957098912586200,17.977586181640625,-0.01598517782986164,0.037733860313892365,0.0247633159160614
1771957098932552400,17.997552490234376,-0.01426310371607542,0.038532182574272156,0.038815613836050034
1771957098952517400,18.017517333984376,-0.006402993109077215,0.027168484404683113,0.046604178845882416
1771957098972482300,18.037482421875,-0.008602039888501167,0.04286152124404907,0.06024822220206261
1771957098992447500,18.057447509765623,-0.0010679196566343307,0.053829967975616455,0.0775991827249527
1771957099012412400,18.077412353515626,0.024570217356085777,0.027111515402793884,0.07335460186004639
1771957099032377300,18.09737744140625,0.03331978619098663,0.01833805814385414,0.05478832498192787
1771957099052342500,18.117342529296874,0.04278814047574997,0.0064195068553090096,0.011292492970824242
1771957099072307500,18.137307373046873,0.03380322828888893,-0.011671164073050022,-0.043733082711696625
1771957099092272400,18.1572724609375,0.014560574665665627,-0.03225617855787277,-0.08512581884860992
1771957099112237300,18.1772373046875,-0.003333642613142729,-0.0287909097969532,-0.0979965329170227
1771957099132203300,18.197203369140624,-0.01506123412400484,-0.031189672648906708,-0.07807032763957977
1771957099152168200,18.217168212890623,-0.004276589956134558,-0.003325426485389471,-0.03711523115634918
1771957099172133000,18.237133056640626,0.0051048267632722855,0.003873854875564575,0.007763190660625696
1771957099192098300,18.257098388671874,0.008799396455287933,0.0010395841673016548,0.02990054152905941
1771957099212063200,18.277063232421874,0.005185715388506651,0.00924785528331995,0.022228600457310677
1771957099232028200,18.297028076171873,-0.008971763774752617,0.0096118850633502,0.004273268394172192
1771957099251993300,18.316993408203125,-0.008379857987165451,-0.0009236037731170654,-0.015517781488597393
1771957099271958300,18.336958251953124,-0.004846584517508745,0.009910586290061474,-0.014896872453391552
1771957099291923200,18.356923095703124,-0.010615579783916473,0.03172958642244339,0.009517772123217583
1771957099311889400,18.376889404296875,-0.006191222928464413,0.03691950812935829,0.032829686999320984
1771957099331854300,18.396854248046875,-0.0026328875683248043,0.049402233213186264,0.04965801164507866
1771957099351819300,18.4168193359375,-0.004119446966797113,0.03923524171113968,0.056614167988300323
1771957099371784200,18.4367841796875,-0.011192897334694862,0.08243761211633682,0.06672424077987671
1771957099391749400,18.456749267578125,-0.014546976424753666,-0.007040837779641151,0.05427441745996475
1771957099411714300,18.47671435546875,0.023890750482678413,-0.06135280057787895,-0.012465580366551876
1771957099431679200,18.49667919921875,0.012606175616383553,-0.052097298204898834,-0.07156119495630264
1771957099451644200,18.51664404296875,-0.027236104011535645,-0.042392484843730927,-0.10040497779846191
1771957099471609300,18.536609375,-0.020489364862442017,-0.046900972723960876,-0.11411815881729126
1771957099491575300,18.5565751953125,0.005447275470942259,-0.09625634551048279,-0.11744283884763718
1771957099511540500,18.57654052734375,-0.002258563879877329,-0.10137300193309784,-0.07466799020767212
1771957099531505400,18.59650537109375,-0.012095937505364418,-0.02259218320250511,-0.03540778532624245
1771957099551470300,18.61647021484375,-0.014726035296916962,0.050008103251457214,0.0066282544285058975
1771957099571435300,18.636435302734377,-0.008928542956709862,0.03230022266507149,0.05638451129198074
1771957099591400400,18.656400390625,0.00604024576023221,-0.01714307814836502,0.08673052489757538
1771957099611365400,18.676365478515624,0.0188800897449255,-0.0012222779914736748,0.05904439464211464
1771957099631330300,18.696330322265624,0.005727439187467098,0.004809915088117123,0.022114282473921776
1771957099651295200,18.716295166015627,0.005115522537380457,-0.000944838859140873,-0.015834860503673553
1771957099671260400,18.736260498046875,-0.002058866433799267,-0.007189812138676643,-0.03700198605656624
1771957099691225300,18.756225341796874,-0.001995707396417856,-0.005709245800971985,-0.033360209316015244
1771957099711191300,18.77619140625,0.010966142639517784,-0.0067918794229626656,-0.033603839576244354
1771957099731156200,18.79615625,0.019765034317970276,-0.014808349311351776,-0.012630518525838852
1771957099751121400,18.816121337890625,0.016905827447772026,-0.0045849634334445,-0.006875892169773579
1771957099771086300,18.83608642578125,0.005952849518507719,0.010477523319423199,-0.011948551051318645
1771957099791051300,18.85605126953125,-0.012857776135206223,-0.0037684603594243526,-0.022747300565242767
1771957099811016400,18.876016357421875,-0.016455836594104767,-0.008935978636145592,-0.03533234819769859
1771957099830981400,18.8959814453125,-0.014771372079849243,0.004690251313149929,-0.037387266755104065
1771957099850946300,18.9159462890625,-0.00827176682651043,0.02009492740035057,-0.03892742097377777
1771957099870911200,18.9359111328125,-0.0026263645850121975,0.01913958601653576,-0.018265897408127785
1771957099890876400,18.95587646484375,-0.002562643028795719,0.0006704758852720261,0.013151543214917183
1771957099910842400,18.97584228515625,0.0066007100977003574,0.005147130228579044,0.017223341390490532
1771957099930807300,18.995807373046876,0.009321928024291992,0.013681230135262012,0.01070472039282322
1771957099950772200,19.015772216796876,-0.004297275561839342,0.02368549257516861,0.00594872422516346
1771957099970737400,19.0357373046875,-0.010870547965168953,0.019121889024972916,0.008009061217308044
1771957099990702300,19.055702392578127,0.0010020777117460966,0.02800016477704048,0.0033538765273988247
1771957100010667300,19.075667236328126,0.011362053453922272,0.01583901047706604,0.005790915340185165
1771957100030632400,19.095632568359374,0.013960707932710648,0.00666520930826664,-0.0018690188881009817
1771957100050597400,19.115597412109373,0.006525162607431412,0.0022891024127602577,-0.007362054660916328
1771957100070562300,19.135562255859377,-0.0005411882884800434,0.02493029460310936,-0.012784414924681187
1771957100090527200,19.15552734375,0.0036249803379178047,0.03074631094932556,-0.013209558092057705
1771957100110492400,19.175492431640624,0.009166942909359932,0.010462735779583454,-0.0008550055790692568
1771957100130457300,19.195457275390623,-0.0007316507399082184,0.01041862927377224,-0.0005034175119362772
1771957100150423300,19.21542333984375,-0.014451873488724232,0.004819883964955807,-0.007096038665622473
1771957100170388500,19.235388427734375,-0.01588873192667961,0.01354274433106184,-0.023213855922222137
1771957100190353400,19.255353515625,-0.019546130672097206,0.018537145107984543,-0.016567783430218697
1771957100210318300,19.275318359375,-0.022485045716166496,0.023003511130809784,0.016854586079716682
1771957100230283500,19.295283447265625,-0.007721208967268467,-0.0018465304747223854,0.04148842394351959
1771957100250248400,19.31524853515625,0.012402793392539024,0.00280678179115057,0.04528963938355446
1771957100270213400,19.33521337890625,0.007957410998642445,0.019917096942663193,0.03512521833181381
1771957100290178300,19.35517822265625,-0.009880650788545609,0.027722300961613655,0.018295256420969963
1771957100310143500,19.3751435546875,-0.010634662583470345,0.03734412416815758,0.009313615038990974
1771957100330108400,19.3951083984375,0.0038184761069715023,-0.00023745838552713394,0.019777121022343636
1771957100350073300,19.4150732421875,0.020609915256500244,-0.00824452843517065,0.020046481862664223
1771957100370039600,19.43503955078125,0.016969477757811546,-0.012686831876635551,0.01128420326858759
1771957100390004500,19.45500439453125,0.010475046932697296,-0.000554374884814024,-0.013922253623604774
1771957100409969400,19.474969482421876,0.005482060369104147,0.003712838515639305,-0.02769380807876587
1771957100429934600,19.4949345703125,0.014231933280825615,-0.012104462832212448,-0.03267696499824524
1771957100449899500,19.5148994140625,0.02770659141242504,-0.04977814480662346,-0.04148056358098984
1771957100469864400,19.534864501953123,0.00916304625570774,-0.04073953628540039,-0.051815588027238846
1771957100489829400,19.554829345703126,-0.026355788111686707,-0.02448715828359127,-0.04345141723752022
1771957100509794600,19.574794677734374,-0.02435142546892166,0.0036330847069621086,-0.030537350103259087
1771957100529759500,19.594759521484374,-0.0048011112958192825,0.0025817640125751495,-0.009118443354964256
1771957100549724400,19.614724365234373,0.014798249118030071,-0.0013895719312131405,0.014395486563444138
1771957100569689300,19.634689453125,0.015430946834385395,0.005824746564030647,0.027545513585209846
1771957100589654500,19.654654541015624,0.0022857345174998045,0.009174183011054993,0.031194277107715607
1771957100609619500,19.674619384765624,-0.006520056631416082,0.0025547994300723076,0.011117867194116116
1771957100629585200,19.694585205078123,-0.0032606394961476326,0.011440657079219818,-0.004324954468756914
1771957100649550300,19.71455029296875,-0.00924719125032425,0.01845359429717064,-0.01205684244632721
1771957100669515300,19.734515380859374,-0.003417090978473425,0.014038900844752789,-0.00543710682541132
1771957100689480200,19.754480224609374,0.0020838668569922447,-0.006335534155368805,-0.00028961431235074997
1771957100709445400,19.7744453125,0.002305291360244155,-0.0024358462542295456,-0.008595713414251804
1771957100729410300,19.794410400390625,-0.008570108562707901,-0.021137915551662445,-0.022673748433589935
1771957100749375200,19.814375244140624,-0.015708990395069122,0.00424606166779995,-0.052541352808475494
1771957100769340200,19.834340087890624,-0.021068397909402847,-0.01612013205885887,-0.060648947954177856
1771957100789305300,19.854305419921875,-0.015755632892251015,-0.03207295387983322,-0.08844653517007828
1771957100809270300,19.874270263671875,0.008397822268307209,0.003339046612381935,-0.16169607639312744
1771957100829235200,19.894235107421874,0.023354094475507736,0.05946289002895355,-0.23648901283740997
1771957100849200400,19.914200439453126,0.023537028580904007,0.07673423737287521,-0.3350980877876282
1771957100869165000,19.9341650390625,0.009179580956697464,0.04329013451933861,-0.4489603340625763
1771957100889131000,19.954131103515625,-0.02211759425699711,0.10631254315376282,-0.48326990008354187
1771957100909096000,19.974095947265624,0.018138974905014038,0.2683478891849518,-0.35907357931137085
1771957100929060900,19.994060791015624,0.1148957908153534,0.35541093349456787,-0.10346610099077225
1771957100949026000,20.014026123046875,0.30959802865982056,0.9931951761245728,0.19757522642612457
1771957100968991000,20.033990966796875,0.4445812404155731,0.8723990321159363,0.338973730802536
1771957100988956000,20.053955810546874,0.39220160245895386,0.7672135829925537,0.45316722989082336
1771957101008920800,20.0739208984375,0.34176120162010193,0.689424991607666,0.44636523723602295
1771957101028886000,20.093885986328125,0.39324915409088135,0.7291853427886963,0.26807594299316406
1771957101048851000,20.113850830078125,0.39762356877326965,0.729030191898346,0.06849990040063858
1771957101068816000,20.13381591796875,0.42441585659980774,1.0899659395217896,-0.09611554443836212
1771957101088781000,20.153781005859376,0.3287464380264282,0.705025315284729,-0.21919116377830505
1771957101108746000,20.17374609375,0.2574438154697418,0.5700415968894958,-0.17689202725887299
1771957101128711000,20.1937109375,0.29838046431541443,0.6175692081451416,-0.05410562455654144
1771957101148675800,20.21367578125,0.3671255111694336,0.6638059020042419,0.13276533782482147
1771957101168642000,20.23364208984375,0.4157543182373047,0.6435647010803223,0.2904649078845978
1771957101188607000,20.25360693359375,0.4739212691783905,0.38751858472824097,0.43497559428215027
1771957101208572000,20.273572021484377,0.5298264026641846,0.5293405055999756,0.46288782358169556
1771957101228537000,20.293537109375,0.4932951033115387,0.8856725096702576,0.38748350739479065
1771957101248502000,20.313501953125,0.3720121383666992,1.188301682472229,0.31734392046928406
1771957101268467000,20.333467041015624,0.20072868466377258,1.3446401357650757,0.30068403482437134
1771957101288432000,20.35343212890625,0.05355299636721611,1.3125901222229004,0.23723596334457397
1771957101308397000,20.37339697265625,-0.02737819217145443,1.4074698686599731,0.090693898499012
1771957101328362000,20.393362060546874,-0.09568525850772858,1.5089632272720337,-0.011421979404985905
1771957101348327000,20.413326904296873,-0.16933153569698334,1.4980919361114502,-0.06294266134500504
1771957101368292000,20.4332919921875,-0.22808247804641724,1.457521677017212,-0.11096742749214172
1771957101388257000,20.453257080078124,-0.3613763451576233,0.33323031663894653,0.09070602804422379
1771957101408222000,20.473221923828124,-0.30033499002456665,-0.7535247206687927,0.05430523678660393
1771957101428187000,20.493186767578123,-0.10861402004957199,-1.2171704769134521,0.04516280069947243
1771957101448152000,20.513152099609375,-0.11255253851413727,-1.6086232662200928,0.21758487820625305
1771957101468117000,20.533116943359374,-0.2222336381673813,-1.7154481410980225,0.39951950311660767
1771957101488083200,20.553083251953126,-0.2920460104942322,-1.7386196851730347,0.4643387496471405
1771957101508048100,20.573048095703125,-0.2559455335140228,-1.8820985555648804,0.4534700810909271
1771957101528013000,20.593012939453125,-0.13406811654567719,-1.9439632892608643,0.31893685460090637
1771957101547978000,20.61297802734375,0.007906287908554077,-2.02834415435791,0.012026804499328136
1771957101567943200,20.632943115234376,0.12056567519903183,-2.2353355884552,-0.3038753867149353
1771957101587908000,20.652908203125,0.04553086683154106,-1.5875699520111084,-0.40451550483703613
1771957101607873000,20.672873046875,-0.1003665030002594,-1.456468939781189,-0.45260560512542725
1771957101627838000,20.692837890625,-0.2227678745985031,-1.3528618812561035,-0.46129241585731506
1771957101647803100,20.71280322265625,-0.26558738946914673,-0.9772888422012329,-0.3781714141368866
1771957101667768000,20.73276806640625,-0.3172358572483063,-0.5953174829483032,-0.34841683506965637
1771957101687733000,20.75273291015625,-0.24628767371177673,-0.3597330152988434,-0.33850347995758057
1771957101707698200,20.7726982421875,-0.24066153168678284,-0.21982932090759277,-0.38395366072654724
1771957101727663000,20.7926630859375,-0.2949879765510559,-0.0485863983631134,-0.3956322968006134
1771957101747628000,20.8126279296875,-0.37920793890953064,0.07997702062129974,-0.39577382802963257
1771957101767593000,20.832593017578127,-0.4614205062389374,0.06495330482721329,-0.3920785188674927
1771957101787558100,20.85255810546875,-0.2900238633155823,-0.22107325494289398,-0.31459036469459534
1771957101807523000,20.872523193359374,-0.3728700578212738,0.08825035393238068,-0.36275514960289
1771957101827488000,20.892488037109374,-0.1108178049325943,0.04341578111052513,-0.12306210398674011
1771957101847454000,20.912453857421873,-0.22002620995044708,0.03582652658224106,-0.0523650124669075
1771957101867419000,20.9324189453125,-0.07678122073411942,-0.11378102004528046,0.1573992520570755
1771957101887383800,20.9523837890625,-0.1908835768699646,-0.019523998722434044,0.12510503828525543
1771957101907349000,20.972348876953124,-0.007567262277007103,-0.16504128277301788,0.2284444123506546
1771957101927314000,20.99231396484375,-0.04546922445297241,-0.0762142762541771,0.10930892825126648
1771957101947278800,21.01227880859375,0.1106102466583252,-0.19779762625694275,0.053661417216062546
1771957101967243800,21.032243896484374,0.16836877167224884,-0.08664362132549286,-0.04202410951256752
1771957101987209000,21.052208984375,0.2317173182964325,-0.12038088589906693,-0.17547474801540375
1771957102007174000,21.072173828125,0.23928511142730713,-0.34446772933006287,-0.3062894940376282
1771957102027138800,21.092138916015625,0.24396276473999023,-0.3749236762523651,-0.40628552436828613
1771957102047103700,21.112103759765624,0.2534061670303345,-0.4039148688316345,-0.4528937041759491
1771957102067069000,21.13206884765625,0.2598472833633423,-0.4140908122062683,-0.4733600914478302
1771957102087033900,21.152033935546875,0.24075649678707123,-0.34120362997055054,-0.46206021308898926
1771957102106998800,21.171998779296874,0.17089810967445374,-0.21621154248714447,-0.3990030586719513
1771957102126964000,21.1919638671875,0.09737678617238998,-0.13468636572360992,-0.3243568241596222
1771957102146929000,21.211928955078125,0.036703526973724365,-0.0612555593252182,-0.2382229119539261
1771957102166893800,21.231893798828125,-0.00029242318123579025,0.005414330400526524,-0.15903757512569427
1771957102186858800,21.251858642578124,-0.02164662629365921,0.0570380836725235,-0.10025405883789062
1771957102206824000,21.271823974609376,-0.03014867752790451,0.0918932557106018,-0.05652007460594177
1771957102226789600,21.29178955078125,-0.014071117155253887,0.09533726423978806,-0.02243226394057274
1771957102246754600,21.311754638671875,0.001051583793014288,0.09654393792152405,-0.009013012051582336
1771957102266719700,21.3317197265625,-0.027224088087677956,0.12064923346042633,0.014672246761620045
1771957102286684700,21.3516845703125,-0.046533480286598206,0.09981966018676758,0.013700504787266254
1771957102306649600,21.371649658203125,-0.02000194601714611,0.12050257623195648,0.019520726054906845
1771957102326614800,21.39161474609375,-0.0029357606545090675,0.08857175707817078,0.019264016300439835
1771957102346579700,21.411579833984376,0.026243135333061218,-0.00383831188082695,-0.014205994084477425
1771957102366544600,21.431544677734376,0.05706753581762314,-0.037063147872686386,-0.04902612417936325
1771957102386509600,21.451509521484375,0.05719812214374542,0.017105652019381523,-0.06294342875480652
1771957102406474800,21.471474853515623,0.018022991716861725,0.06757964938879013,-0.080318383872509
1771957102426439700,21.491439697265626,-0.01780821569263935,0.08850380778312683,-0.09551230818033218
1771957102446404600,21.511404541015626,-0.005135889630764723,-0.00034776655957102776,-0.12193848192691803
1771957102466369800,21.531369873046874,0.029413890093564987,-0.0463743731379509,-0.14125850796699524
1771957102486334700,21.551334716796877,0.0359460674226284,-0.014575142413377762,-0.1339789479970932
1771957102506299600,21.571299560546876,0.02819940634071827,0.06831606477499008,-0.09642025828361511
1771957102526264600,21.5912646484375,0.0015307413414120674,0.1327623426914215,-0.03846530616283417
1771957102546229800,21.611229736328124,-0.02554721012711525,0.11045230180025101,0.020800692960619926
1771957102566194700,21.631194580078127,-0.019010398536920547,0.07329288125038147,0.05916120111942291
1771957102586159600,21.65115966796875,0.005106980912387371,0.025447595864534378,0.07184066623449326
1771957102606124500,21.67112451171875,0.02483726665377617,-0.02490350417792797,0.041047852486371994
1771957102626089700,21.69108984375,0.04329207167029381,0.005589507520198822,-0.0014431583695113659
1771957102646054700,21.7110546875,0.02829791232943535,0.06989475339651108,-0.020721716806292534
1771957102666019600,21.73101953125,0.02063140645623207,0.0705530196428299,-0.010342740453779697
1771957102685984800,21.75098486328125,0.020295433700084686,0.04729432240128517,0.01591339521110058
1771957102705950700,21.77095068359375,0.01936347410082817,0.010221508331596851,0.023041049018502235
1771957102725915600,21.79091552734375,0.030973199754953384,0.008406825363636017,-0.00018106563948094845
1771957102745880800,21.810880859375,0.04549763351678848,0.024182043969631195,-0.015945829451084137
1771957102765845800,21.830845703125,0.044459711760282516,0.028361093252897263,-0.019695645198225975
1771957102785810700,21.850810791015626,0.04005257040262222,0.05899641662836075,-0.020240044221282005
1771957102805775600,21.870775634765625,0.024938123300671577,0.07724210619926453,-0.0009691800223663449
1771957102825740800,21.89074072265625,0.008371062576770782,0.06123644858598709,0.019884809851646423
1771957102845705700,21.910705810546876,0.02217737026512623,0.0018394757062196732,0.013668586499989033
1771957102865670700,21.930670654296875,0.04587361961603165,-0.014498195610940456,-0.007879252545535564
1771957102885635800,21.9506357421875,0.03558748587965965,-0.0025597717612981796,-0.026869038119912148
1771957102905600800,21.970600830078126,0.010660256259143353,0.016296934336423874,-0.0428498275578022
1771957102925565700,21.990565673828126,0.004786395933479071,0.03496840223670006,-0.05527026578783989
1771957102945530600,22.010530517578125,0.0016478528268635273,0.032915063202381134,-0.03908997401595116
1771957102965495800,22.030495849609373,-0.007147022057324648,0.009786076843738556,-0.01858297549188137
1771957102985460700,22.050460693359376,-0.00891554169356823,-0.00797748938202858,0.00023260852321982384
1771957103005425700,22.07042578125,-0.0011919280514121056,-0.0031259930692613125,0.011239367537200451
1771957103025390800,22.090390869140624,-0.006808724254369736,0.02375217154622078,0.031758569180965424
1771957103045355800,22.110355712890627,-0.011515328660607338,0.038163866847753525,0.034458745270967484
1771957103065320700,22.13032080078125,-0.009105072356760502,0.03260720893740654,0.018090255558490753
1771957103085285600,22.15028564453125,-0.012570944614708424,0.02743825502693653,0.0025100167840719223
1771957103105250800,22.170250732421874,-0.006392557639628649,0.028926437720656395,-0.007107691373676062
1771957103125215700,22.1902158203125,0.011915125884115696,0.052609097212553024,-0.002014255616813898
1771957103145180700,22.2101806640625,0.012685759924352169,0.026551678776741028,0.006718696095049381
1771957103165145900,22.230145751953124,0.015352079644799232,0.020003478974103928,0.0072085065767169
1771957103185110800,22.25011083984375,0.021111782640218735,0.03619362413883209,0.015207130461931229
1771957103205075700,22.27007568359375,0.025938106700778008,0.05325942113995552,0.016777299344539642
1771957103225040600,22.29004052734375,0.023777946829795837,0.057732775807380676,0.007669742219150066
1771957103245005800,22.310005859375,0.012223470956087112,0.07074765115976334,-0.007818755693733692
1771957103264970800,22.329970703125,0.0021872029174119234,0.08191429823637009,-0.016163472086191177
1771957103284935700,22.349935791015625,0.0018769698217511177,0.053165189921855927,-0.010491269640624523
1771957103304900600,22.369900634765624,0.020738128572702408,-0.018982497975230217,-0.008296526968479156
1771957103324865800,22.38986572265625,0.03911280632019043,-0.04545382410287857,-0.022297454997897148
1771957103344830700,22.409830810546875,0.033897556364536285,-0.031858399510383606,-0.03376801684498787
1771957103364795600,22.429795654296875,0.013005194254219532,-0.01470174454152584,-0.04252045601606369
1771957103384760800,22.4497607421875,0.003924988675862551,-0.012873776257038116,-0.048448365181684494
1771957103404725800,22.469725830078126,-0.0037224004045128822,0.009749772027134895,-0.02564161643385887
1771957103424690700,22.489690673828125,-0.0026405262760818005,0.02041095867753029,0.0004420090699568391
1771957103444655600,22.509655517578125,0.010778028517961502,0.04444868117570877,0.02997126430273056
1771957103464621800,22.529621826171876,0.0026293606497347355,0.04752431809902191,0.05749031528830528
1771957103484586800,22.549586669921876,0.004598223138600588,0.05198569968342781,0.06101695075631142
1771957103504551700,22.5695517578125,0.006189968902617693,0.052992042154073715,0.054698847234249115
1771957103524516900,22.589516845703123,-0.0017666588537395,0.03797955438494682,0.04288728907704353
1771957103544481800,22.609481689453126,0.004654351156204939,0.01480442937463522,0.021214712411165237
1771957103564446700,22.62944677734375,0.004812825471162796,0.018979758024215698,-0.0004021580680273473
1771957103584412000,22.649411865234374,-0.002244384493678808,0.014825209975242615,-0.019443320110440254
1771957103604376800,22.669376953125,-0.008244341239333153,0.02116938680410385,-0.024472199380397797
1771957103624341800,22.689341796875,-0.0067205424420535564,-0.004755422472953796,-0.022001467645168304
1771957103644306700,22.709306640625,0.0025091073475778103,-0.007134391460567713,-0.0043122973293066025
1771957103664272000,22.72927197265625,0.003995524253696203,0.01608116179704666,0.01659034565091133
1771957103684236800,22.74923681640625,0.0003348872996866703,0.042993463575839996,0.04159712791442871
1771957103704201700,22.76920166015625,-0.0009308140724897385,0.035870857536792755,0.04507691040635109
1771957103724167000,22.7891669921875,0.0010453963186591864,0.02890854701399803,0.025877883657813072
1771957103744131800,22.8091318359375,-0.00261954078450799,0.004795205779373646,-0.002998746931552887
1771957103764096800,22.8290966796875,0.003769483184441924,0.001046554185450077,-0.021049560979008675
1771957103784061700,22.849061767578124,0.001620783470571041,0.013913881033658981,-0.018039803951978683
1771957103804027000,22.86902685546875,-0.011098519898951054,0.0015938561409711838,-0.013306442648172379
1771957103823991800,22.88899169921875,-0.012853519059717655,0.0028556492179632187,-0.012430591508746147
1771957103843956700,22.908956787109375,0.0003678882494568825,0.0020825257524847984,-0.005652078427374363
1771957103863922400,22.92892236328125,0.011835748329758644,-0.001891186460852623,0.004344300366938114
1771957103883887400,22.948887451171874,0.017685875296592712,0.004030873998999596,0.009082386270165443
1771957103903852300,22.968852294921874,0.013627217151224613,0.03119485080242157,0.010289063677191734
1771957103923817200,22.988817138671877,0.0010399301536381245,0.05171503499150276,0.010305811651051044
1771957103943782400,23.008782470703125,-0.010220734402537346,0.04107624664902687,0.013266509398818016
1771957103963747300,23.028747314453124,-0.013961266726255417,0.04804946482181549,0.012697361409664154
1771957103983712300,23.048712158203124,-0.0054136053659021854,0.03785194084048271,0.008689564652740955
1771957104003677400,23.068677490234375,0.013053713366389275,0.005147786810994148,0.004393262788653374
1771957104023642400,23.088642333984374,0.03170803189277649,-0.01911919191479683,-0.010038756765425205
1771957104043607300,23.108607177734374,0.022998757660388947,-0.007632977329194546,-0.025896135717630386
1771957104063572200,23.128572265625,0.004823789931833744,0.025060776621103287,-0.02652130089700222
1771957104083537400,23.148537353515625,0.000822452362626791,0.025652267038822174,0.00032271211966872215
1771957104103502300,23.16850244140625,0.0031694115605205297,0.00010725483298301697,0.029313597828149796
1771957104123467300,23.18846728515625,0.007108352147042751,-0.003957285080105066,0.03916805610060692
1771957104143432200,23.20843212890625,0.008327178657054901,-0.010771522298455238,0.03239447996020317
1771957104163397400,23.2283974609375,-0.002657828386873007,-0.014262127690017223,0.013719063252210617
1771957104183362300,23.2483623046875,0.0008265699725598097,0.005189604125916958,-0.007063800934702158
1771957104203327200,23.2683271484375,0.007922438904643059,0.04918717220425606,-0.017486045137047768
1771957104223292400,23.28829248046875,0.0013578091748058796,0.049528568983078,-0.003144308924674988
1771957104243257300,23.30825732421875,-0.001737664919346571,0.025293543934822083,0.03205886483192444
1771957104263222300,23.32822216796875,0.008374623954296112,0.007538780570030212,0.05882735922932625
1771957104283187200,23.348187255859376,0.022708166390657425,0.010535366833209991,0.05715486779808998
1771957104303152400,23.36815234375,0.02536473050713539,0.020836476236581802,0.03259241208434105
1771957104323117300,23.388117431640627,0.02447080984711647,0.0493735708296299,0.01173190027475357
1771957104343082200,23.408082275390626,0.020808428525924683,0.0543731227517128,0.010680217295885086
1771957104363047400,23.42804736328125,0.031022779643535614,0.034378908574581146,0.007556211203336716
1771957104383012400,23.448012451171873,0.03415369242429733,0.05184205248951912,0.011291854083538055
1771957104402977300,23.467977294921877,0.03849263861775398,0.0719451904296875,0.02055009827017784
1771957104422942200,23.487942138671876,0.031104043126106262,0.07651277631521225,0.04506564885377884
1771957104442907400,23.507907470703124,0.03786594793200493,0.06779386103153229,0.05689990893006325
1771957104462872300,23.527872314453123,0.019770106300711632,0.25724899768829346,0.13345055282115936
1771957104482837200,23.547837158203127,0.008984465152025223,-0.06733227521181107,0.09588577598333359
1771957104502802400,23.567802490234374,0.03297940641641617,-0.15446768701076508,0.0002741296775639057
1771957104522767400,23.587767333984374,-0.02228483557701111,-0.1371166706085205,-0.08596725761890411
1771957104542732300,23.607732177734373,-0.11275351792573929,0.052914515137672424,-0.054198287427425385
1771957104562697200,23.627697265625,-0.11239984631538391,-0.08699652552604675,-0.07065488398075104
1771957104582661000,23.6476611328125,-0.06669870018959045,-0.02710362710058689,-0.12743867933750153
1771957104602626300,23.667626220703124,-0.05354772508144379,0.10004393756389618,-0.15562032163143158
1771957104622591200,23.68759130859375,-0.11215746402740479,0.10183757543563843,-0.10282985866069794
1771957104642556200,23.70755615234375,-0.14215706288814545,0.009996340610086918,-0.02187512442469597
1771957104662521300,23.727521240234374,-0.11772322654724121,-0.0664808601140976,0.021561594679951668
1771957104682486300,23.747486328125,-0.08102245628833771,-0.09223629534244537,0.023463625460863113
1771957104702451200,23.767451171875,-0.042531128972768784,-0.06087144464254379,-0.016528500244021416
1771957104722416000,23.787416015625,-0.012857193127274513,0.010419783182442188,-0.0517873652279377
1771957104742381300,23.80738134765625,0.00911722332239151,0.020680412650108337,-0.05982881039381027
1771957104762346200,23.82734619140625,0.02145964279770851,-0.018566593527793884,-0.03803057223558426
1771957104782311200,23.847311279296875,0.023158855736255646,-0.026523055508732796,0.010587185621261597
1771957104802276400,23.8672763671875,0.026449546217918396,-0.015359345823526382,0.03014913573861122
1771957104822241300,23.8872412109375,0.028909943997859955,0.04031988978385925,0.02440466918051243
1771957104842206200,23.907206298828125,0.03206110745668411,0.04665981978178024,0.0009776083752512932
1771957104862171000,23.9271708984375,0.027411291375756264,0.00803732592612505,0.0008579138666391373
1771957104882136000,23.947135986328124,0.022652551531791687,-0.02953694760799408,0.008325831964612007
1771957104902101000,23.96710107421875,0.005395812448114157,-0.02739817276597023,0.01655133254826069
