time,seconds_elapsed,z,y,x
1772003679059906800,0.03390673828125,-0.0013461061753332615,0.0026194844394922256,0.0016005245270207524
1772003679079870700,0.05387060546875,0.0005237464793026447,0.001573384739458561,-0.004022597335278988
1772003679099836000,0.0738359375,-0.0003478294238448143,-0.0012981030158698559,-0.00037849642103537917
1772003679119799800,0.0937998046875,0.0015768609009683132,0.0010773157700896263,-0.001179942162707448
1772003679139764700,0.1137646484375,0.0003409571945667267,0.003540419042110443,0.002852334640920162
1772003679159728600,0.133728759765625,0.0019821636378765106,-0.0009356364607810974,-0.001428161864168942
1772003679179693800,0.15369384765625,0.00005426537245512009,0.0007558809593319893,0.000026978435926139355
1772003679199657700,0.17365771484375,-0.00017066951841115952,0.00036196131259202957,-0.00007553724572062492
1772003679219623000,0.193622802734375,0.00046267686411738396,0.00028285570442676544,0.002472717547789216
1772003679239586800,0.2135869140625,0.0013550887815654278,-0.0007834895513951778,-0.0011978007387369871
1772003679259551700,0.2335517578125,0.000554992351680994,-0.0003621364012360573,0.0009107559453696012
1772003679279515600,0.253515625,-0.001390380784869194,0.004346704110503197,-0.001088740536943078
1772003679299480600,0.27348046875,0.001532954629510641,-0.005606448743492365,-0.0014547884929925203
1772003679319445000,0.293445068359375,0.0009552966803312302,-0.001852992456406355,0.002270026598125696
1772003679339410000,0.313409912109375,-0.0020638108253479004,0.00017082691192626953,0.0030994811095297337
1772003679359373800,0.333373779296875,0.000381985679268837,-0.0003657834604382515,0.0014867953723296523
1772003679379338800,0.3533388671875,0.0014207332860678434,-0.0019360422156751156,-0.0008300268091261387
1772003679399302700,0.373302734375,-0.0009526079520583153,0.000010563060641288757,-0.0019003470661118627
1772003679419267800,0.393267822265625,0.00007021334022283554,0.00036441441625356674,-0.0019711849745362997
1772003679439232000,0.41323193359375,0.00029303599148988724,-0.0034952634014189243,0.0014449836453422904
1772003679459197000,0.433197021484375,0.00011322321370244026,0.001875435933470726,-0.00016182370018213987
1772003679479160800,0.453160888671875,0.0013548838905990124,-0.0022013913840055466,-0.0018401676788926125
1772003679499125800,0.473125732421875,0.0015115831047296524,0.0003392184153199196,0.0007990397280082107
1772003679519089700,0.493089599609375,-0.00014913221821188927,-0.0004656105302274227,-0.000734947738237679
1772003679539054800,0.513054931640625,0.0018391686026006937,-0.0003126021474599838,0.0022804196923971176
1772003679559018800,0.533018798828125,0.001738100778311491,-0.0030181617476046085,0.0009190215496346354
1772003679578983700,0.552983642578125,0.00019757961854338646,0.0027640266343951225,-0.0006230882718227804
1772003679598947800,0.57294775390625,-0.001547306776046753,-0.0017887922003865242,-0.000065292464569211
1772003679618912800,0.592912841796875,-0.0017665545456111431,0.0007742876186966896,0.0016982676461338997
1772003679638876700,0.612876708984375,0.00017414381727576256,-0.002828611060976982,0.0007758702849969268
1772003679658841900,0.632841796875,-0.0020838193595409393,0.0041975537315011024,0.0017561899730935693
1772003679678805800,0.6528056640625,0.0016433096025139093,-0.000019589439034461975,-0.0035959724336862564
1772003679698770700,0.672770751953125,0.0007000155746936798,0.0032905349507927895,-0.001387760043144226
1772003679718734800,0.69273486328125,-0.00041919387876987457,-0.004395792260766029,-0.00013912387657910585
1772003679738699800,0.71269970703125,0.000675315735861659,0.0015526581555604935,0.0018820734694600105
1772003679758664000,0.732663818359375,0.0011361576616764069,-0.0008226768113672733,-0.001199608901515603
1772003679778628900,0.75262890625,0.0016645805444568396,0.003241022117435932,-0.0012934774858877063
1772003679798592800,0.7725927734375,-0.0005757538601756096,0.0018612779676914215,-0.0033037657849490643
1772003679818557700,0.7925576171875,0.0010484079830348492,0.0015253731980919838,0.002091002184897661
1772003679838521600,0.812521484375,-0.0016377069987356663,-0.000042411498725414276,0.0006120075704529881
1772003679858486800,0.83248681640625,0.0012361775152385235,-0.00036162231117486954,0.0017603670712560415
1772003679878451000,0.852450927734375,-0.0014737402088940144,-0.0023721037432551384,-0.0001692319056019187
1772003679898415900,0.872415771484375,-0.000052716583013534546,0.0008057309314608574,-0.000008653150871396065
1772003679918379800,0.8923798828125,0.00018665753304958344,-0.003423325251787901,-0.0037182755768299103
1772003679938344700,0.9123447265625,-0.00017451588064432144,0.000041726045310497284,0.00048511603381484747
1772003679958308600,0.93230859375,-0.0024978346191346645,0.001383730210363865,-0.003459624946117401
1772003679978273800,0.952273681640625,-0.00032864417880773544,-0.002014890778809786,0.001016739523038268
1772003679998237700,0.97223779296875,0.0007004216313362122,0.0000626416876912117,-0.0003602334181778133
1772003680018202600,0.99220263671875,-0.001322315540164709,-0.0011063250713050365,-0.002401284873485565
1772003680038166500,1.01216650390625,0.00005503324791789055,-0.0019149803556501865,0.0005984891904518008
1772003680058131500,1.03213134765625,-0.0012913080863654613,-0.001393475104123354,0.002478286623954773
1772003680078095400,1.052095458984375,-0.0012517264112830162,-0.0005376171320676804,0.0024793539196252823
1772003680098060500,1.072060546875,-0.00007720477879047394,0.0008505247533321381,-0.0006099084275774658
1772003680118024700,1.092024658203125,-0.0007655424997210503,-0.0032808855175971985,-0.00007756066042929888
1772003680137989600,1.11198974609375,-0.0025497665628790855,0.0032295677810907364,-0.0002574400859884918
1772003680157953500,1.13195361328125,-0.001439646352082491,-0.004514966160058975,-0.0003060483722947538
1772003680177918500,1.15191845703125,-0.0004836549051105976,0.001986118033528328,-0.00038847437826916575
1772003680197882400,1.17188232421875,0.0010091878939419985,0.0014899009838700294,0.00020872917957603931
1772003680217846300,1.19184619140625,0.001981115434318781,0.004811589606106281,0.002040192484855652
1772003680237811500,1.2118115234375,0.00019159726798534393,-0.000768992118537426,-0.0026871920563280582
1772003680257775600,1.231775634765625,0.00001835078001022339,-0.0010626683942973614,0.001297306502237916
1772003680277740500,1.251740478515625,-0.0010389238595962524,-0.0009992849081754684,0.0005774542223662138
1772003680297704400,1.271704345703125,-0.00006853742524981499,0.004709366708993912,0.0005731891142204404
1772003680317669400,1.29166943359375,-0.00034494511783123016,-0.0004965923726558685,-0.0027315327897667885
1772003680337633500,1.311633544921875,0.00046916911378502846,-0.0015697088092565536,0.00206468952819705
1772003680357598500,1.331598388671875,-0.000017181504517793655,0.003795262426137924,0.0003619915805757046
1772003680377562600,1.351562744140625,0.002634235192090273,-0.0002657817676663399,-0.0010763766476884484
1772003680397527600,1.371527587890625,-0.002742855343967676,0.0003143399953842163,0.001838451367802918
1772003680417491500,1.391491455078125,0.0000035315752029418945,-0.0010492564179003239,0.00030672585126012564
1772003680437456600,1.41145654296875,0.000045095570385456085,-0.001107200514525175,0.0005134004168212414
1772003680457420500,1.431420654296875,-0.0007351962849497795,0.0002636546269059181,0.0010956975165754557
1772003680477385500,1.451385498046875,0.0015846744645386934,0.00014249607920646667,-0.0003164232475683093
1772003680497349400,1.471349365234375,-0.0007884330116212368,0.000838620588183403,-0.002060952363535762
1772003680517314600,1.491314453125,-0.00041982298716902733,-0.0017398693598806858,0.002557913074269891
1772003680537278500,1.511278564453125,0.00034651998430490494,-0.0007515097968280315,0.0010472401045262814
1772003680557243600,1.53124365234375,-0.002704534213989973,-0.0029706573113799095,-0.0009208442643284798
1772003680577207600,1.55120751953125,-0.001338447444140911,0.00019990187138319016,-0.0027725519612431526
1772003680597172500,1.57117236328125,-0.0012434450909495354,-0.0001581180840730667,-0.002413826994597912
1772003680617136400,1.591136474609375,0.0010605589486658573,0.0005381004884839058,-0.0012799722608178854
1772003680637101300,1.611101318359375,0.0013663307763636112,-0.002028272021561861,0.0009460226865485311
1772003680657065500,1.6310654296875,-0.0007441993802785873,-0.0011150804348289967,0.0004474747693166137
1772003680677029600,1.651029541015625,-0.001819706056267023,0.0005309395492076874,-0.0027999780140817165
1772003680696994600,1.67099462890625,0.0014060852117836475,-0.00033974088728427887,0.0020408278796821833
1772003680716958500,1.69095849609375,0.002058807760477066,-0.001033648382872343,0.0002840885426849127
1772003680736923400,1.71092333984375,0.0015717775095254183,-0.001773076131939888,-0.00032945926068350673
1772003680756887600,1.730887451171875,0.0018958665896207094,-0.00002085324376821518,0.0021832233760505915
1772003680776852500,1.7508525390625,-0.0019039069302380085,0.0019898340106010437,-0.0008134751697070897
1772003680796816600,1.770816650390625,-0.0014831279404461384,0.0037000179290771484,0.0003273192560300231
1772003680816781600,1.790781494140625,-0.0027306685224175453,0.0014038467779755592,0.0005792250158265233
1772003680836745500,1.810745361328125,0.00004727113991975784,0.001176116056740284,0.0009835760574787855
1772003680856710400,1.83071044921875,-0.0012055984698235989,0.0010310690850019455,0.00015672354493290186
1772003680876674300,1.85067431640625,-0.0012617935426533222,0.00018987152725458145,-0.0011832315940409899
1772003680896639500,1.870639404296875,-0.00018781237304210663,-0.0010718037374317646,-0.00015296367928385735
1772003680916603600,1.890603759765625,0.00015508336946368217,-0.0005987333133816719,-0.0006243294919840991
1772003680936568600,1.910568603515625,-0.00005796784535050392,0.0007187174633145332,0.0015778533415868878
1772003680956532500,1.930532470703125,0.000042864587157964706,-0.004154521971940994,-0.003495914163067937
1772003680976497400,1.950497314453125,0.00026779714971780777,-0.00016455259174108505,-0.001034728018566966
1772003680996461300,1.97046142578125,-0.0005147545598447323,0.0014932416379451752,0.0011756338644772768
1772003681016425500,1.990425537109375,-0.00007470091804862022,-0.0009545572102069855,0.0024713966995477676
1772003681036390400,2.010390380859375,0.00172708323225379,0.00012257136404514313,0.0020800698548555374
1772003681056354300,2.030354248046875,-0.00021866802126169205,0.0013618245720863342,-0.0021055922843515873
1772003681076319500,2.050319580078125,-0.0005058832466602325,0.0006812205538153648,-0.0010598944500088692
1772003681096283400,2.070283447265625,-0.0022720759734511375,0.0032779453322291374,-0.0006104551139287651
1772003681116248300,2.090248291015625,0.00033108703792095184,0.002277284860610962,-0.0025770626962184906
1772003681136212200,2.110212158203125,0.002143203280866146,-0.0039235735312104225,0.0010641389526426792
1772003681156177400,2.130177490234375,0.0003231195732951164,0.0008149761706590652,0.0013943230733275414
1772003681176141300,2.150141357421875,-0.0009587663225829601,-0.0009837611578404903,0.001981168519705534
1772003681196106500,2.1701064453125,-0.0004015658050775528,0.00017345789819955826,-0.00016289576888084412
1772003681216070400,2.1900703125,0.0032725906930863857,0.00003195740282535553,0.0008366085821762681
1772003681236035300,2.210035400390625,-0.0005355370230972767,-0.00028149504214525223,-0.0020503741689026356
1772003681255999200,2.229999267578125,-0.0023970957845449448,0.001316981390118599,0.0002949497429654002
1772003681275963400,2.24996337890625,-0.0007783849723637104,0.003419271670281887,-0.0012649119598791003
1772003681295928600,2.269928466796875,-0.0015418841503560543,-0.003781651146709919,-0.0002752571599557996
1772003681315892500,2.289892578125,-0.0007388386875391006,0.0005279406905174255,0.0027492367662489414
1772003681335857400,2.309857421875,-0.002445334568619728,-0.000673545990139246,-0.002543854061514139
1772003681355821300,2.3298212890625,-0.0003780759871006012,-0.0008129174821078777,0.0011940873228013515
1772003681375786200,2.3497861328125,0.0010698677506297827,0.001083550974726677,0.0001186960143968463
1772003681395750400,2.36975048828125,0.0008875781204551458,-0.003161403816193342,-0.0003350721672177315
1772003681415715600,2.389715576171875,0.000021150801330804825,0.0022346964105963707,0.002274022903293371
1772003681435679500,2.409679443359375,0.0006051536183804274,0.0016312245279550552,-0.000399472308345139
1772003681455644400,2.42964453125,-0.001466288696974516,0.0024985307827591896,-0.001956515945494175
1772003681475608300,2.4496083984375,0.0013988185673952103,0.0028734086081385612,-0.0005624907207675278
1772003681495573200,2.4695732421875,0.0004403663333505392,0.002248716540634632,0.0024948096834123135
1772003681515537200,2.489537109375,-0.0012087710201740265,-0.000043742358684539795,0.0013473014114424586
1772003681535501600,2.50950146484375,0.0006716486532241106,0.0014453548938035965,0.0017180145950987935
1772003681555466500,2.529466552734375,-0.00002066744491457939,-0.0015153363347053528,0.0002707716776058078
1772003681575430400,2.549430419921875,-0.0010538194328546524,0.0024856124073266983,0.0006525084609165788
1772003681595395300,2.569395263671875,0.00025537284091115,0.00038240663707256317,0.0010463193757459521
1772003681615359200,2.589359130859375,-0.00033859116956591606,-0.0020331875421106815,-0.0016929830890148878
1772003681635324400,2.609324462890625,0.00023340387269854546,-0.0020603598095476627,0.0005578355630859733
1772003681655288600,2.62928857421875,-0.0010335105471313,-0.0004150322638452053,-0.0018858134280890226
1772003681675253500,2.64925341796875,-0.00028819823637604713,0.003018035553395748,0.0010264150332659483
1772003681695217400,2.669217529296875,0.0013102993834763765,-0.003001354169100523,0.00042106141336262226
1772003681715181300,2.689181396484375,0.0002824980765581131,-0.0003631538711488247,0.0010185563005506992
1772003681735146200,2.709146240234375,-0.0006648492999374866,0.00016228016465902328,-0.0005469752359203994
1772003681755110100,2.729110107421875,0.0006194538436830044,-0.0003687315620481968,0.0006485143676400185
1772003681775075300,2.749075439453125,-0.0007780026644468307,0.0014195386320352554,-0.0014310916885733604
1772003681795039500,2.76903955078125,-0.0014039059169590473,-0.002066470216959715,0.0012945987982675433
1772003681815004400,2.78900439453125,0.00023963022977113724,0.0005165580660104752,0.00047885661479085684
1772003681834968300,2.80896826171875,-0.0014067254960536957,-0.0018186531960964203,-0.0018030430655926466
1772003681854933200,2.828933349609375,-0.0010079331696033478,0.003917618654668331,0.0017359325429424644
1772003681874897400,2.8488974609375,-0.0003712885081768036,-0.000333431176841259,0.00024653133004903793
1772003681894862300,2.8688623046875,-0.0002808673307299614,-0.0018281573429703712,0.00044785928912460804
1772003681914826500,2.888826416015625,0.0005445405840873718,0.0023165475577116013,-0.00029340432956814766
1772003681934790400,2.908790283203125,-0.0006493115797638893,0.0007180413231253624,0.00026060931850224733
1772003681954755300,2.92875537109375,0.002328844740986824,0.00035510584712028503,0.0005960671696811914
1772003681974719200,2.94871923828125,-0.0003625755198299885,0.0009500375017523766,-0.0001402115449309349
1772003681994685000,2.968684814453125,-0.0009122733026742935,-0.0015006652101874352,-0.0016975991893559694
1772003682014648800,2.98864892578125,0.0010006120428442955,0.00037305615842342377,0.0012160225305706263
1772003682034614000,3.008614013671875,-0.0008839652873575687,0.000046854838728904724,-0.0012256171321496367
1772003682054578200,3.028578125,0.0013422444462776184,0.00005473848432302475,-0.003053640481084585
1772003682074543000,3.048543212890625,-0.0025351098738610744,0.003322768025100231,0.0016142854001373053
1772003682094507000,3.068507080078125,0.0013370374217629433,-0.002979239448904991,0.0009167803218588233
1772003682114471000,3.088470947265625,0.000258119311183691,0.0005219373852014542,0.0010612340411171317
1772003682134435800,3.108435791015625,0.0015815314836800098,0.004743766039609909,-0.0004086955450475216
1772003682154400000,3.12839990234375,0.002056726021692157,-0.0043090833351016045,0.0006398038240149617
1772003682174365000,3.148364990234375,-0.0008672187104821205,-0.0027809147723019123,-0.00010579871013760567
1772003682194329000,3.1683291015625,-0.003635220229625702,0.0006311740726232529,0.0032630774658173323
1772003682214294000,3.1882939453125,-0.002206924371421337,-0.001934494823217392,-0.0018115596612915397
1772003682234258000,3.2082578125,0.0007059865165501833,0.0024320613592863083,-0.002622956410050392
1772003682254223000,3.22822314453125,-0.000382312573492527,0.001616504043340683,0.0007878856267780066
1772003682274187000,3.24818701171875,0.0006407503969967365,0.00018346495926380157,0.0018952966202050447
1772003682294151200,3.268151123046875,-0.0011152662336826324,0.0006137397140264511,0.000011702417396008968
1772003682314116000,3.2881162109375,-0.0014929436147212982,0.0002719508484005928,-0.00042975967517122626
1772003682334080000,3.308080078125,-0.00002324255183339119,0.0013595381751656532,-0.0014669091906398535
1772003682354045000,3.328044921875,0.0006147380918264389,-0.001968847122043371,0.0002884037094190717
1772003682374008800,3.3480087890625,0.0009730898309499025,-0.0020050848834216595,-0.00011295173317193985
1772003682393974000,3.36797412109375,-0.00032199127599596977,0.003465757705271244,-0.002295315731316805
1772003682413938000,3.38793798828125,0.0003795942757278681,-0.00031836703419685364,-0.0005307484534569085
1772003682433902000,3.407902099609375,-0.0015238365158438683,0.00238616019487381,0.00013595935888588428
1772003682453867000,3.427866943359375,0.00030378391966223717,-0.0026441416703164577,0.00013917579781264067
1772003682473831000,3.447830810546875,-0.0018741386011242867,0.001463618129491806,0.0015226417453959584
1772003682493796000,3.467796142578125,0.0019401484169065952,-0.0006020739674568176,0.00002217490691691637
1772003682513760000,3.487760009765625,-0.0014691385440528393,-0.003384680487215519,-0.0015129940584301949
1772003682533725000,3.507724853515625,-0.0010937838815152645,-0.0011080875992774963,-0.001413975260220468
1772003682553689000,3.527689208984375,-0.000009296927601099014,0.0024999137967824936,0.000022038468159735203
1772003682573653000,3.547653076171875,0.0002943160943686962,-0.001851900015026331,-0.002819295972585678
1772003682593618000,3.567617919921875,0.00132474466226995,-0.0004930528812110424,0.0027151547838002443
1772003682613581800,3.587581787109375,0.0015127218794077635,-0.0008334941230714321,0.0005807332927361131
1772003682633547000,3.607547119140625,-0.00005472451448440552,-0.0035701715387403965,-0.0005218031001277268
1772003682653511200,3.62751123046875,0.0015515356790274382,0.004634920507669449,0.0006083940388634801
1772003682673476000,3.64747607421875,-0.00006172386929392815,0.00193068478256464,0.00045024894643574953
1772003682693440000,3.66743994140625,0.001162318279966712,-0.0013419012539088726,-0.00048389582661911845
1772003682713404000,3.68740380859375,0.0015698387287557125,0.0005187802016735077,-0.00019276444800198078
1772003682733369000,3.707369140625,0.00010612327605485916,0.001459379680454731,-0.0000346828019246459
1772003682753333000,3.7273330078125,-0.0011980035342276096,0.0025258027017116547,0.0007245667511597276
1772003682773298000,3.7472978515625,0.0005421240348368883,-0.0026182238943874836,0.0012349637690931559
1772003682793262000,3.767261962890625,0.001594615401700139,0.0007389895617961884,-0.0006695116171613336
1772003682813227000,3.78722705078125,0.0019507324323058128,0.0010635452345013618,0.0007123678224161267
1772003682833191000,3.80719091796875,-0.001790904439985752,0.001227308064699173,0.001325311721302569
1772003682853154800,3.82715478515625,0.0013985373079776764,-0.0013271360658109188,0.0014085776638239622
1772003682873120000,3.8471201171875,-0.0010103033855557442,0.00015060510486364365,0.00002250075340270996
1772003682893084200,3.867084228515625,0.0026784799993038177,0.0018448056653141975,0.0002350879367440939
1772003682913049000,3.887049072265625,0.0023402348160743713,0.0004474567249417305,-0.0002485927543602884
1772003682933013000,3.907012939453125,0.0028725056909024715,0.0025888383388519287,-0.0015452890656888485
1772003682952978000,3.92697802734375,-0.0002063303254544735,0.0017521334812045097,0.0019442075863480568
1772003682972942000,3.946942138671875,-0.0022048954851925373,0.0021989503875374794,-0.0004231974598951638
1772003682992906000,3.966906005859375,-0.0008468101732432842,-0.0016351044178009033,0.0006980535108596087
1772003683012871000,3.986870849609375,0.000364555511623621,0.0023301178589463234,-0.0034560002386569977
1772003683032835000,4.0068349609375,0.000010497868061065674,-0.000229700468480587,0.00023080524988472462
1772003683052800000,4.026800048828125,-0.0015547550283372402,-0.0032746773213148117,0.0006590480916202068
1772003683072764000,4.046763916015625,0.0006931510288268328,0.0014146529138088226,-0.0003299129311926663
1772003683092729000,4.06672900390625,-0.00006280140951275826,0.0005602184683084488,-0.00037479144521057606
1772003683112693000,4.08669287109375,0.0016172598116099834,-0.0037976354360580444,-0.0032585628796368837
1772003683132657200,4.1066572265625,-0.000041550491005182266,0.0021152347326278687,0.0010129492729902267
1772003683152622000,4.1266220703125,0.0013584806583821774,-0.0005785073153674603,0.0014191224472597241
1772003683172586000,4.1465859375,-0.001501249149441719,-0.0013735117390751839,-0.0023840719368308783
1772003683192551000,4.166551025390625,-0.0010251738131046295,-0.0011680820025503635,0.0015746277058497071
1772003683212514800,4.186514892578125,0.0015400501433759928,-0.0031681000255048275,-0.00044957391219213605
1772003683232479000,4.20647900390625,-0.00236045615747571,0.0021268101409077644,-0.0006778704700991511
1772003683252444000,4.22644384765625,0.0006487614009529352,0.00011750217527151108,-0.000023459317162632942
1772003683272408000,4.246407958984375,0.0006277624052017927,0.0000054426491260528564,-0.0003211615839973092
1772003683292373000,4.266373046875,-0.0009940010495483875,-0.00090834591537714,-0.00047728524077683687
1772003683312337000,4.2863369140625,0.0014123735018074512,-0.003160974010825157,0.0007393264677375555
1772003683332302000,4.306302001953125,-0.0016693663783371449,0.004260949790477753,0.00241561746224761
1772003683352266000,4.326265869140625,0.0003316323272883892,0.002729947678744793,0.00041699910070747137
1772003683372230100,4.346230224609375,0.0004897923208773136,-0.0038863983936607838,-0.00016133009921759367
1772003683392195000,4.366195068359375,0.001073948573321104,-0.0007421462796628475,-0.00040471868123859167
1772003683412159000,4.386158935546875,-0.0013062679208815098,0.0005714660510420799,0.00052831438370049
1772003683432124000,4.4061240234375,-0.0005913833156228065,-0.0007516192272305489,-0.0014450281159952283
1772003683452087800,4.426087890625,-0.0015184683725237846,0.0046218326315283775,0.0006009765202179551
1772003683472052200,4.44605224609375,0.00024103326722979546,-0.0005058073438704014,0.00014652102254331112
1772003683492017200,4.46601708984375,0.0014806105755269527,-0.0011589610949158669,0.00040291028562933207
1772003683511981000,4.48598095703125,0.00042386818677186966,0.0006567826494574547,-0.0005955087835900486
1772003683531946000,4.505946044921875,0.004777266178280115,-0.0018912390805780888,0.0018268997082486749
1772003683551910000,4.525909912109375,-0.0023177280090749264,0.002648615278303623,0.001164874411188066
1772003683571873800,4.545873779296875,0.0011063979472965002,0.0014184005558490753,0.00147187989205122
1772003683591839000,4.5658388671875,-0.0014769728295505047,0.0005996795371174812,-0.0010590903693810105
1772003683611803100,4.58580322265625,0.0035425389651209116,0.002374444156885147,0.00021753774490207434
1772003683631768000,4.60576806640625,0.0016639861278235912,-0.0020104506984353065,0.001065496471710503
1772003683651732000,4.62573193359375,-0.0009325873106718063,0.0010609310120344162,-0.0023496905341744423
1772003683671696000,4.64569580078125,0.0015450769569724798,-0.001643037423491478,-0.0014984161825850606
1772003683691660800,4.665660888671875,0.00040977075695991516,0.00022567622363567352,-0.0013398828450590372
1772003683711625200,4.685625244140625,0.0009299882221966982,0.0014745322987437248,-0.003015698865056038
1772003683731590100,4.705590087890625,0.003469767514616251,-0.003052444662898779,0.0012828303733840585
1772003683751554000,4.725553955078125,0.0002662399783730507,0.0038788961246609688,0.00007377204019576311
1772003683771518000,4.74551806640625,-0.0005508633330464363,-0.002831969875842333,0.000958790653385222
1772003683791483000,4.76548291015625,-0.0020955982618033886,0.0013356832787394524,-1.1175870895385742e-8
1772003683811446800,4.78544677734375,-0.0011158478446304798,-0.00045975903049111366,-0.002026843372732401
1772003683831412000,4.805411865234375,-0.00015768222510814667,-0.0010473537258803844,0.004627889022231102
1772003683851376000,4.825376220703125,-0.0020187594927847385,0.0019374238327145576,-0.001283765654079616
1772003683871340000,4.845340087890625,0.0009126993827521801,-0.0037183077074587345,-0.001881416654214263
1772003683891305000,4.865304931640625,0.0014833356253802776,0.0050371140241622925,-0.0026520369574427605
1772003683911268900,4.885268798828125,0.0014692049007862806,-0.00034953607246279716,-0.00037038931623101234
1772003683931233800,4.90523388671875,-0.0008082049898803234,-0.001800338737666607,0.0004497072659432888
1772003683951198200,4.9251982421875,-0.0004906104877591133,0.00015451759099960327,0.0008016254287213087
1772003683971162000,4.945162109375,0.0009034748654812574,0.0007627671584486961,0.0021184938959777355
1772003683991127000,4.965126953125,0.0005308026447892189,-0.000584691297262907,0.000011539203114807606
1772003684011090700,4.985090576171875,0.0033772678580135107,0.0014077741652727127,-0.002722689416259527
1772003684031056000,5.005055908203125,-0.0007587457075715065,0.0013421056792140007,0.0004354537231847644
1772003684051020000,5.02502001953125,-0.0009361589327454567,0.003261183388531208,-0.0004127786378376186
1772003684070984000,5.04498388671875,0.0026008151471614838,-0.0008943905122578144,0.0002492523053660989
1772003684090948900,5.064948974609375,0.002148856408894062,-0.0012259106151759624,-0.001667200238443911
1772003684110912800,5.084912841796875,-0.0019150502048432827,0.0000036712735891342163,-0.0005912749911658466
1772003684130878000,5.1048779296875,0.000620709266513586,0.0005825180560350418,0.0024471492506563663
1772003684150841900,5.124841796875,0.000286793801933527,0.001721210777759552,-0.0004847570089623332
1772003684170806000,5.144805908203125,-0.001133116427809,-0.004244244657456875,0.0019159832736477256
1772003684190771000,5.16477099609375,-0.0012709004804491997,-0.0017105340957641602,0.0008776618633419275
1772003684210734800,5.18473486328125,-0.0003666733391582966,0.0025655264034867287,0.001471823314204812
1772003684230699800,5.20469970703125,-0.000054765958338975906,-0.001054331660270691,-0.001673560356721282
1772003684250663700,5.22466357421875,0.0013500181958079338,-0.003313732799142599,-0.0000054514966905117035
1772003684270628000,5.244628173828125,-0.00003314856439828873,0.0002007707953453064,0.002638664096593857
1772003684290592000,5.264592041015625,0.0018260602373629808,0.0006847577169537544,-0.0024947337806224823
1772003684310556000,5.284555908203125,-0.0002952045761048794,0.0016312012448906898,0.0006788915488868952
1772003684330520800,5.304520751953125,0.0009053475223481655,-0.0016250470653176308,0.0010002689668908715
1772003684350484700,5.324484619140625,-0.0009106025099754333,0.0000453190878033638,0.00013237446546554565
1772003684370449000,5.344448974609375,0.000679598655551672,0.00122832041233778,-0.0005013802438043058
1772003684390413800,5.364413818359375,-0.002206851728260517,0.005691769532859325,0.000015313969925045967
1772003684410378000,5.3843779296875,0.0008677365258336067,-0.00383633840829134,-0.0010723465820774436
1772003684430343000,5.404343017578125,0.0004639227408915758,-0.004255614243447781,-0.000911637325771153
1772003684450306800,5.424306884765625,-0.0004010414704680443,0.0005702748894691467,-0.00032137951347976923
1772003684470271000,5.44427099609375,-0.0008538351394236088,-0.0014870492741465569,-0.0017152344807982445
1772003684490236000,5.46423583984375,0.000543264439329505,0.0008102515712380409,0.00014566455502063036
1772003684510199800,5.48419970703125,-0.0003748857416212559,-0.0007122526876628399,0.000028412439860403538
1772003684530165000,5.5041650390625,-0.0005121883004903793,0.0016846219077706337,0.001220929203554988
1772003684550129000,5.52412890625,-0.00030670734122395515,-0.0016222423873841763,-0.001303469529375434
1772003684570092800,5.5440927734375,0.0018575119320303202,-0.0028111105784773827,0.0010276839602738619
1772003684590057700,5.5640576171875,-0.0005792616866528988,-0.0007477067410945892,-0.0007419540779665112
1772003684610022000,5.58402197265625,-0.00040699727833271027,0.001509011723101139,0.000189982820302248
1772003684629985800,5.60398583984375,0.0007784562185406685,-0.000643471721559763,0.0014237298164516687
1772003684649951000,5.623950927734375,0.001974645536392927,0.0018520783632993698,0.00032060244120657444
1772003684669915000,5.643914794921875,0.00025448063388466835,-0.0015806392766535282,0.0001111950259655714
1772003684689879800,5.6638798828125,0.0014896634966135025,0.000712839886546135,0.0012423446169123054
1772003684709844000,5.683843994140625,-0.0006102966144680977,-0.001169597264379263,-0.0027993335388600826
1772003684729808000,5.703807861328125,0.0010458717588335276,0.0018028179183602333,0.0021470063365995884
1772003684749772800,5.723772705078125,0.0014996568206697702,-0.0009867693297564983,0.0005927635356783867
1772003684769736700,5.74373681640625,-0.001150038093328476,0.001769019290804863,-0.001275696326047182
1772003684789700900,5.763700927734375,-0.0002913777716457844,-0.000455241184681654,0.00013729359488934278
1772003684809665800,5.783665771484375,0.0009180116467177868,0.0007273098453879356,0.0012604781659319997
1772003684829630000,5.8036298828125,0.0013158407527953386,-0.0008346140384674072,-0.0013141464442014694
1772003684849595000,5.823594970703125,0.0018307419959455729,-0.0017579267732799053,-0.000015225959941744804
1772003684869558800,5.843558837890625,0.0016369631048291922,-0.001471350435167551,0.002267936710268259
1772003684889522700,5.863522705078125,-0.0006164782680571079,-0.001834268681704998,0.00030167028307914734
1772003684909487900,5.88348779296875,0.0010644157882779837,0.002309851348400116,0.0002943821018561721
1772003684929452000,5.9034521484375,0.0021545751951634884,-0.003916190005838871,-0.004128697328269482
1772003684949416000,5.923416015625,0.0022896151058375835,0.0017460379749536514,0.0014515089569613338
1772003684969380900,5.943380859375,-0.0007880064658820629,-0.0018717069178819656,-0.0012660828651860356
1772003684989344800,5.9633447265625,0.0004504260141402483,-0.0013062367215752602,0.00015218835324048996
1772003685009310000,5.98331005859375,0.0010377392172813416,-0.0005402136594057083,0.00017131655476987362
1772003685029274000,6.003274169921875,0.0014317543245851994,-0.002624973189085722,0.0009148257086053491
1772003685049238000,6.023238037109375,-0.000981450080871582,-0.00016633886843919754,-0.00043923285556957126
1772003685069203000,6.043202880859375,-0.0010316339321434498,0.0006018998101353645,-0.00022594246547669172
1772003685089166800,6.063166748046875,0.00038660946302115917,0.00271639134734869,-0.0007227718597277999
1772003685109131000,6.083131103515625,0.0010832101106643677,0.0007681902498006821,0.000356810400262475
1772003685129096000,6.103095947265625,-0.000534379854798317,-0.0010042674839496613,0.0005839781370013952
1772003685149060000,6.12306005859375,-0.001513289287686348,-0.0014648810029029846,0.0007601045072078705
1772003685169025000,6.14302490234375,0.0011969192419201136,-0.0008817599155008793,-0.0016727548791095614
1772003685188989000,6.162989013671875,-0.0005433741025626659,-0.00031340448185801506,-0.000914201489649713
1772003685208952800,6.182952880859375,-0.0010006860829889774,0.0012870002537965775,0.00005894387140870094
1772003685228918000,6.20291796875,-0.0007028849795460701,0.0017386535182595253,0.0012030398938804865
1772003685248882200,6.222882080078125,0.0012463168241083622,-0.004573567770421505,-0.001473358366638422
1772003685268846000,6.24284619140625,-0.0013165506534278393,-0.00022238818928599358,0.002348093781620264
1772003685288811000,6.26281103515625,0.0003331017214804888,-0.0004547657445073128,-0.0010034869192168117
1772003685308775000,6.28277490234375,-0.001171354204416275,-0.0008553792722523212,0.0001250521745532751
1772003685328738800,6.30273876953125,-0.0005073314532637596,-0.0015477403067052364,-0.0014912767801433802
1772003685348704000,6.3227041015625,0.0008473508059978485,0.00012582633644342422,0.0003745448775589466
1772003685368668200,6.342668212890625,-0.0008462937548756599,0.00019169971346855164,0.00014306080993264914
1772003685388632000,6.362632080078125,0.0025948467664420605,-0.002453205641359091,-0.0004615645157173276
1772003685408597000,6.382596923828125,-0.001481853425502777,0.004025067202746868,0.0010348656214773655
1772003685428561000,6.402560791015625,-0.0001369807869195938,-0.0015007993206381798,-0.0012372040655463934
1772003685448525800,6.42252587890625,-0.00008033681660890579,0.0014696205034852028,0.0009933275869116187
1772003685468490000,6.442489990234375,0.0006411653012037277,0.0024120984598994255,-0.00020547350868582726
1772003685488454100,6.4624541015625,0.0008908954914659262,-0.0015946957282721996,-0.0015438274713233113
1772003685508419000,6.482419189453125,0.0002840678207576275,0.0029159430414438248,-0.0010450202971696854
1772003685528383000,6.502383056640625,0.001186608336865902,0.0019361823797225952,0.00005544198211282492
1772003685548347000,6.522346923828125,0.002021996071562171,-0.0010115588083863258,0.0019154974725097418
1772003685568311800,6.542311767578125,-0.0026800669729709625,-0.0021139434538781643,-0.000846256036311388
1772003685588276000,6.56227587890625,-0.00020786141976714134,0.00011316966265439987,-0.0006224609678611159
1772003685608239900,6.582239990234375,0.00045651919208467007,-0.00005192309617996216,-0.0018834155052900314
1772003685628205000,6.602205078125,0.0003286544233560562,0.0005235970020294189,-0.0003717645304277539
1772003685648169000,6.6221689453125,-0.0025321939028799534,0.001171555370092392,-0.0001828331733122468
1772003685668133000,6.642133056640625,0.0011235882993787527,-0.003618457820266485,0.001042692456394434
1772003685688098000,6.66209814453125,-0.002435898408293724,-0.0006916983984410763,0.00019712233915925026
1772003685708062000,6.68206201171875,0.00017831102013587952,-0.00036961864680051804,0.0013681974960491061
1772003685728025900,6.70202587890625,-0.0003683525137603283,-0.005248567089438438,0.0002646188950166106
1772003685747991000,6.721990966796875,0.0007487868424504995,-0.0028435252606868744,-0.00024441920686513186
1772003685767955000,6.741954833984375,-0.00023467373102903366,0.002129076048731804,-0.0027448348701000214
1772003685787920000,6.761919921875,0.00009530084207654,-0.0039574867114424706,0.0007397639565169811
1772003685807884000,6.781884033203125,-0.0011496059596538544,-0.0008706701919436455,-0.0007959009381011128
1772003685827848000,6.801847900390625,-0.0021774391643702984,-0.0018733297474682331,-0.00017038604710251093
1772003685847812900,6.821812744140625,-0.000011622440069913864,-0.001238416414707899,-0.0007352727116085589
1772003685867777000,6.841777099609375,-0.00019131461158394814,0.0013711918145418167,-0.00035731279058381915
1772003685887741200,6.8617412109375,-0.0014574537053704262,0.00264743622392416,-0.0015921976882964373
1772003685907706000,6.8817060546875,0.0012184383813291788,-0.000737376045435667,-0.002719288691878319
1772003685927670000,6.901669921875,0.0004625848960131407,-0.0003154273144900799,-0.00144656328484416
1772003685947634000,6.921634033203125,0.0015959267038851976,0.00464240089058876,0.0006345345173031092
1772003685967598800,6.941598876953125,-0.001940272282809019,-0.00343685457482934,-0.0002122408477589488
1772003685987563000,6.96156298828125,0.0002560727298259735,-0.00012989621609449387,-0.0001908779377117753
1772003686007526100,6.981526123046875,0.0008619250729680061,0.0026991236954927444,-0.00027566979406401515
1772003686027491000,7.001490966796875,-0.0010816673748195171,-0.003205444198101759,-0.001165030524134636
1772003686047455000,7.021455078125,0.0005554340314120054,-0.0008103516884148121,-0.0002485699369572103
1772003686067419100,7.041419189453125,-0.00015961844474077225,-0.0014313356950879097,0.00044700875878334045
1772003686087384300,7.06138427734375,0.0010191428009420633,0.00006417743861675262,0.0017722041811794043
1772003686107348200,7.08134814453125,0.0013993594329804182,-0.00029582809656858444,0.0011986347381025553
1772003686127312100,7.10131201171875,0.0011621627490967512,-0.00048505794256925583,0.002617110265418887
1772003686147277000,7.121277099609375,0.0005118693225085735,0.0020597046241164207,0.001772638875991106
1772003686167241200,7.1412412109375,0.0001706513576209545,-0.0011087171733379364,-0.0005375276668928564
1772003686187205000,7.161205078125,0.000030811410397291183,0.0002843830734491348,-0.0005229542148299515
1772003686207170300,7.18117041015625,-0.0011804932728409767,-0.00002847239375114441,-0.0009900114964693785
1772003686227134200,7.20113427734375,0.003060902003198862,-0.0020237541757524014,0.001906934892758727
1772003686247098000,7.22109814453125,0.00023344578221440315,-0.002436406444758177,-0.0006917824503034353
1772003686267063000,7.24106298828125,-0.0014245850034058094,-0.0012051542289555073,0.001439408864825964
1772003686287027200,7.261027099609375,0.00029620854184031487,-0.0012040012516081333,-0.0008954076329246163
1772003686306991000,7.2809912109375,-0.00028083333745598793,0.003132999874651432,0.0024001644924283028
1772003686326956300,7.300956298828125,-0.003700484521687031,-0.0009803837165236473,-0.00018332013860344887
1772003686346920200,7.320920166015625,-0.0009354962967336178,0.0019777100533246994,-0.0015844018198549747
1772003686366884400,7.34088427734375,0.002558390609920025,-0.0006976192817091942,-0.0024312858004122972
1772003686386849300,7.360849365234375,-0.0006293142214417458,0.001540246419608593,-0.002740149386227131
1772003686406813200,7.380813232421875,0.0014417888596653938,0.0017913570627570152,-0.0021297973580658436
1772003686426778000,7.400778076171875,0.0009434064850211143,-0.0037008151412010193,0.002283753827214241
1772003686446742000,7.420741943359375,-0.0012733782641589642,0.0011589722707867622,0.0007306654006242752
1772003686466706200,7.4407060546875,-0.0006089783273637295,0.00041030440479516983,-0.000012240954674780369
1772003686486670300,7.46067041015625,0.0001276363618671894,-0.0010997634381055832,0.0018012678483501077
1772003686506635300,7.48063525390625,-0.0002875411882996559,0.000917341560125351,-0.000057754223234951496
1772003686526599200,7.50059912109375,-0.000614590011537075,-0.0007437393069267273,0.0025171730667352676
1772003686546563000,7.52056298828125,0.0012749466113746166,0.0007805032655596733,-0.000060571590438485146
1772003686566528000,7.540528076171875,-0.0002224021591246128,-0.00042201951146125793,0.00041773507837206125
1772003686586492200,7.5604921875,-0.0009148567914962769,-0.0018045338802039623,-0.0006980886100791395
1772003686606456300,7.580456298828125,-0.0023651039227843285,0.0006625493988394737,0.000648194458335638
1772003686626421200,7.600421142578125,-0.000869381707161665,-0.0005898368544876575,0.0005664334166795015
1772003686646385200,7.62038525390625,0.0014494785573333502,0.00008953362703323364,-0.00024402322014793754
1772003686666349000,7.64034912109375,0.0013849835377186537,0.00030149612575769424,0.0024125620257109404
1772003686686314000,7.66031396484375,-0.00043545616790652275,0.0035809483379125595,-0.000330499024130404
1772003686706278100,7.680278076171875,-0.00024085817858576775,0.00032894499599933624,-0.001924540032632649
1772003686726242000,7.700241943359375,-0.00005224766209721565,-0.0019150297157466412,0.0011767289834097028
1772003686746207200,7.720207275390625,0.0005036522634327412,-0.0010092542506754398,-0.0012757815420627594
1772003686766171100,7.740171142578125,0.0001049102284014225,0.0015502134338021278,0.000670043402351439
1772003686786135300,7.76013525390625,-0.0005145519971847534,-0.0012351120822131634,0.002424008445814252
1772003686806100200,7.780100341796875,0.0021807397715747356,-0.00012532994151115417,-0.00206192210316658
1772003686826064100,7.800064208984375,-0.0000985078513622284,-0.0016319355927407742,0.0009318218799307942
1772003686846028000,7.820028076171875,-0.0014292229898273945,0.003998551517724991,0.001204796484671533
1772003686865993200,7.8399931640625,-0.0019129952415823936,0.003139978274703026,-0.0005120696732774377
1772003686885957000,7.85995703125,-0.002623184584081173,-0.00008500833064317703,-0.002738061361014843
1772003686905921300,7.87992138671875,0.0012867061886936426,0.0016083866357803345,0.004337515216320753
1772003686925886200,7.89988623046875,0.0006938586011528969,0.0052987802773714066,0.002043572487309575
1772003686945850000,7.91985009765625,-0.00025106919929385185,-0.0024443669244647026,-0.003354521468281746
1772003686965814000,7.93981396484375,-0.0024601025506854057,0.003997689113020897,0.0006026122719049454
1772003686985779000,7.959779052734375,-0.0009750174358487129,0.0017550969496369362,0.003125629387795925
1772003687005744600,7.97974462890625,0.0020508277229964733,0.00009077508002519608,-0.002421883400529623
1772003687025708800,7.999708740234375,0.00006479537114501,0.001145017333328724,-0.0028083105571568012
1772003687045673700,8.019673828125,0.0003639501519501209,-0.0068102083168923855,0.0014638756401836872
1772003687065637600,8.0396376953125,-0.0011061783879995346,0.0023701461032032967,0.0038858307525515556
1772003687085601500,8.0596015625,0.0021927282214164734,0.0020802095532417297,-0.0009593028225935996
1772003687105565400,8.0795654296875,0.0018409853801131248,-0.0007076365873217583,-0.0020490132737904787
1772003687125530600,8.099530517578126,0.0010567056015133858,0.0005432972684502602,0.0000729602761566639
1772003687145494800,8.119494873046875,-0.00013111112639307976,0.0006822142750024796,-0.0016052286373451352
1772003687165458700,8.139458740234375,0.0015300780069082975,-0.00036279018968343735,-0.00045706972014158964
1772003687185423600,8.159423583984376,0.00031678425148129463,0.004122071899473667,0.002628674264997244
1772003687205387500,8.179387451171875,-0.0012226421386003494,-0.0010370011441409588,-0.0013631320325657725
1772003687225351700,8.1993515625,0.0020290266256779432,-0.0009960965253412724,0.0016275163507089019
1772003687245316600,8.219316650390626,0.0011713679414242506,-0.0013345363549888134,0.00099574972409755
1772003687265280800,8.23928076171875,0.00010068481788039207,-0.0017258552834391594,0.0024476780090481043
1772003687285244700,8.25924462890625,0.0003087366931140423,0.0035173501819372177,0.0030798506923019886
1772003687305209600,8.279209716796874,-0.0023077591322362423,0.000595330260694027,-0.001100696506910026
1772003687325173500,8.299173583984375,-0.00022343220189213753,-0.001998969353735447,0.0008547797333449125
1772003687345137700,8.3191376953125,-0.002607011701911688,0.0020760241895914078,-0.00005483196582645178
1772003687365102600,8.3391025390625,0.0015080904122442007,-0.0005808882415294647,-0.0015406862366944551
1772003687385066500,8.35906640625,-0.0002241465263068676,-0.0008728792890906334,0.0017469532322138548
1772003687405030700,8.37903076171875,0.001217532204464078,0.0011238092556595802,-0.002028487855568528
1772003687424994800,8.398994873046876,-0.0013949256390333176,-0.0030494816601276398,0.0014608824858441949
1772003687444959700,8.418959716796875,0.00023735174909234047,0.0008013900369405746,0.0007654661312699318
1772003687464923600,8.438923583984375,0.0025590856093913317,0.0005220528692007065,-0.000998784671537578
1772003687484887600,8.458887451171876,0.000054988544434309006,0.001035807654261589,-0.00027932377997785807
1772003687504852500,8.4788525390625,0.001236598240211606,-0.002255558967590332,-0.0008221555035561323
1772003687524816600,8.498816650390625,-0.00041733914986252785,-0.0005425573326647282,0.004382505547255278
1772003687544780800,8.51878076171875,0.00004714773967862129,-0.000863111112266779,0.0017089593457058072
1772003687564745700,8.538745849609375,-0.0011204187758266926,-0.003995702601969242,-0.000010073301382362843
1772003687584709600,8.558709716796875,0.000367302680388093,0.00365305133163929,0.00022626097779721022
1772003687604673500,8.578673583984376,0.0007108105346560478,-0.002191736362874508,0.0006616307655349374
1772003687624638500,8.598638427734375,-0.000011792872101068497,-0.001777315977960825,-0.0010326702613383532
1772003687644602600,8.6186025390625,-0.0007442948408424854,-0.00016778567805886269,0.0009336856892332435
1772003687664566500,8.63856640625,-0.002251293044537306,0.000864105299115181,-0.0012935284757986665
1772003687684530700,8.65853076171875,0.001727619906887412,0.0013509094715118408,0.0003344956785440445
1772003687704495600,8.67849560546875,-0.0023189354687929153,0.0008017877116799355,0.001893767504952848
1772003687724459800,8.698459716796876,0.0008404585532844067,0.0011268975213170052,0.0015427942853420973
1772003687744423700,8.718423583984375,-0.00013312743976712227,-0.000841937493532896,-0.0014603029703721404
1772003687764388600,8.738388671875,-0.0003636544570326805,-0.0004851752892136574,-0.0014298028545454144
1772003687784352500,8.7583525390625,0.0024911409709602594,-0.0004155552014708519,0.0027099980507045984
1772003687804316400,8.77831640625,-0.00017429189756512642,0.0005826093256473541,-0.0027958175633102655
1772003687824280800,8.79828076171875,0.0013523497618734837,-0.0013732584193348885,0.0005905375583097339
1772003687844245800,8.818245849609376,0.0006547363009303808,-0.0012688422575592995,0.00032566289883106947
1772003687864209700,8.838209716796875,-0.000012717675417661667,-0.0002723489888012409,0.0014627602649852633
1772003687884173600,8.858173583984374,0.0015256868209689856,0.001162603497505188,0.0008278387831524014
1772003687904138500,8.878138427734376,0.00019092857837677002,-0.0015110457316040993,0.0004356473218649626
1772003687924102700,8.8981025390625,-0.0010968265123665333,0.0018491661176085472,0.0004850522382184863
1772003687944066600,8.918066650390625,-0.0004765735939145088,0.0007468424737453461,-0.0004201785777695477
1772003687964031700,8.93803173828125,-0.002607452217489481,0.0018316097557544708,0.0011305449297651649
1772003687983995600,8.95799560546875,-0.0004936275072395802,0.0012047085911035538,-0.000020110164768993855
1772003688003958500,8.97795849609375,0.00008428655564785004,0.0008666450157761574,0.0001426440430805087
1772003688023922400,8.99792236328125,0.0028268988244235516,0.0004495680332183838,-0.0007198363309726119
1772003688043887400,9.017887451171875,0.00021767942234873772,-0.0022662291303277016,0.0017173222731798887
1772003688063851300,9.037851318359374,-0.00014524394646286964,-0.0006022374145686626,-0.0009046824416145682
1772003688083815400,9.0578154296875,0.0005940569099038839,-0.0028898362070322037,0.00041695067193359137
1772003688103780600,9.077780517578125,-0.0005839033983647823,0.0016252892091870308,0.0034437961876392365
1772003688123744500,9.09774462890625,0.002120431512594223,0.003167991526424885,-0.0017887803260236979
1772003688143708400,9.11770849609375,0.0003219866193830967,-0.001976427622139454,0.0018113544210791588
1772003688163672300,9.13767236328125,-0.002602106425911188,0.0030626552179455757,-0.0010702441213652492
1772003688183637500,9.157637451171874,0.00032788142561912537,0.0005883323028683662,-0.0028388251084834337
1772003688203601400,9.177601318359375,-0.0007900851778686047,0.0029374239966273308,-0.0005191714153625071
1772003688223565300,9.1975654296875,0.002410033717751503,-0.00038622505962848663,0.001327025005593896
1772003688243529200,9.217529296875,-0.0008726869709789753,0.00010267551988363266,0.0021660004276782274
1772003688263494400,9.237494384765625,-0.0005068168975412846,0.0004212828353047371,0.00028611463494598866
1772003688283458600,9.25745849609375,0.0019366196356713772,-0.00005124695599079132,0.00007720012217760086
1772003688303422500,9.27742236328125,-0.0023289909586310387,0.0033728331327438354,0.0008832718012854457
1772003688323387400,9.297387451171875,0.00019639497622847557,-0.0036509837955236435,-0.0009547639056108892
1772003688343351300,9.317351318359375,0.0002787811681628227,0.0008071316406130791,-0.0007542257662862539
1772003688363315500,9.3373154296875,-0.0019807307980954647,0.0017438707873225212,0.0011127768084406853
1772003688383279400,9.357279296875,0.00151976034976542,-0.0008846595883369446,0.0015851729549467564
1772003688403244500,9.37724462890625,0.0011516991071403027,0.00045619625598192215,0.002447333186864853
1772003688423208400,9.39720849609375,0.0008258360903710127,-0.0019695558585226536,-0.0017387139378115535
1772003688443172400,9.41717236328125,-0.002391915302723646,0.0025647981092333794,0.00011271703988313675
1772003688463137300,9.43713720703125,0.0013593565672636032,-0.0008112229406833649,0.002278143772855401
1772003688483101400,9.457101318359374,-0.0036655408330261707,0.000622243620455265,0.00027126434724777937
1772003688503065300,9.4770654296875,0.0009607265237718821,-0.0021008155308663845,-0.001866085920482874
1772003688523029200,9.497029296875,0.0015814520884305239,0.0012964000925421715,8.030328899621964e-7
1772003688542994400,9.516994384765624,0.00038817431777715683,-0.004189295694231987,-0.0005978028057143092
1772003688562958600,9.53695849609375,0.0013206284493207932,-0.00013513769954442978,-0.0001308661885559559
1772003688582922500,9.556922607421875,-0.0014277943409979343,-0.0009738891385495663,0.00042159087024629116
1772003688602886400,9.576886474609376,-0.00011808937415480614,0.002006889320909977,-0.0015982555923983455
1772003688622851300,9.596851318359375,-0.0006086449138820171,0.0006637712940573692,-0.001943961950019002
1772003688642817500,9.616817626953125,-0.001110654789954424,-0.0007885778322815895,-0.00043840217404067516
1772003688662782500,9.636782470703125,0.0007715676911175251,-0.0008001122623682022,0.0015951873501762748
1772003688682746400,9.656746337890626,-0.0024338108487427235,0.0014073308557271957,0.001718683633953333
1772003688702710300,9.676710205078125,0.00004217028617858887,-0.00205743545666337,0.001106723677366972
1772003688722674400,9.69667431640625,-0.0007719779387116432,0.0017282087355852127,-0.0005920033436268568
1772003688742639400,9.716639404296876,-0.0004950929433107376,-0.0009759706445038319,-0.002725424710661173
1772003688762603500,9.736603515625,-0.00006593437865376472,-0.0033253910951316357,-0.00011575932148844004
1772003688782567400,9.7565673828125,-0.002615105826407671,0.0013561751693487167,-0.0027330622542649508
1772003688802531600,9.776531494140626,-0.000476825051009655,0.00029650237411260605,-0.0016517721815034747
1772003688822496500,9.79649658203125,-0.0003403616137802601,0.002072421833872795,0.0008138207485899329
1772003688842460400,9.81646044921875,0.0012555813882499933,0.00064865592867136,0.002968764863908291
1772003688862424300,9.83642431640625,-0.00043401867151260376,0.0036033792421221733,0.0024075552355498075
1772003688882389200,9.85638916015625,0.0014664193149656057,0.002099207602441311,-0.001651782775297761
1772003688902353400,9.876353515625,-0.0009436272084712982,0.0007506106048822403,0.0005396273918449879
1772003688922317600,9.896317626953126,-0.0015108506195247173,-0.004043431021273136,-0.0005995139945298433
1772003688942281500,9.916281494140625,-0.0005662417970597744,-0.006153560243546963,0.001314201159402728
1772003688962246400,9.936246337890625,-0.0012303641997277737,0.000962710939347744,-0.002287951996549964
1772003688982210300,9.956210205078126,0.0003416445106267929,-0.005416823551058769,0.00011424766853451729
1772003689002174500,9.976174560546875,-0.0009555863216519356,0.0010784165933728218,-0.0016504328232258558
1772003689022138400,9.996138427734374,-0.0009282375685870647,-0.0011188979260623455,0.002394651295617223
1772003689042103300,10.016103271484376,-0.0025742575526237488,0.0040090810507535934,0.0016540986252948642
1772003689062067200,10.036067138671875,0.0006376891396939754,-0.00035578757524490356,-0.00003161909990012646
1772003689082031600,10.056031494140624,-0.0010942830704152584,0.00037471670657396317,0.0010271985083818436
1772003689101995500,10.07599560546875,0.001019732328131795,0.0001771673560142517,0.002023175358772278
1772003689121960400,10.09596044921875,0.00020629307255148888,-0.000925175379961729,-0.001198114245198667
1772003689141924400,10.11592431640625,0.001157522900030017,0.0003822809085249901,0.001529151457361877
1772003689161888300,10.13588818359375,-0.0005513387732207775,-0.000023806467652320862,0.00010165909770876169
1772003689181852400,10.155852294921875,-0.0006734323687851429,-0.0020222337916493416,-0.0032294918783009052
1772003689201817300,10.1758173828125,-0.00005320180207490921,0.0030803056433796883,0.002188561949878931
1772003689221781200,10.19578125,0.0006871812511235476,0.0022738417610526085,-0.0010122378589585423
1772003689241745400,10.215745361328125,0.0002286173403263092,0.0005447417497634888,-0.0024421087000519037
1772003689261709600,10.23570947265625,-0.00026819808408617973,-0.0010798103176057339,-0.00021354923956096172
1772003689281674500,10.255674560546876,0.0012823629658669233,0.0014390265569090843,0.0020638236310333014
1772003689301638400,10.275638427734375,-0.000779399648308754,0.00006467476487159729,0.0009247165871784091
1772003689321602300,10.295602294921874,0.00010754866525530815,-0.0010198256932199001,0.0019716396927833557
1772003689341566200,10.315566162109375,-0.000419118907302618,-0.00008517876267433167,-0.003474530065432191
1772003689361531100,10.33553125,-0.0022565703839063644,0.0014915307983756065,0.00019682501442730427
1772003689381495600,10.35549560546875,-0.0003453027456998825,-0.0012600203044712543,0.0006981916958466172
1772003689401459500,10.37545947265625,0.00045559555292129517,0.0002872571349143982,-0.0005759521154686809
1772003689421423400,10.39542333984375,-0.0006483816541731358,-0.0003735763020813465,-0.0024245334789156914
1772003689441388300,10.41538818359375,0.0012480728328227997,0.0018437104299664497,0.0027359670493751764
1772003689461352400,10.4353525390625,0.00009183352813124657,0.002076924778521061,-0.0019881892949342728
1772003689481316400,10.45531640625,0.00045033800415694714,-0.0010266639292240143,0.00115267897490412
1772003689501280300,10.4752802734375,-0.000225861556828022,-0.0004999437369406223,-0.00021598697640001774
1772003689521245400,10.495245361328125,-0.0016554174944758415,0.0004255976527929306,-0.0017621566075831652
1772003689541209300,10.515209228515625,-0.0008461279794573784,-0.00474114716053009,-0.0005673515843227506
1772003689561173500,10.535173583984376,-0.0010917261242866516,0.001563764177262783,-0.0013784121256321669
1772003689581137400,10.555137451171875,0.0010173944756388664,0.003311166539788246,0.001424491172656417
1772003689601102300,10.575102294921875,-0.002113393973559141,-0.0018125097267329693,-0.0002734264708124101
1772003689621066200,10.595066162109376,0.0013731594663113356,0.00485352985560894,0.0009505478665232658
1772003689641030400,10.615030517578125,0.0005645523779094219,-0.00044546276330947876,0.002070851856842637
1772003689660994300,10.634994384765625,-0.0009954203851521015,0.1674441397190094,0.08126513659954071
1772003689680959500,10.65495947265625,0.0098977480083704,-0.11992665380239487,-0.007392007391899824
1772003689700923400,10.67492333984375,-0.0027691801078617573,0.046225905418395996,-0.015415996313095093
1772003689720887300,10.69488720703125,0.00013252347707748413,-0.03431141376495361,-0.030077235773205757
1772003689740851500,10.7148515625,-0.0012004119344055653,-0.007623872719705105,0.012403964065015316
