time,seconds_elapsed,z,y,x
1771956712480033000,0.053032958984375,-0.00008859578520059586,0.01885674148797989,0.012669757939875126
1771956712499996000,0.072995849609375,-0.0029305368661880493,0.005169294774532318,-0.0014103363500908017
1771956712519959000,0.092958984375,-0.0014665359631180763,0.007718163542449474,0.0036917608231306076
1771956712539922000,0.112921875,0.0009650953579694033,0.00380517216399312,0.006629149429500103
1771956712559886000,0.132885986328125,0.002088150242343545,-0.005425344221293926,-0.004183284472674131
1771956712579848700,0.1528486328125,0.002069928450509906,-0.0030868398025631905,-0.0036286357790231705
1771956712599811800,0.172811767578125,-0.0015633106231689453,0.00959358736872673,0.00222985097207129
1771956712619774700,0.192774658203125,0.001035868190228939,0.009768083691596985,0.005634244531393051
1771956712639737900,0.21273779296875,0.0008339385967701674,0.005582291167229414,0.002570748794823885
1771956712659701000,0.232700927734375,0.00039407843723893166,0.0017754742875695229,0.002542733447626233
1771956712679665000,0.252664794921875,-0.004986604675650597,-0.0003172466531395912,0.0025011098477989435
1771956712699627800,0.272627685546875,0.0005422183312475681,0.00009714998304843903,-0.006606290116906166
1771956712719591000,0.2925908203125,0.003771651303395629,0.0002651950344443321,-0.0006759629468433559
1771956712739554000,0.312553955078125,-0.0026274947449564934,-0.0025368710048496723,0.0008685436332598329
1771956712759517000,0.332516845703125,0.0016028552781790495,0.00046160025522112846,-0.0008525695302523673
1771956712779480000,0.35247998046875,0.0023904135450720787,0.002965460065752268,-0.005466483533382416
1771956712799442700,0.372442626953125,0.0015228185802698135,-0.0010566087439656258,-0.004785184748470783
1771956712819407000,0.392406982421875,0.0007657413370907307,-0.004236878827214241,-0.0012424173764884472
1771956712839369700,0.41236962890625,-0.001830491703003645,-0.008305792696774006,-0.0018469938077032566
1771956712859332900,0.432332763671875,-0.0010764263570308685,-0.004362923093140125,-0.004860818851739168
1771956712879295700,0.452295654296875,-0.0011525535956025124,-0.001507430337369442,-0.00356778921559453
1771956712899259000,0.4722587890625,0.0005064932629466057,-0.002204534597694874,-0.0005644026678055525
1771956712919221800,0.4922216796875,-0.000051377806812524796,-0.001642649993300438,0.0005474800709635019
1771956712939185000,0.512184814453125,0.002031131414696574,0.0010368931107223034,-0.0014474547933787107
1771956712959148800,0.532148681640625,0.0027362341061234474,-0.005152180790901184,-0.0001362408511340618
1771956712979112000,0.55211181640625,-0.0014240667223930359,-0.0010744864121079445,0.0021540382876992226
1771956712999074800,0.57207470703125,0.0009846955072134733,-0.00003794115036725998,-0.0013190028257668018
1771956713019038000,0.592037841796875,-0.0011661574244499207,-0.0025009349919855595,-0.0005917550297454
1771956713039001000,0.6120009765625,-0.00023488933220505714,-0.0036937908735126257,-0.0035221967846155167
1771956713058963700,0.631963623046875,0.00027742329984903336,-0.0005890349857509136,-0.0026902384124696255
1771956713078928000,0.651927978515625,0.001022643642500043,-0.0018842420540750027,0.00007664639269933105
1771956713098890800,0.671890869140625,0.0003830506466329098,-0.001852730754762888,0.0010185802821069956
1771956713118854000,0.69185400390625,-0.002255813218653202,-0.0016373838298022747,-0.002667828928679228
1771956713138816800,0.711816650390625,-0.0014478620141744614,0.0010056919418275356,-0.002083670813590288
1771956713158780000,0.73177978515625,-0.00041180988773703575,-0.00015993090346455574,-0.0016868730308488011
1771956713178742800,0.75174267578125,-0.0012907092459499836,-0.0035622138530015945,-0.004048349801450968
1771956713198706000,0.771705810546875,0.0007732298690825701,-0.00020982651039958,-0.0019468495156615973
1771956713218669800,0.791669921875,0.00033740513026714325,0.00010933168232440948,0.0003036613343283534
1771956713238633000,0.811633056640625,0.0003100554458796978,-0.0010543148964643478,-0.004550089593976736
1771956713258595800,0.831595947265625,-0.0006778673268854618,-0.0014416244812309742,-0.0031843944452703
1771956713278559000,0.85155908203125,0.00018744217231869698,0.002136529888957739,0.00008341786451637745
1771956713298522000,0.871522216796875,-0.0010269787162542343,0.0039498512633144855,0.0034055456053465605
1771956713318484700,0.891484619140625,0.000424074474722147,0.0001642792485654354,0.00006261898670345545
1771956713338448000,0.91144775390625,0.002161338459700346,-0.00005036359652876854,0.000833149766549468
1771956713358411800,0.931411865234375,-0.0017265025526285172,0.0017867540009319782,0.0022458431776612997
1771956713378375000,0.951375,0.0012832595966756344,-0.0024462807923555374,0.0015612187562510371
1771956713398337800,0.971337890625,0.0026600933633744717,-0.0024705156683921814,-0.0009602620848454535
1771956713418301000,0.991301025390625,0.0017788333352655172,0.0010437672026455402,0.0018010041676461697
1771956713438263800,1.011263916015625,-0.00029804371297359467,0.00184981944039464,0.0032037170603871346
1771956713458227000,1.03122705078125,0.0023596463724970818,0.002443128265440464,0.0006199312047101557
1771956713478189800,1.05118994140625,-0.0029255463741719723,-0.002225289586931467,-0.00026923668337985873
1771956713498153500,1.071153564453125,0.0006279256194829941,-0.0008924952708184719,-0.002422996563836932
1771956713518116400,1.091116455078125,-0.0001607462763786316,-0.0014042533002793789,-0.0008064447902143002
1771956713538079200,1.111079345703125,-0.001149917021393776,-0.004219589754939079,0.0011678214650601149
1771956713558042400,1.13104248046875,0.0012731386814266443,0.0012612994760274887,-0.0010539923096075654
1771956713578005200,1.151005126953125,-0.00019092578440904617,0.003534281626343727,0.0008599079446867108
1771956713597968400,1.170968505859375,-0.0005783536471426487,0.0032976381480693817,0.0037791389040648937
1771956713617931300,1.19093115234375,-0.002369903028011322,0.0021540774032473564,0.0008211656240746379
1771956713637895400,1.2108955078125,-0.002257240004837513,-0.0021605361253023148,-0.0010280328569933772
1771956713657858300,1.2308583984375,0.00025501474738121033,-0.0037239661905914545,-0.00137090845964849
1771956713677821400,1.250821533203125,0.0015304218977689743,0.0018161395564675331,0.001991179771721363
1771956713697784300,1.270784423828125,0.0006568513344973326,0.004089920781552792,0.00012014328967779875
1771956713717747500,1.29074755859375,0.000010197516530752182,0.005169952288269997,0.003934274427592754
1771956713737710300,1.31071044921875,0.0002942066639661789,0.0027076969854533672,0.004466701298952103
1771956713757673200,1.330673095703125,-0.000916327815502882,0.0022886102087795734,0.003237971104681492
1771956713777637000,1.35063720703125,0.00015967432409524918,0.0001855543814599514,0.005207898560911417
1771956713797600300,1.370600341796875,-0.000700813252478838,0.0036142966710031033,0.0010054658632725477
1771956713817563400,1.3905634765625,0.0013690139167010784,0.002702842466533184,0.002638899488374591
1771956713837526300,1.4105263671875,0.0005762937944382429,-0.00164328096434474,0.0014081132831051946
1771956713857489400,1.430489501953125,0.00021529151126742363,-0.0014596087858080864,-0.001118135522119701
1771956713877452300,1.450452392578125,0.0008374685421586037,0.0011812839657068253,0.0021504235919564962
1771956713897416400,1.47041650390625,-0.0010673892684280872,-0.0009114183485507965,-0.0010602050460875034
1771956713917379300,1.49037939453125,0.00015115179121494293,-0.0015170564875006676,-0.003434656886383891
1771956713937342500,1.510342529296875,0.00008953036740422249,-0.002920430153608322,-0.0036992356181144714
1771956713957305300,1.530305419921875,0.0012088764924556017,-0.0020554098300635815,-0.002877218183130026
1771956713977268500,1.5502685546875,-0.00029308581724762917,-0.003071861807256937,-0.004299914464354515
1771956713997231400,1.5702314453125,0.002692564856261015,-0.00403607077896595,-0.0035223886370658875
1771956714017194200,1.5901943359375,0.0021567302756011486,-0.002978323958814144,-0.003898235037922859
1771956714037157400,1.610157470703125,-0.0007439847104251385,0.0015373318456113338,0.0008866662392392755
1771956714057121300,1.630121337890625,-0.0008687633089721203,0.008698366582393646,0.006711606867611408
1771956714077084400,1.65008447265625,0.0033315131440758705,0.009982585906982422,0.0011778112966567278
1771956714097047300,1.67004736328125,-0.0011301846243441105,-0.0035596233792603016,0.00134941004216671
1771956714117010400,1.690010498046875,0.0014492718037217855,-0.0013483837246894836,-0.0018090115627273917
1771956714136973300,1.709973388671875,-0.00009351735934615135,-0.004217165522277355,-0.003403611481189728
1771956714156936400,1.7299365234375,0.0009251565206795931,-0.004881067201495171,-0.0034678946249186993
1771956714176900400,1.749900390625,0.00016019446775317192,-0.0006220280192792416,-0.002392636612057686
1771956714196863500,1.769863525390625,-0.001091675367206335,0.005952115170657635,0.004738737363368273
1771956714216826400,1.789826416015625,-0.0013094819150865078,0.006577742286026478,0.004013090394437313
1771956714236789200,1.809789306640625,0.00018000416457653046,0.009634226560592651,0.005475533194839954
1771956714256752000,1.829752197265625,0.0019265289884060621,0.010762428864836693,0.00634422991424799
1771956714276715300,1.84971533203125,0.00033275410532951355,0.0075322361662983894,0.005717334803193808
1771956714296678400,1.869678466796875,-0.0006645997054874897,-0.0016862954944372177,0.004271771293133497
1771956714316642300,1.889642333984375,0.0007294639945030212,0.0007001375779509544,0.006260986905544996
1771956714336605200,1.909605224609375,-0.002278855536133051,0.002165752463042736,0.005170919466763735
1771956714356568300,1.929568359375,-0.0024607107043266296,0.0007241144776344299,0.0011169030331075191
1771956714376531500,1.949531494140625,0.00027567800134420395,0.004212245345115662,0.006442727986723185
1771956714396494300,1.969494384765625,-0.001420485321432352,0.004326391499489546,0.0025078461039811373
1771956714416457500,1.98945751953125,-0.0002501527778804302,-0.004290360026061535,-0.0013034557923674583
1771956714436420400,2.00942041015625,-0.00007690535858273506,0.001066913828253746,-0.0025217088405042887
1771956714456384500,2.029384521484375,-0.0004752730019390583,0.003685944713652134,-0.0008506794692948461
1771956714476347400,2.049347412109375,-0.00009282166138291359,0.005039800424128771,-0.0022483584471046925
1771956714496310300,2.069310302734375,-0.00033215899020433426,0.008357017301023006,0.0028802696615457535
1771956714516273200,2.089273193359375,-0.0016215583309531212,0.00533128809183836,0.006231718230992556
1771956714536236300,2.109236328125,0.0016104115638881922,0.003439034800976515,0.004659225698560476
1771956714556199400,2.129199462890625,0.000351897906512022,0.0020077922381460667,0.008185907267034054
1771956714576162000,2.149162109375,-0.0004963190294802189,0.0024448432959616184,0.0019468186656013131
1771956714596126200,2.169126220703125,-0.0016369521617889404,-0.0018389974720776081,-0.0004908211994916201
1771956714616089000,2.189089111328125,0.0005368650890886784,-0.00015671364963054657,-0.0032154787331819534
1771956714636052200,2.20905224609375,-0.0009360695257782936,0.0031158560886979103,0.005322580225765705
1771956714656015000,2.22901513671875,-0.0035320366732776165,0.009767228737473488,0.008518334478139877
1771956714675978200,2.248978271484375,-0.001257205381989479,0.005266290623694658,0.003441703040152788
1771956714695941000,2.268941162109375,-0.00031018396839499474,-0.006363056134432554,-0.004308579955250025
1771956714715904300,2.288904296875,-0.0006563961505889893,-0.008371224626898766,-0.0029956898652017117
1771956714735868200,2.3088681640625,0.0014968516770750284,-0.0014908197335898876,-0.0021898564882576466
1771956714755831300,2.328831298828125,0.0006659454666078091,-0.0005374080501496792,-0.0013797228457406163
1771956714775794200,2.348794189453125,0.0006223509553819895,-0.004528971388936043,-0.003602751065045595
1771956714795757300,2.36875732421875,-7.059425115585327e-7,-0.0032803001813590527,-0.0017808564007282257
1771956714815720200,2.38872021484375,-0.0018829661421477795,-0.0005246247164905071,-0.00006145809311419725
1771956714835683000,2.40868310546875,-0.0008608857169747353,0.002534084487706423,0.0015752071049064398
1771956714855646200,2.428646240234375,-0.0004935534670948982,-0.00029645999893546104,-0.0018089106306433678
1771956714875610000,2.448610107421875,0.00010432535782456398,-0.0006577312014997005,-0.004715000744909048
1771956714895573200,2.4685732421875,0.002992933616042137,0.003147213254123926,-0.00037593842716887593
1771956714915536100,2.4885361328125,-0.001316203735768795,0.007534565404057503,0.003191706957295537
1771956714935499300,2.508499267578125,0.003521120408549905,0.006925035268068314,0.006970618385821581
1771956714955462100,2.528462158203125,-0.0010016034357249737,0.0030919816344976425,0.0039335270412266254
1771956714975425300,2.54842529296875,0.0021677850745618343,-0.002402291167527437,-0.0016298326663672924
1771956714995388200,2.56838818359375,-0.0010619754903018475,-0.0018126321956515312,-0.0017893785843625665
1771956715015352300,2.588352294921875,-0.0007596244104206562,0.0011161747388541698,0.0014242189936339855
1771956715035315200,2.608315185546875,-0.0014349608682096004,-0.000691115390509367,-0.0008396209450438619
1771956715055278300,2.6282783203125,-0.000316085759550333,-0.004322086460888386,0.0034085663501173258
1771956715075241200,2.6482412109375,-0.0014063837006688118,-0.002544958610087633,-0.0011129487538710237
1771956715095204000,2.6682041015625,0.0010162126272916794,0.0009762891568243504,0.003489081282168627
1771956715115167200,2.688167236328125,-0.0007171975448727608,0.0008603734895586967,0.0013458826579153538
1771956715135131100,2.708131103515625,-0.0003272281028330326,0.0030094063840806484,0.0012598235625773668
1771956715155094300,2.72809423828125,0.0014705080538988113,0.0029427167028188705,0.0032067210413515568
1771956715175057200,2.74805712890625,-0.001810342539101839,0.0021145842038094997,-0.00003473891410976648
1771956715195020300,2.768020263671875,-0.00009885290637612343,-0.00120590440928936,0.002277342602610588
1771956715214983200,2.787983154296875,0.003485781839117408,-0.01044118870049715,-0.005868036299943924
1771956715234946300,2.8079462890625,-0.0011386945843696594,-0.015770018100738525,-0.010119912214577198
1771956715254909200,2.8279091796875,0.0005675926804542542,-0.004178344272077084,-0.009030412882566452
1771956715274873300,2.847873291015625,0.0005110930651426315,0.0010091755539178848,-0.002515320898965001
1771956715294836200,2.867836181640625,0.0029121991246938705,-0.0012909960933029652,-0.0013491226127371192
1771956715314799400,2.88779931640625,-0.000849536620080471,0.003865244332700968,0.003088022116571665
1771956715334762200,2.90776220703125,-0.0011749137192964554,0.007055402267724276,0.0032646027393639088
1771956715354725000,2.92772509765625,0.0015585366636514664,0.008010797202587128,0.005968126934021711
1771956715374688300,2.947688232421875,0.0006705750711262226,-0.005906332284212112,0.0033354819752275944
1771956715394651100,2.967651123046875,0.003219260834157467,-0.005629964638501406,-0.0013872543349862099
1771956715414615000,2.987614990234375,-0.0035103405825793743,0.009860234335064888,0.0018306788988411427
1771956715434578200,3.007578125,0.0003332970663905144,0.0105730090290308,0.00545751117169857
1771956715454541300,3.027541259765625,-0.00031235627830028534,0.005811121314764023,0.0034035546705126762
1771956715474504200,3.047504150390625,0.0015775870997458696,-0.003549245186150074,0.0013125804252922535
1771956715494467300,3.06746728515625,-0.0003871303051710129,-0.00443984055891633,0.00022610172163695097
1771956715514430200,3.08743017578125,0.0003675278276205063,0.00039354758337140083,0.003113322425633669
1771956715534393300,3.107393310546875,0.00005698297172784805,-0.003856763243675232,0.0007570093730464578
1771956715554357200,3.127357177734375,-0.0006804871372878551,-0.002292207907885313,-0.00006037997081875801
1771956715574320400,3.1473203125,-0.00032147346064448357,-0.0035510584712028503,0.0002766756806522608
1771956715594283300,3.167283203125,-0.0003018667921423912,-0.000247415155172348,0.0008473131456412375
1771956715614246400,3.187246337890625,0.0012099472805857658,0.0013389266096055508,0.002712529618293047
1771956715634209300,3.207209228515625,-0.0010692267678678036,0.0035700714215636253,0.003466404974460602
1771956715654172400,3.22717236328125,-0.0004897420294582844,0.003689887933433056,0.0028497176244854927
1771956715674135600,3.247135498046875,0.0008042049594223499,0.007019775919616222,0.0021155234426259995
1771956715694099500,3.267099365234375,0.0015859855338931084,0.0021136398427188396,-0.0009660948999226093
1771956715714062300,3.287062255859375,0.00048360018990933895,-0.0019150786101818085,0.0011672365944832563
1771956715734025200,3.307025146484375,-0.001463599968701601,-0.0004861378110945225,0.002398010343313217
1771956715753988400,3.32698828125,-0.00034521520137786865,0.0007200688123703003,-0.000545507064089179
1771956715773951200,3.346951171875,-0.00018755625933408737,-0.0030712075531482697,-0.0016776168486103415
1771956715793914400,3.366914306640625,-0.002201357390731573,-0.0009406963363289833,0.0005098158726468682
1771956715813878300,3.386878173828125,-0.002437196671962738,0.0026399921625852585,0.0002612293465062976
1771956715833841400,3.40684130859375,-0.0008202511817216873,0.005861996673047543,0.0024861739948391914
1771956715853804300,3.42680419921875,0.0016109645366668701,-0.002904717344790697,-0.0007604372221976519
1771956715873767400,3.446767333984375,0.0008483156561851501,-0.005476017016917467,0.0012922395253553987
1771956715893730300,3.466730224609375,0.0006270683370530605,-0.002899185288697481,-0.0008489289321005344
1771956715913693400,3.486693359375,-0.0006126402877271175,0.00214781379327178,0.001063524978235364
1771956715933656600,3.506656494140625,-0.0010147225111722946,0.0021957261487841606,0.0026801209896802902
1771956715953620500,3.526620361328125,0.0023252246901392937,0.002657904289662838,0.0009307264117524028
1771956715973583400,3.546583251953125,-0.002153777051717043,0.0030631511472165585,0.0031274710781872272
1771956715993546200,3.566546142578125,0.00007031671702861786,0.0013288231566548347,0.0005030035972595215
1771956716013509400,3.58650927734375,-0.00015873508527874947,-0.005568523425608873,-0.004793390166014433
1771956716033472300,3.60647216796875,-0.0006558038294315338,-0.003863747464492917,-0.0021193362772464752
1771956716053435400,3.626435302734375,-0.0010106605477631092,0.002300344407558441,0.0022074265871196985
1771956716073398300,3.646398193359375,0.0011267089284956455,0.0008278144523501396,0.00122510374058038
1771956716093362400,3.666362548828125,0.00026339711621403694,0.002161327749490738,-0.0016079884953796864
1771956716113325300,3.6863251953125,-0.0014061997644603252,0.0006558867171406746,-0.0015531403478235006
1771956716133288400,3.706288330078125,-0.0010827071964740753,0.0028162593953311443,0.004536531399935484
1771956716153251300,3.726251220703125,-0.000007241498678922653,0.00019649090245366096,0.0010562250390648842
1771956716173214500,3.74621435546875,0.00022587087005376816,-0.013228521682322025,-0.0063697462901473045
1771956716193177300,3.76617724609375,0.000034815166145563126,-0.014675185084342957,-0.010100477375090122
1771956716213141500,3.7861416015625,0.0013123967219144106,-0.006439642980694771,-0.005493365228176117
1771956716233104100,3.806104248046875,0.0007881426718086004,-0.004385366104543209,-0.0032349787652492523
1771956716253067300,3.8260673828125,0.0003067445941269398,-0.003746731672435999,0.00004558125510811806
1771956716273030400,3.846030517578125,-0.0007501542568206787,-0.004334654659032822,-0.002891557291150093
1771956716292993300,3.8659931640625,0.000003938097506761551,-0.005572027526795864,-0.0029833228327333927
1771956716312956400,3.885956298828125,-0.0005433233454823494,0.0012383880093693733,0.0007230244809761643
1771956716332919300,3.905919189453125,-0.0004887641407549381,0.005442453548312187,-0.0015441245632246137
1771956716352883500,3.925883544921875,0.0012505138292908669,0.009427540004253387,0.006553863175213337
1771956716372846300,3.945846435546875,0.00018538115546107292,0.0056182220578193665,0.0012519281590357423
1771956716392809500,3.9658095703125,0.0006523297633975744,0.005295068956911564,0.0033024223521351814
1771956716412772400,3.9857724609375,-0.0005161967128515244,0.0032767881639301777,0.004633431788533926
1771956716432735500,4.005735595703125,0.0012780660763382912,0.0015036128461360931,0.00005999801214784384
1771956716452698000,4.025697998046875,-0.0011938954703509808,0.00004700152203440666,-0.0015088312793523073
1771956716472661200,4.0456611328125,0.0004749877844005823,-0.005713811609894037,-0.00489739840850234
1771956716492625000,4.065625,-0.0023315977305173874,-0.00034596165642142296,-0.001290500513277948
1771956716512588000,4.085588134765625,0.0012233611196279526,0.0009532151743769646,0.0004027110990136862
1771956716532551200,4.10555126953125,-0.0025115362368524075,0.003618919290602207,0.0005194063996896148
1771956716552514000,4.12551416015625,-0.0005560158751904964,-0.004871170036494732,-0.0035873018205165863
1771956716572477200,4.145477294921875,-0.0004695393145084381,-0.007127958349883556,-0.0025091534480452538
1771956716592440000,4.165440185546875,-0.0002671079710125923,0.0005617905408143997,-0.004982392303645611
1771956716612403000,4.18540283203125,0.0016759175341576338,0.00390547513961792,0.00007039750926196575
1771956716632366800,4.205366943359375,-0.0025490163825452328,0.009267088025808334,0.0029455851763486862
1771956716652330000,4.225330078125,-0.002204772550612688,0.006470631808042526,0.0026997365057468414
1771956716672292900,4.24529296875,-0.000025292858481407166,0.00046385498717427254,0.0014237280702218413
1771956716692256000,4.265256103515625,0.0015069411601871252,-0.002163293305784464,0.002102908678352833
1771956716712219000,4.285218994140625,0.0007724326569586992,-0.0019428525120019913,-0.002301046857610345
1771956716732182000,4.30518212890625,0.002597970888018608,-0.0020606499165296555,0.0006321845576167107
1771956716752146000,4.32514599609375,-0.0006014462560415268,0.003117067739367485,-0.00031163980020210147
1771956716772109000,4.345109130859375,-0.0010174266062676907,0.0005115941166877747,-0.0003572413697838783
1771956716792072000,4.365072021484375,-0.002172832377254963,0.0020012715831398964,0.0012477937852963805
1771956716812035000,4.38503515625,0.0004850816912949085,0.000575303565710783,-0.0009465243201702833
1771956716831998200,4.404998291015625,0.00007259659469127655,-0.0008289124816656113,0.001339952228590846
1771956716851960800,4.4249609375,0.0006546126678586006,-0.001879021991044283,0.00025534722954034805
1771956716871924000,4.444924072265625,-0.0010941801592707634,-0.0030547394417226315,-0.001835614093579352
1771956716891887900,4.464887939453125,0.00001283455640077591,-0.0017018280923366547,-0.0005044005229137838
1771956716911851000,4.48485107421875,-0.00038190046325325966,-0.0024373242631554604,-0.0007290187058970332
1771956716931814000,4.50481396484375,-0.0002902103587985039,-0.003502433653920889,0.0012642178917303681
1771956716951777000,4.524777099609375,0.0020072399638593197,-0.005606743507087231,-0.0036363820545375347
1771956716971740000,4.544739990234375,0.00022757891565561295,-0.0036653338465839624,-0.0018732784083113074
1771956716991703000,4.564703125,0.001323237083852291,0.0005278480239212513,0.0007024400401860476
1771956717011667000,4.5846669921875,-0.0010245651938021183,0.0016649826429784298,0.000817313208244741
1771956717031630000,4.604630126953125,-0.003095252439379692,0.004195012152194977,0.0012505089398473501
1771956717051593000,4.624593017578125,0.0007199542596936226,0.002239538822323084,-0.0032001915387809277
1771956717071556000,4.64455615234375,0.0006163336802273989,-0.0023107207380235195,0.0017230153316631913
1771956717091519200,4.664519287109375,0.0008915644139051437,0.0017961487174034119,0.004553133621811867
1771956717111481900,4.68448193359375,-0.00013714563101530075,0.0015970640815794468,0.0021676230244338512
1771956717131445000,4.704445068359375,-0.001422623172402382,0.000921136699616909,0.003383534960448742
1771956717151409000,4.724408935546875,0.000747528625652194,0.002029234543442726,0.0014940350083634257
1771956717171372000,4.7443720703125,0.0006376453675329685,0.00462037930265069,-0.0030097761191427708
1771956717191335000,4.7643349609375,0.00026545068249106407,0.0043897926807403564,0.0023346422240138054
1771956717211298000,4.784298095703125,0.0009620666969567537,0.0023426543921232224,0.0044441865757107735
1771956717231261000,4.804260986328125,0.00010667974129319191,0.0024105049669742584,-0.00010776356793940067
1771956717251224000,4.82422412109375,-0.0014947718009352684,-0.00005309097468852997,0.0001058740308508277
1771956717271187000,4.84418701171875,0.00019141752272844315,-0.00036638975143432617,-0.0001991906901821494
1771956717291151000,4.864151123046875,-0.00013590417802333832,0.0009650965221226215,-0.0013937816256657243
1771956717311114000,4.884114013671875,-0.001165749505162239,0.0032837637700140476,0.00032710458617657423
1771956717331077000,4.9040771484375,-0.0004667704924941063,0.0010842503979802132,0.0005019960226491094
1771956717351040000,4.9240400390625,-0.00003175390884280205,0.001329708844423294,-0.000424757890868932
1771956717371003000,4.9440029296875,-0.000024052336812019348,-0.0010971357114613056,-0.0005690491525456309
1771956717390966000,4.963966064453125,0.0014935072977095842,-0.0006996197625994682,-0.0007506752153858542
1771956717410930000,4.983929931640625,0.001269480912014842,0.0021942565217614174,0.0017313201678916812
1771956717430893000,5.00389306640625,0.0008145507890731096,0.003916874993592501,-0.0010771972592920065
1771956717450856000,5.02385595703125,-0.002492601051926613,0.002043101005256176,-0.003139433218166232
1771956717470819000,5.043819091796875,0.0004335183184593916,0.00009950855746865273,-0.0008878182852640748
1771956717490782200,5.0637822265625,-0.004632252734154463,0.00047832168638706207,0.0018593722488731146
1771956717510745300,5.083745361328125,0.0005248601082712412,-0.0024964292533695698,-0.0012448084307834506
1771956717530709200,5.103709228515625,0.0005472281482070684,0.0003721383400261402,0.00028054637368768454
1771956717550672400,5.12367236328125,-0.0014614867977797985,0.0034466125071048737,-0.0009269795846194029
1771956717570635300,5.14363525390625,0.0018780468963086605,0.0008924258872866631,0.0014643133617937565
1771956717590598400,5.163598388671875,-0.0010782633908092976,-0.0004436494782567024,-0.00003179360646754503
1771956717610561300,5.183561279296875,-0.0007038246840238571,-0.0036784131079912186,-0.0014567844336852431
1771956717630524200,5.203524169921875,0.0005165403708815575,-0.006105188280344009,-0.002530548023059964
1771956717650487300,5.2234873046875,0.0003620642237365246,-0.002061616163700819,-0.00012496591079980135
1771956717670451200,5.243451171875,0.001584566431120038,0.001752863172441721,0.0022139877546578646
1771956717690414000,5.2634140625,0.000815617386251688,0.005075183231383562,-0.0010107343550771475
1771956717710377200,5.283377197265625,0.0012929362710565329,0.0023708376102149487,-0.0034153047017753124
1771956717730340400,5.30334033203125,-0.0015552295371890068,-0.003934685606509447,-0.00012866320321336389
1771956717750303200,5.32330322265625,0.0012495382688939571,0.003388191107660532,0.0004756576381623745
1771956717770266400,5.343266357421875,-0.0013792924582958221,-0.001726753544062376,0.0012517706491053104
1771956717790230300,5.363230224609375,0.0008960501290857792,-0.0021991729736328125,-0.000511298596393317
1771956717810193400,5.383193359375,0.0008979225531220436,0.00008251192048192024,-0.0007155535276979208
1771956717830156300,5.40315625,-0.0002428041771054268,0.0001360415481030941,0.0010002106428146362
1771956717850119400,5.423119384765625,0.0005567127373069525,0.0033588875085115433,0.002470924984663725
1771956717870082300,5.443082275390625,0.0006169106345623732,-0.0004372596740722656,0.0003401368157938123
1771956717890045200,5.463045166015625,0.0009405631572008133,-0.0056743319146335125,-0.0014725056244060397
1771956717910008300,5.48300830078125,-0.001310582272708416,-0.004665852524340153,-0.0013898247852921486
1771956717929972200,5.50297216796875,-0.0002012043260037899,0.0017222026363015175,-0.002529420889914036
1771956717949935000,5.52293505859375,-0.0015814406797289848,-0.00048132240772247314,-0.0005260285106487572
1771956717969898200,5.542898193359375,0.0010769127402454615,0.002694695256650448,-0.00041528267320245504
1771956717989861400,5.562861328125,-0.0002621482126414776,0.00041089626029133797,0.001323580276221037
1771956718009824300,5.58282421875,0.0010384258348494768,-0.0012184851802885532,0.001097336644306779
1771956718029787400,5.602787353515625,-0.0025892104022204876,-0.0005394215695559978,0.0014996930258348584
1771956718049751300,5.622751220703125,-0.0008840952068567276,-0.0002593947574496269,0.0024833292700350285
1771956718069714400,5.64271435546875,-0.0036413874477148056,0.0024078465066850185,0.001964519266039133
1771956718089677300,5.66267724609375,0.00015488546341657639,0.0035971123725175858,0.0007226256420835853
1771956718109640400,5.682640380859375,0.0006576830055564642,0.001714375801384449,0.0009189522825181484
1771956718129603000,5.70260302734375,-0.0005386578850448132,0.003507896326482296,0.002672396833077073
1771956718149566200,5.722566162109375,0.0005749927368015051,0.00022716494277119637,-0.0014563505537807941
1771956718169529000,5.742529052734375,-0.00026941439136862755,-0.002361530903726816,-0.00008080474799498916
1771956718189493200,5.7624931640625,0.000440685311332345,0.00318340165540576,-0.00006078172009438276
1771956718209456000,5.7824560546875,-0.0014085210859775543,0.0044158101081848145,0.0008172818925231695
1771956718229419300,5.802419189453125,0.001685241935774684,0.0013961545191705227,-0.001478682504966855
1771956718249382100,5.822382080078125,0.0016099864151328802,0.00010730559006333351,-0.0022563966922461987
1771956718269345300,5.84234521484375,-0.0009482065215706825,-0.001436237245798111,0.0006456869887188077
1771956718289308400,5.862308349609375,0.0016158276703208685,-0.0017867782153189182,0.002191095845773816
1771956718309272300,5.882272216796875,-0.0013536647893488407,-0.002110952977091074,-0.0029189749620854855
1771956718329235200,5.902235107421875,-0.000644780695438385,-0.0016408194787800312,0.00036434654612094164
1771956718349198300,5.9221982421875,0.0001230994239449501,-0.0008225501514971256,-0.0026065753772854805
1771956718369161500,5.942161376953125,0.0029353180434554815,-0.001981386449187994,-0.00017253239639103413
1771956718389124000,5.9621240234375,0.0019380934536457062,0.0020521176047623158,0.002491605468094349
1771956718409087200,5.982087158203125,0.0010269333142787218,-0.0015271026641130447,0.0021390835754573345
1771956718429050000,6.002050048828125,-0.0012839618138968945,0.0011238590814173222,0.0014840996591374278
1771956718449014300,6.02201416015625,-0.0004744068719446659,-0.003205495420843363,-0.0035761334002017975
1771956718468977200,6.04197705078125,0.00008803606033325195,-0.0016460767947137356,0.000530012184754014
1771956718488940800,6.06194091796875,0.0005481713451445103,0.0014564627781510353,0.0013126397971063852
1771956718508903700,6.081903564453125,-0.0017274469137191772,0.0018984358757734299,0.0013819575542584062
1771956718528866800,6.10186669921875,0.004210084211081266,-0.0004473710432648659,-0.0007069279090501368
1771956718548829700,6.12182958984375,0.0013919402845203876,-0.0016132686287164688,0.0005214258562773466
1771956718568793900,6.1417939453125,-0.0006936541758477688,-0.004728600382804871,0.0008600740693509579
1771956718588756700,6.1617568359375,-0.0017375578172504902,-0.0017008357681334019,-0.0033768084831535816
1771956718608720000,6.181719970703125,0.00031036417931318283,-0.0004050182178616524,-0.0030134625267237425
1771956718628682800,6.201682861328125,-0.00031476933509111404,0.003595057874917984,0.00020258815493434668
1771956718648646000,6.22164599609375,0.0010390044189989567,0.004593443125486374,0.0024309135042130947
1771956718668608800,6.24160888671875,0.00021367566660046577,-0.0005685617215931416,0.0004942934028804302
1771956718688572700,6.26157275390625,-0.0011829077266156673,-0.002798925619572401,-0.002671310678124428
1771956718708535600,6.28153564453125,0.000019387342035770416,-0.0010418579913675785,0.001817758078686893
1771956718728498700,6.301498779296875,-0.0009006480686366558,-0.001678671222180128,0.0002611184027045965
1771956718748461800,6.3214619140625,0.0025096512399613857,-0.0003876308910548687,0.0012813714565709233
1771956718768424700,6.3414248046875,0.0013343899045139551,-0.0006239134818315506,0.00011945643927901983
1771956718788387800,6.361387939453125,-0.00023572705686092377,-0.0011550327762961388,0.00025211565662175417
1771956718808350700,6.381350830078125,0.0016605996061116457,-0.004374073818325996,0.00004917557816952467
1771956718828315000,6.40131494140625,-0.0013679387047886848,-0.0016618152149021626,0.0016050609992817044
1771956718848277800,6.42127783203125,-0.0011632591485977173,-0.00027020229026675224,0.00039130705408751965
1771956718868241000,6.441240966796875,-0.0007336372509598732,0.0008023581467568874,-0.0003722104011103511
1771956718888203800,6.461203857421875,0.0013595940545201302,0.0006051980890333652,-0.000982203520834446
1771956718908166700,6.481166748046875,0.0008708992972970009,0.000011218246072530746,-0.001579400384798646
1771956718928129800,6.5011298828125,-0.00005462067201733589,-0.0015488537028431892,-0.0018189146649092436
1771956718948093700,6.52109375,0.002969327149912715,-0.0038030031137168407,-0.0004488896229304373
1771956718968056600,6.541056640625,-0.000743513461202383,-0.0040716733783483505,-0.0025834888219833374
1771956718988019700,6.561019775390625,0.003677741624414921,-0.0010100780054926872,-0.003020195523276925
1771956719007982800,6.58098291015625,-0.0003287089057266712,0.002192906104028225,-0.0008196946000680327
1771956719027945700,6.60094580078125,-0.000002207700163125992,0.0033101886510849,0.0026796343736350536
1771956719047908900,6.620908935546875,0.0010558445937931538,0.011177405714988708,0.002660268684849143
1771956719067872800,6.640872802734375,0.000855013495311141,-0.004682215861976147,-0.0055348132736980915
1771956719087836000,6.6608359375,0.0018200923223048449,-0.0019590044394135475,-0.002426647813990712
1771956719107798800,6.680798828125,-0.0005480046384036541,0.0008755945600569248,-0.004779369104653597
1771956719127762000,6.700761962890625,0.0006103881169110537,0.0012303618714213371,-0.0034939520992338657
1771956719147724800,6.720724853515625,-0.0029589496552944183,0.0034636552445590496,0.001854298752732575
1771956719167687700,6.740687744140625,-0.00019376492127776146,-0.0014358479529619217,-0.004177735187113285
1771956719187651800,6.76065185546875,0.0010419143363833427,-0.001603430137038231,-0.001136291422881186
1771956719207614700,6.78061474609375,0.0006771760527044535,-0.002894796896725893,-0.001942696631886065
1771956719227577600,6.80057763671875,-0.0009083552286028862,-0.00799668300896883,-0.0010397713631391525
1771956719247540700,6.820540771484375,-0.001007679384201765,-0.003449446987360716,-0.0012814595829695463
1771956719267503600,6.840503662109375,0.0008300503250211477,-0.0007500504143536091,-0.0024723378010094166
1771956719287466800,6.860466796875,-0.0014557400718331337,0.0015986436046659946,-0.0013036775635555387
1771956719307430000,6.880429931640625,0.0015984824858605862,0.0018607843667268753,-0.001140718231908977
1771956719327393800,6.900393798828125,-0.0003037252463400364,-0.001576179638504982,-0.0026322149205952883
1771956719347356700,6.920356689453125,-0.00028532184660434723,-0.0027571115642786026,0.0015804622089490294
1771956719367319800,6.94031982421875,0.001555114984512329,-0.0022718142718076706,-0.00044078181963413954
1771956719387283000,6.960282958984375,0.00000339653342962265,0.0012890123762190342,0.000010444666258990765
1771956719407245800,6.980245849609375,0.0003424803726375103,0.0032062302343547344,0.0014532303903251886
1771956719427208700,7.000208740234375,0.0005081985145807266,0.00348075944930315,0.0006563090719282627
1771956719447172600,7.020172607421875,-0.0008893227204680443,0.0032696560956537724,-0.000731211039237678
1771956719467135700,7.0401357421875,0.0037354875821620226,0.00013925740495324135,0.0008590401848778129
1771956719487098600,7.0600986328125,-0.000036160461604595184,-0.0019114883616566658,-0.002599680330604315
1771956719507061200,7.080061279296875,-0.002109366003423929,-0.004843827337026596,-0.0027791450265794992
1771956719527024000,7.100024169921875,-0.0013202237896621227,-0.0001123948022723198,-0.0005636956775560975
1771956719546987000,7.119987060546875,-0.0002509457990527153,0.0010570506565272808,-0.0022937809117138386
1771956719566951000,7.139950927734375,-0.0003762217238545418,0.001370101235806942,-0.0015042710583657026
1771956719586914000,7.1599140625,0.0006138095632195473,-0.0021314918994903564,0.0009644966339692473
1771956719606877200,7.179877197265625,-0.00013117492198944092,-0.003853491973131895,0.0016927876276895404
1771956719626840000,7.199840087890625,-0.0013044411316514015,-0.0011087949387729168,0.000618189456872642
1771956719646803200,7.21980322265625,0.0018059187568724155,-0.000771750696003437,0.0009346080478280783
1771956719666766000,7.23976611328125,-0.002584830392152071,0.000026355963200330734,-0.0005887584993615746
1771956719686729200,7.259729248046875,0.0009595155715942383,0.0016772672533988953,0.0002833897015079856
1771956719706693000,7.279693115234375,-0.0005061686970293522,0.0011767642572522163,-0.0016759721329435706
1771956719726656300,7.29965625,-0.0011665420606732368,-0.0010242955759167671,0.001458107028156519
1771956719746619100,7.319619140625,0.0006573658902198076,-0.0018941611051559448,0.00007760291919112206
1771956719766582300,7.339582275390625,-0.004358052276074886,-0.00032848864793777466,0.00011254195123910904
1771956719786545200,7.359545166015625,-0.0011993595398962498,-0.0015108203515410423,-0.0025797728449106216
1771956719806508000,7.379508056640625,-0.0008707032538950443,0.0022697080858051777,-0.0021257558837532997
1771956719826472000,7.399471923828125,0.00035300012677907944,0.002069145906716585,-0.0011781026842072606
1771956719846435000,7.41943505859375,-0.00010676681995391846,0.0005503115244209766,-0.0023055942729115486
1771956719866398200,7.439398193359375,0.00012173550203442574,-0.0023912708275020123,0.0008369849529117346
1771956719886361000,7.459361083984375,-0.00019669858738780022,-0.001237872987985611,0.0007902915822342038
1771956719906324200,7.47932421875,-0.001064480748027563,0.00007846765220165253,0.00023654592223465443
1771956719926287000,7.499287109375,-0.0004075407050549984,0.00017837947234511375,0.00034465722274035215
1771956719946251300,7.519251220703125,-0.0004552723839879036,0.0008953455835580826,0.00006740912795066833
1771956719966214100,7.539214111328125,-0.0008111093193292618,0.0028969249688088894,0.0008902609115466475
1771956719986177300,7.55917724609375,0.0005857571959495544,0.0020245257765054703,0.0022208411246538162
1771956720006140200,7.57914013671875,-0.0008482523262500763,-0.0017908303998410702,0.0012648931005969644
1771956720026103000,7.59910302734375,0.001451040618121624,-0.0013865455985069275,-0.0003520906902849674
1771956720046066000,7.61906591796875,0.0014220122247934341,-0.001845408696681261,-0.00020295369904488325
1771956720066030000,7.639030029296875,0.0009646669495850801,0.0016920855268836021,0.0014637402491644025
1771956720085993000,7.658992919921875,0.00003102049231529236,0.004419240169227123,-0.0019134500762447715
1771956720105956000,7.6789560546875,-0.0014942935667932034,0.002276013605296612,-0.0004021321074105799
1771956720125919000,7.6989189453125,-0.0013663587160408497,-0.0015856814570724964,-0.001472596311941743
1771956720145882000,7.718882080078125,0.00010317331179976463,0.0003123534843325615,0.00046085857320576906
1771956720165845200,7.73884521484375,-0.002363915089517832,-0.0010553435422480106,0.0008060660911723971
1771956720185809200,7.75880908203125,-0.0023088515736162663,-0.0006280089728534222,0.0013903017388656735
1771956720205772300,7.778772216796875,0.0007437050808221102,-0.00044112373143434525,-0.0010599589440971613
1771956720225735200,7.798735107421875,-0.0004664151929318905,0.003011157736182213,0.001071800827048719
1771956720245698300,7.8186982421875,0.0021383799612522125,0.0024540936574339867,0.0018320197705179453
1771956720265661200,7.8386611328125,0.00032114190980792046,0.001649441197514534,0.00020335707813501358
1771956720285624000,7.8586240234375,-0.001661681104451418,0.00009574322029948235,0.0014256699942052364
1771956720305588200,7.878588134765625,0.0010054328013211489,-0.001986247021704912,0.0004846614319831133
1771956720325551000,7.898551025390625,-0.00016017397865653038,0.0007150755263864994,-0.0005912912893109024
1771956720345514000,7.918513916015625,-0.0006597219035029411,-0.0005244025960564613,0.0009123425697907805
1771956720365477000,7.93847705078125,0.002035483019426465,0.00043727271258831024,0.0008612197125330567
1771956720385440000,7.95843994140625,0.002513827756047249,-0.0008770665153861046,0.0002671821275725961
1771956720405403100,7.978403076171875,0.00041136262007057667,-0.0024238210171461105,0.000396689516492188
1771956720425367000,7.998366943359375,-0.0006279079243540764,-0.0014512687921524048,0.0007440566550940275
1771956720445330200,8.018330078125,-0.00010877475142478943,-0.0009696404449641705,-0.002511963015422225
1771956720465293000,8.03829296875,-0.0015246537514030933,-0.0010574650950729847,0.00026046240236610174
1771956720485256200,8.058256103515625,-0.0004962626844644547,0.0007285368628799915,-0.0006599521148018539
1771956720505219300,8.07821923828125,-0.0003624516539275646,0.0014478913508355618,-0.0005694274441339076
1771956720525182200,8.09818212890625,0.0006593633443117142,0.00004621781408786774,0.0012326688738539815
1771956720545145300,8.118145263671876,0.000556976068764925,-0.0013811509124934673,0.0025839307345449924
1771956720565109200,8.138109130859375,-0.001360028050839901,-0.0014210548251867294,0.00046377512626349926
1771956720585072400,8.158072265625,0.0002007531002163887,-0.0012459736317396164,-0.000633635267149657
1771956720605035300,8.17803515625,0.0010845484212040901,0.0018676463514566422,-0.0007626313017681241
1771956720624998400,8.197998291015624,0.00022960733622312546,0.004372709896415472,0.0014329293044283986
1771956720644961000,8.2179609375,-0.00023736432194709778,0.0009859884157776833,-0.002106710337102413
1771956720664924200,8.237924072265624,0.0009248792193830013,0.0004184730350971222,-0.0006392739014700055
1771956720684888000,8.25788818359375,0.00014168303459882736,-0.0009326478466391563,-0.0006521606119349599
1771956720704851200,8.277851318359374,-0.0011443211697041988,-0.0018271361477673054,-0.0003773485077545047
1771956720724814000,8.29781396484375,-0.00022895261645317078,-0.0025722775608301163,0.00046731322072446346
1771956720744777200,8.317777099609375,0.0006741192191839218,0.0019885036163032055,0.0010923037771135569
1771956720764740400,8.337740234375,-0.0007614805363118649,0.0008147191256284714,0.0005400513764470816
1771956720784703200,8.357703125,-0.001143073197454214,-0.001121879555284977,0.0011486484436318278
1771956720804667100,8.377667236328126,-0.0015803463757038116,-0.0016045421361923218,0.0037274248898029327
1771956720824630300,8.39763037109375,0.00048613199032843113,-0.0007048472762107849,0.0006444377359002829
1771956720844593400,8.417593505859376,-0.0015937909483909607,-0.0030310763977468014,0.0016682986170053482
1771956720864556300,8.437556396484375,-0.000005705282092094421,0.002245803829282522,-0.001285376027226448
1771956720884519200,8.457519287109376,-0.0004792786203324795,0.001638544723391533,-0.0008861992391757667
1771956720904482000,8.47748193359375,-0.00033023953437805176,0.0023758886381983757,-0.0009626587852835655
1771956720924446200,8.4974462890625,-0.00007376354187726974,0.0003804517909884453,0.00020157312974333763
1771956720944409000,8.5174091796875,0.000617987010627985,-0.0037778490222990513,0.0005113998195156455
1771956720964372200,8.537372314453124,0.000599919818341732,0.00022344710305333138,-0.0023351244162768126
1771956720984335000,8.557335205078125,-0.000141071155667305,-0.0011358070187270641,-0.001995130442082882
1771956721004298200,8.57729833984375,-0.00003070756793022156,0.0014316155575215816,0.0020321959163993597
1771956721024261000,8.59726123046875,0.000017348676919937134,0.0035126153379678726,-0.0003013852401636541
1771956721044225300,8.617225341796875,-0.00025306129828095436,0.00047074025496840477,-0.0010121201630681753
1771956721064188200,8.637188232421876,0.0010802475735545158,-0.001524955965578556,0.0019817985594272614
1771956721084151300,8.6571513671875,-0.00044013001024723053,-0.001123462338000536,0.002634497592225671
1771956721104114200,8.6771142578125,-0.001229992602020502,-0.0006339875981211662,-0.0015048990026116371
1771956721124077300,8.697077392578125,0.00017035286873579025,-0.001463466789573431,0.0013085827231407166
1771956721144040200,8.717040283203126,0.001188570400699973,0.0011568092741072178,0.0005478961393237114
1771956721164004400,8.73700439453125,-0.0009827371686697006,0.0030094007961452007,0.0003067923244088888
1771956721183967200,8.75696728515625,-0.00037619657814502716,-0.0006210841238498688,0.0009139305911958218
1771956721203930000,8.77693017578125,-0.0008113798685371876,0.00042795250192284584,0.002267702715471387
1771956721223893200,8.796893310546874,0.0005048320163041353,-0.0016911784186959267,0.0004846639931201935
1771956721243856100,8.816856201171875,-0.0002833330072462559,-0.0015867357142269611,-0.0019905604422092438
1771956721263819300,8.8368193359375,-0.0007405471988022327,0.0009830626659095287,-0.0013951730215921998
1771956721283783200,8.856783203125,-0.0012743636034429073,0.002604416571557522,-0.001173545722849667
1771956721303746300,8.876746337890625,0.0009612359572201967,0.0018321257084608078,0.000643861829303205
1771956721323709200,8.896709228515626,-0.0021632262505590916,0.00012430967763066292,-0.00006838131230324507
1771956721343672300,8.91667236328125,0.0016727629117667675,-0.002710921224206686,0.0007149737793952227
1771956721363635200,8.93663525390625,-0.0003601275384426117,-0.003508171997964382,0.0010050814598798752
1771956721383598300,8.956598388671875,-0.0007276530377566814,0.0006423932500183582,-0.0008820798248052597
1771956721403562200,8.976562255859376,0.0008019697852432728,0.002428061328828335,-0.0015387135790660977
1771956721423525400,8.996525390625,0.0017626842018216848,0.0020003672689199448,-0.0022365995682775974
1771956721443488000,9.016488037109376,0.0011985718738287687,0.0017128810286521912,0.0007456715684384108
1771956721463451100,9.036451171875,-0.0004151291213929653,-0.0008841287344694138,-0.0006414609961211681
1771956721483414300,9.056414306640624,0.0012277073692530394,-0.004355552606284618,-0.0016873162239789963
1771956721503378000,9.0763779296875,0.00034871790558099747,-0.0018024668097496033,-0.001510736532509327
1771956721523341800,9.096341796875,-0.0014040987007319927,0.0012636082246899605,-0.0007360816234722733
1771956721543305000,9.116304931640625,0.00177276530303061,0.0029539531096816063,-0.0008385078399442136
1771956721563267800,9.136267822265625,-0.0018327832221984863,0.0005107303149998188,0.0002502775751054287
1771956721583231000,9.15623095703125,0.0003206874243915081,-0.00019066035747528076,-0.0007699908455833793
1771956721603194000,9.176194091796875,-0.0000021010637283325195,-0.0017147716134786606,-0.000743093085475266
1771956721623157000,9.196156982421876,0.0006017314735800028,-0.001744760200381279,0.0005984188755974174
1771956721643121000,9.216120849609375,0.0009150616824626923,0.0007540518417954445,0.0007196830119937658
1771956721663084000,9.236083984375,0.0009916520211845636,0.0016080164350569248,-0.0010778227588161826
1771956721683047200,9.256047119140625,-0.0024670609273016453,0.0024409820325672626,-0.0009473797981627285
1771956721703010000,9.276010009765624,-0.0008050529286265373,0.001830962486565113,0.002188250422477722
1771956721722973000,9.295972900390625,0.002582825720310211,-0.000051930081099271774,-0.0011062457924708724
1771956721742935800,9.315935791015624,-0.0020192228257656097,-0.0024954862892627716,0.0014595930697396398
1771956721762900000,9.33589990234375,0.00016616424545645714,-0.002381808590143919,-0.0022111907601356506
1771956721782862800,9.35586279296875,-0.00023775221779942513,-0.0019760821014642715,-0.0011699177557602525
1771956721802826000,9.375825927734375,0.0006365692242980003,0.0016936855390667915,-0.0013473358703777194
1771956721822788900,9.395788818359375,-0.0011868132278323174,0.0018817312084138393,-0.0002696844167076051
1771956721842752000,9.415751953125,0.0005067065358161926,0.00043596047908067703,-0.00024201476480811834
1771956721862716000,9.4357158203125,0.0005130369681864977,-0.0022163838148117065,0.0034523680806159973
1771956721882679000,9.455678955078126,0.0005051330663263798,-0.002592766657471657,0.0015782874543219805
1771956721902642000,9.475641845703125,-0.001962969545274973,0.00005621928721666336,-0.0002038066741079092
1771956721922605000,9.49560498046875,0.0013490801211446524,-0.0004930621944367886,-0.0018705811817198992
1771956721942568000,9.51556787109375,0.0013283353764563799,0.00018799398094415665,-0.0005788945127278566
1771956721962530800,9.53553076171875,-0.0003399597480893135,0.0034992084838449955,-0.0015458300476893783
1771956721982494000,9.555493896484375,-0.00092740124091506,0.00216895854100585,0.002060630824416876
1771956722002457900,9.575457763671874,0.0008876158390194178,-0.003713086945936084,0.0007162761176005006
1771956722022421000,9.5954208984375,0.0003252369351685047,-0.0017342986539006233,-0.0003975933068431914
1771956722042384000,9.6153837890625,-0.001250394620001316,-0.00015271641314029694,0.0010390275856480002
1771956722062347000,9.635346923828125,-0.0010810508392751217,0.001192491501569748,0.00043002376332879066
1771956722082310000,9.655309814453124,0.0007887629326432943,0.0029058940708637238,-0.001256204443052411
1771956722102274000,9.675274169921876,0.0015176308806985617,0.0004865732043981552,0.0005746901733800769
1771956722122237000,9.69523681640625,0.00002276431769132614,0.0006988001987338066,-0.00014406914124265313
1771956722142200000,9.715199951171876,0.001214461401104927,-0.0019784923642873764,0.0008255954599007964
1771956722162163000,9.735162841796875,-0.00008159363642334938,-0.0016314242966473103,-0.00009086600039154291
1771956722182126000,9.7551259765625,-0.00271168677136302,-0.00048626866191625595,0.0006894799880683422
1771956722202089000,9.7750888671875,0.0007885689847171307,0.0006182133220136166,0.00012972927652299404
1771956722222053000,9.79505322265625,0.003531444352120161,-0.0005833981558680534,0.0025492277927696705
1771956722242016000,9.81501611328125,-0.002312876284122467,0.0035054353065788746,0.0005675113061442971
1771956722261979000,9.834978759765624,-0.0001575220376253128,-0.0008591283112764359,0.0007114030886441469
1771956722281942000,9.85494189453125,-0.0005990900099277496,-0.0010810792446136475,0.0013338124845176935
1771956722301905000,9.87490478515625,0.00020934315398335457,-0.001901890616863966,-0.00045754219172522426
1771956722321868000,9.894867919921875,0.0003619026392698288,0.0008588354103267193,-0.00136245705652982
1771956722341832000,9.91483203125,0.0004273774102330208,-0.00012578675523400307,0.000018327264115214348
1771956722361795000,9.934795166015626,-0.0017236392013728619,0.002800160087645054,-0.0025684586726129055
1771956722381758000,9.954758056640625,-0.0010961410589516163,0.002418676856905222,-0.00142022711224854
1771956722401721000,9.97472119140625,0.00028215441852808,-0.0010339310392737389,-0.0014319793554022908
1771956722421684000,9.99468408203125,-0.00017631519585847855,-0.0009465934708714485,0.0004220989067107439
1771956722441647000,10.014647216796876,-0.0007708622142672539,-0.0009377580136060715,0.0019500647904351354
1771956722461611000,10.034611083984375,0.001596282236278057,0.0014515849761664867,0.0015411298954859376
1771956722481574100,10.05457421875,-0.0013330606743693352,0.002580399625003338,-0.003510508919134736
1771956722501536300,10.074536376953125,-0.0005742968060076237,0.002328420989215374,-0.00008202099706977606
1771956722521499100,10.0944990234375,0.0006685941480100155,-0.0002842792309820652,-0.002930591581389308
1771956722541462300,10.114462158203125,0.0008081793785095215,-0.002346114721149206,0.0010189538588747382
1771956722561425200,10.134425048828126,-0.001654106192290783,-0.00017893780022859573,-0.0005958186811767519
1771956722581389300,10.154389404296875,0.0010885775554925203,-0.00005539366975426674,0.0015508878277614713
1771956722601352200,10.174352294921874,0.00020970962941646576,0.0020959493704140186,-0.004666357301175594
1771956722621315300,10.1943154296875,0.0006943796761333942,0.0019759461283683777,-0.00042701628990471363
1771956722641278200,10.2142783203125,0.0007219132967293262,0.001540573313832283,-0.0007701221620664
1771956722661241300,10.234241455078125,0.0005624645855277777,0.001263822428882122,0.0008655199781060219
1771956722681205200,10.254205322265625,0.0004556593485176563,-0.0038649572525173426,0.00206000916659832
1771956722701168400,10.27416845703125,0.0006576159503310919,-0.0011763963848352432,-0.0012712832540273666
1771956722721131300,10.29413134765625,0.0004843235947191715,0.0014242944307625294,-0.0026020542718470097
1771956722741094100,10.31409423828125,-0.00037559913471341133,0.0008774120360612869,0.0009319232776761055
1771956722761057000,10.33405712890625,-0.0010265596210956573,0.004242252558469772,-0.0008501473348587751
1771956722781020200,10.354020263671876,0.0008596102707087994,0.0013768840581178665,0.000203009694814682
1771956722800984000,10.373984130859375,0.00030011311173439026,-0.0033918912522494793,0.0011241749161854386
1771956722820947200,10.393947265625,-0.0007236842066049576,0.00004475284367799759,0.00006442901212722063
1771956722840910000,10.41391015625,-0.002728128805756569,0.00015302980318665504,-0.00024100550217553973
1771956722860873200,10.433873291015624,0.0008440078236162663,0.002330227755010128,-0.00014341686619445682
1771956722880836400,10.45383642578125,-0.0013784333132207394,0.0006569875404238701,-0.0026229112409055233
1771956722900799200,10.47379931640625,-0.001222105696797371,0.0015545622445642948,-0.0008033182239159942
1771956722920763100,10.49376318359375,0.0008289453107863665,0.0010695499368011951,-0.0021346909925341606
1771956722940726300,10.513726318359375,-0.0007870607078075409,-0.000009131617844104767,0.0009861723519861698
1771956722960689400,10.533689453125,0.001264758873730898,0.0013176812790334225,0.0011609349166974425
1771956722980652300,10.55365234375,0.0009667335543781519,-0.002261156216263771,-0.0009579400066286325
1771956723000615200,10.573615234375,-0.0014205360785126686,0.002700317185372114,0.0007258247351273894
1771956723020578000,10.593578125,0.0017496729269623756,0.0035283565521240234,0.00032709666993469
1771956723040542200,10.613542236328126,-0.0008042710833251476,-0.00043711019679903984,-0.0005047838785685599
1771956723060505000,10.633505126953125,-0.001481065060943365,-0.0004966785199940205,0.001266723731532693
1771956723080468200,10.65346826171875,-0.0015387721359729767,-0.0012617679312825203,-0.0006421077414415777
1771956723100431000,10.67343115234375,0.000266004353761673,-0.0020933165214955807,-0.00047590944450348616
1771956723120394200,10.693394287109374,-0.0006155753508210182,0.0018759062513709068,-0.0006757507799193263
1771956723140357400,10.713357421875,0.0010248194448649883,0.003353114239871502,0.00019107875414192677
1771956723160321300,10.7333212890625,0.0008216453716158867,0.0003865491598844528,0.0016696458915248513
1771956723180284200,10.7532841796875,-0.0006641908548772335,-0.0008297036401927471,-0.0019812886603176594
1771956723200247300,10.773247314453124,-0.00040723755955696106,-0.0018018363043665886,0.0023858784697949886
1771956723220210400,10.79321044921875,-0.0005958094261586666,-0.0019387700594961643,-0.00045813957694917917
1771956723240173000,10.813173095703124,-0.000514280516654253,-0.000161787960678339,-0.001250271569006145
1771956723260137200,10.83313720703125,-0.000528198666870594,0.002207762561738491,-0.002248323056846857
1771956723280100000,10.85310009765625,0.0006493290420621634,0.004592524375766516,0.0009887856431305408
1771956723300063200,10.873063232421876,0.00007111113518476486,-0.0003204168751835823,0.0006304419366642833
1771956723320026000,10.893026123046875,0.0020324653014540672,0.0020678360015153885,0.000646857195533812
1771956723339989200,10.9129892578125,0.00032572727650403976,-0.003922170959413052,-0.00015029578935354948
1771956723359952100,10.9329521484375,0.00008855108171701431,0.12252991646528244,0.12921513617038727
1771956723379916300,10.952916259765624,-0.002591300755739212,0.05125150829553604,0.0031340683344751596
1771956723399879200,10.972879150390625,-0.004177520517259836,0.011026391759514809,0.0059118978679180145
1771956723419842300,10.99284228515625,0.0031677985098212957,-0.052159570157527924,-0.06495551019906998
1771956723439805200,11.01280517578125,0.0031802128069102764,-0.0333266481757164,-0.024854281917214394
1771956723459768300,11.032768310546874,-0.0009134341962635517,-0.030392533168196678,-0.04646116867661476
1771956723479731200,11.052731201171875,0.002964641433209181,0.01394374668598175,0.016963178291916847
