time,seconds_elapsed,z,y,x
1771956726034731300,0.076731201171875,0.0002650744281709194,0.0053241197019815445,-0.0003129193210043013
1771956726054694100,0.096694091796875,0.00033587636426091194,-0.0027170805260539055,-0.010058555752038956
1771956726074657300,0.1166572265625,0.002292392309755087,-0.0036169965751469135,0.0019300209823995829
1771956726094620000,0.136619873046875,-0.0004303022287786007,0.007456341292709112,0.01222449541091919
1771956726114583000,0.1565830078125,0.0016138418577611446,0.004301551729440689,0.0066325790248811245
1771956726134547000,0.176546875,-0.001549914013594389,0.01455843448638916,0.01824520342051983
1771956726154510000,0.196510009765625,-0.00033594248816370964,0.017630012705922127,0.009422278963029385
1771956726174473000,0.216472900390625,-0.00022741127759218216,-0.03443005308508873,-0.02734513208270073
1771956726194436000,0.23643603515625,0.00030031055212020874,-0.004451151005923748,-0.005945011042058468
1771956726214399000,0.25639892578125,-0.0006664823740720749,-0.010289967060089111,-0.009038334712386131
1771956726234363100,0.276363037109375,0.0005052844062447548,-0.004298825282603502,-0.007616687566041946
1771956726254326000,0.296325927734375,-0.00019549299031496048,0.0003334679640829563,0.005214344710111618
1771956726274289200,0.3162890625,-0.0024180454201996326,0.01185901090502739,0.00778804998844862
1771956726294252000,0.336251953125,0.0006633345037698746,-0.0033370982855558395,-0.004449581261724234
1771956726314215200,0.356215087890625,-0.0010503069497644901,0.0002753683365881443,0.005965102929621935
1771956726334178000,0.376177978515625,0.0017365049570798874,0.005582764744758606,0.0012157999444752932
1771956726354142200,0.39614208984375,0.0004799684975296259,0.004664162173867226,0.0036728684790432453
1771956726374105000,0.41610498046875,0.0022354363463819027,0.0017144381999969482,0.007540566846728325
1771956726394068000,0.43606787109375,-0.0024578901939094067,0.006988776382058859,0.010429499670863152
1771956726414031000,0.456031005859375,0.0009832638315856457,0.00612630695104599,0.005910342559218407
1771956726433994000,0.475993896484375,-0.0011920290999114513,-0.010195046663284302,-0.011699491180479527
1771956726453958100,0.495958251953125,0.0008063632994890213,-0.0027016419917345047,-0.0062853991985321045
1771956726473921000,0.515921142578125,0.0008091304916888475,-0.005946137942373753,-0.005804522894322872
1771956726493884200,0.53588427734375,0.0013164973352104425,-0.002693566959351301,-0.003806821070611477
1771956726513847300,0.555847412109375,-0.0017594355158507824,-0.000834242906421423,0.0005324818775989115
1771956726533810200,0.57581005859375,-0.000899728387594223,0.0016954252496361732,0.001301450189203024
1771956726553774300,0.5957744140625,0.0012089991942048073,0.0013829679228365421,-0.0020705305505543947
1771956726573737200,0.6157373046875,0.0008303171489387751,0.00001572631299495697,0.00099013966973871
1771956726593700000,0.6357001953125,-0.0013702530413866043,0.0039028767496347427,0.0014175771502777934
1771956726613663200,0.655663330078125,0.00015360303223133087,0.0032936660572886467,0.002068936824798584
1771956726633626000,0.675626220703125,0.00004040403291583061,0.003258099313825369,0.004391096998006105
1771956726653590300,0.69559033203125,0.0007687141187489033,0.00039243558421730995,0.005980676040053368
1771956726673553200,0.71555322265625,-0.00040969252586364746,0.0038502151146531105,0.005533379036933184
1771956726693516300,0.735516357421875,0.001360262744128704,0.0001894594170153141,0.0002631483948789537
1771956726713479200,0.755479248046875,-0.0004458930343389511,-0.004182119388133287,-0.005155585240572691
1771956726733442300,0.7754423828125,0.0023290561512112617,-0.0037031187675893307,-0.003312473651021719
1771956726753406200,0.79540625,-0.00016101961955428123,-0.0005972213111817837,-0.003440155414864421
1771956726773369300,0.815369384765625,-0.0007918090559542179,0.00022401148453354836,-0.002636654069647193
1771956726793332200,0.835332275390625,0.0015387090388685465,-0.0007355255074799061,-0.0012645935639739037
1771956726813295400,0.85529541015625,-0.0018581165932118893,-0.00019840849563479424,-0.0028337151743471622
1771956726833258200,0.87525830078125,-0.0029987958259880543,0.0005867863073945045,-0.001404611044563353
1771956726853222100,0.89522216796875,0.001351810758933425,-0.0010492121800780296,-0.002760315081104636
1771956726873185300,0.915185302734375,-0.002013001125305891,0.0033047990873456,-0.00018789025489240885
1771956726893148200,0.935148193359375,-0.000642081256955862,0.0020672716200351715,0.0030337227508425713
1771956726913111300,0.955111328125,-0.0017724484205245972,0.00445088604465127,0.007258269470185041
1771956726933074200,0.97507421875,-0.0010850680992007256,0.0031931009143590927,0.007018483243882656
1771956726953038300,0.995038330078125,0.00020588794723153114,0.004524062853306532,0.0007630106993019581
1771956726973001200,1.015001220703125,0.00047222315333783627,-0.0014994479715824127,-0.004313341341912746
1771956726992964400,1.03496435546875,0.002752835862338543,-0.0033341185189783573,-0.004198447801172733
1771956727012927200,1.05492724609375,-0.0012491336092352867,-0.0014620190486311913,-0.004606506321579218
1771956727032890400,1.074890380859375,0.002606606110930443,-0.00029906630516052246,-0.002157726790755987
1771956727052853200,1.094853271484375,-0.0000035939738154411316,-0.002643087413161993,0.00274939788505435
1771956727072817400,1.1148173828125,0.0016272542998194695,-0.004452275577932596,0.0005040247342549264
1771956727092780300,1.1347802734375,-0.0008049705065786839,0.0001633516512811184,-0.0005023216363042593
1771956727112743200,1.1547431640625,0.0014387727715075016,-0.00042079901322722435,-0.004338488914072514
1771956727132706000,1.1747060546875,-0.000252455472946167,0.0023094904609024525,-0.001416114391759038
1771956727152669200,1.194669189453125,0.002373654628172517,0.001704351045191288,0.0017752653220668435
1771956727172633000,1.214633056640625,0.0007406945805996656,0.0003520408645272255,0.003845593659207225
1771956727192596200,1.23459619140625,-0.0008538458496332169,-0.00036790594458580017,0.0033392752520740032
1771956727212559000,1.25455908203125,-0.0011871950700879097,0.00016346340999007225,0.0039389049634337425
1771956727232522200,1.274522216796875,0.0018055683467537165,-0.0002048257738351822,0.0003770927432924509
1771956727252485400,1.2944853515625,0.0003632502630352974,0.0006580809131264687,-0.0032592001371085644
1771956727272449300,1.31444921875,0.0023843508679419756,-0.0017479471862316132,-0.0015840331325307488
1771956727292412200,1.334412109375,0.00021139346063137054,-0.00020583905279636383,-0.0009421725408174098
1771956727312375300,1.354375244140625,0.0015555794816464186,-0.0036061559803783894,0.00018036039546132088
1771956727332338400,1.37433837890625,-0.00024326425045728683,-0.0008935453370213509,-0.0011527923634275794
1771956727352301300,1.39430126953125,-0.000007681548595428467,-0.0016597704961895943,0.003532863687723875
1771956727372265200,1.41426513671875,0.00014629075303673744,-0.0001373104751110077,0.0014266835059970617
1771956727392228400,1.434228271484375,0.00014457153156399727,0.0008571995422244072,0.0014037542277947068
1771956727412191200,1.454191162109375,0.0037665884010493755,-0.0006618322804570198,0.0010418074671179056
1771956727432154000,1.474154052734375,0.0018569841049611568,-0.0018192767165601254,0.0021049645729362965
1771956727452117200,1.4941171875,-0.0022765733301639557,-0.0023205867037177086,0.0008758538169786334
1771956727472081200,1.5140810546875,0.0011534423101693392,-0.001015699002891779,0.0014373725280165672
1771956727492044300,1.534044189453125,-0.0035490086302161217,-0.002075138036161661,0.0029045979026705027
1771956727512008200,1.55400830078125,0.000029686372727155685,-0.0006367219612002373,-0.0031495788134634495
1771956727531971000,1.57397119140625,-0.0010368302464485168,0.0009470437653362751,-0.0012377833481878042
1771956727551934000,1.593933837890625,-0.0018284195102751255,0.0015297336503863335,-0.0010644890135154128
1771956727571897900,1.61389794921875,0.0005881930701434612,-0.001371556892991066,0.0005315560847520828
1771956727591861000,1.633861083984375,0.002530375961214304,-0.004599531646817923,0.000502514885738492
1771956727611824000,1.65382421875,0.000030345283448696136,-0.001133341807872057,-0.0009787612361833453
1771956727631787000,1.673787109375,0.00038798432797193527,0.0003754338249564171,-0.00005352741573005915
1771956727651750100,1.693750244140625,0.0014622006565332413,0.0014759632758796215,0.0012683391105383635
1771956727671714000,1.713714111328125,-0.002997627016156912,0.0015273536555469036,-0.00002283882349729538
1771956727691677200,1.73367724609375,-0.00037593161687254906,0.0026306845247745514,0.0028434335254132748
1771956727711640000,1.75364013671875,-0.00030140485614538193,-0.002202084753662348,0.002318676793947816
1771956727731603200,1.773603271484375,0.0018229375127702951,-0.0041139256209135056,0.0023181315045803785
1771956727751566000,1.793566162109375,-0.00141989067196846,-0.00011050747707486153,0.0015523330075666308
1771956727771530200,1.8135302734375,0.00029336288571357727,0.0004225890152156353,-0.0017480088863521814
1771956727791493000,1.8334931640625,0.00045325979590415955,0.00050383061170578,0.0005788009730167687
1771956727811456000,1.8534560546875,-0.0013660909608006477,-0.00012100161984562874,0.0003203490050509572
1771956727831419000,1.8734189453125,0.0004616864025592804,-0.0017478028312325478,0.001672560116276145
1771956727851382000,1.893382080078125,0.002720944117754698,-0.0023271464742720127,-0.0013402809854596853
1771956727871346000,1.913345947265625,-0.0003750436007976532,-0.002241616602987051,-0.0009509290684945881
1771956727891309000,1.93330908203125,0.0035669500939548016,-0.0036378668155521154,0.0022850825916975737
1771956727911272000,1.95327197265625,-0.0003467956557869911,0.0008102133870124817,-0.00026722863549366593
1771956727931235000,1.973235107421875,-0.00026419712230563164,0.0030424511060118675,-0.0003525845822878182
1771956727951198200,1.9931982421875,-0.0015751435421407223,0.0023266267962753773,-0.001493395073339343
1771956727971162000,2.013162109375,0.002741555217653513,-0.002032938413321972,0.002111272420734167
1771956727991125000,2.033125,-0.00009027449414134026,-0.0049392785876989365,0.0015309337759390473
1771956728011088100,2.053088134765625,0.0004569198936223984,0.00020301900804042816,-0.0004530486767180264
1771956728031051300,2.07305126953125,0.001387889962643385,0.0005170824006199837,-0.0036657145246863365
1771956728051014100,2.09301416015625,-0.0011622393503785133,0.0021728472784161568,0.0026818537153303623
1771956728070978000,2.11297802734375,0.0020792530849575996,0.0018165595829486847,-0.0003912230604328215
1771956728090941200,2.132941162109375,0.0017079177778214216,0.0001883888617157936,0.0016475317534059286
1771956728110904000,2.152904052734375,0.0012977086007595062,-0.0010637608356773853,0.00146014173515141
1771956728130867000,2.172866943359375,0.0027484819293022156,-0.0006949990056455135,-0.0032738205045461655
1771956728150830000,2.192830078125,-0.0006956188008189201,-0.0005334308370947838,0.0011539873667061329
1771956728170794000,2.2127939453125,-0.0014355117455124855,0.0010051634162664413,0.002139447256922722
1771956728190757000,2.232757080078125,-0.0013625649735331535,0.0020173611119389534,-0.002168194856494665
1771956728210720000,2.252719970703125,0.00046857865527272224,0.0014119562692940235,0.0014607937773689628
1771956728230683100,2.27268310546875,0.002426477149128914,-0.0005677519366145134,-0.00043699232628569007
1771956728250646000,2.29264599609375,-0.000057348981499671936,0.00046602729707956314,-0.0022126391995698214
1771956728270610200,2.312610107421875,-0.0009542279876768589,-0.0011832253076136112,0.0019243706483393908
1771956728290573000,2.332572998046875,-0.0005585234612226486,-0.0001229369081556797,-0.0006063797627575696
1771956728310536200,2.3525361328125,-0.0007593031041324139,0.0024136286228895187,-0.0026896509807556868
1771956728330499000,2.3724990234375,0.00044048717245459557,0.0021287822164595127,-0.0021290634758770466
1771956728350462200,2.392462158203125,0.001083435257896781,0.0018910951912403107,-0.00044976326171308756
1771956728370426000,2.412426025390625,0.0005582084413617849,-0.0011606104671955109,0.0005429541924968362
1771956728390389000,2.432388916015625,0.002492738887667656,-0.0008439379744231701,0.0020842021331191063
1771956728410351900,2.452351806640625,0.002042904496192932,0.00008872663602232933,0.0005553951486945152
1771956728430315000,2.47231494140625,0.0028400523588061333,-0.0021560494787991047,0.0005137439584359527
1771956728450278100,2.492278076171875,-0.0008099661208689213,0.0016836770810186863,0.0007613594643771648
1771956728470242000,2.512241943359375,0.002421759534627199,-0.00018168054521083832,-0.00041931902524083853
1771956728490205000,2.532204833984375,-0.00006919819861650467,0.000931108370423317,0.000467385514639318
1771956728510167300,2.552167236328125,0.0014429809525609016,0.0011202753521502018,-0.0014974260702729225
1771956728530130400,2.57213037109375,-0.0008147438056766987,-0.0035679894499480724,0.001323382486589253
1771956728550093300,2.59209326171875,0.0005352783482521772,0.0012598810717463493,-0.002103089587762952
1771956728570057500,2.612057373046875,-0.0014897966757416725,0.00039125094190239906,-0.0006853386294096708
1771956728590020400,2.632020263671875,0.0024121878668665886,-0.00032415473833680153,-0.0008616676786914468
1771956728609983500,2.6519833984375,-0.001865158323198557,0.003409060649573803,-0.0004161681863479316
1771956728629946000,2.671946044921875,0.0005979426205158234,-0.0000452948734164238,-0.000244532129727304
1771956728649909200,2.6919091796875,-0.0005128108896315098,0.001386883668601513,0.0010311410296708345
1771956728669873200,2.711873046875,0.0000839838758111,-0.0026547140441834927,0.00003978994209319353
1771956728689836300,2.731836181640625,0.0007907785475254059,0.0003319135867059231,-0.00038346590008586645
1771956728709799200,2.751799072265625,-0.000369515735656023,-0.00018386030569672585,-0.0013101721415296197
1771956728729762300,2.77176220703125,0.00014273077249526978,0.0021467525511980057,-0.0002707444946281612
1771956728749725400,2.791725341796875,-0.000040739309042692184,0.0005364096723496914,0.0007287997286766768
1771956728769689300,2.811689453125,0.0007087192498147488,-0.0006208205595612526,-0.0006563617498613894
1771956728789652200,2.83165234375,0.0009948927909135818,-0.0010970286093652248,0.00004460581112653017
1771956728809615400,2.851615478515625,-0.000875293742865324,-0.0037581827491521835,0.0016977451741695404
1771956728829578500,2.87157861328125,-0.000424868892878294,0.0034412695094943047,-0.0013106000842526555
1771956728849541400,2.891541259765625,-0.0023345472291111946,0.0006546019576489925,-0.0020730579271912575
1771956728869505300,2.91150537109375,-0.0005068299360573292,0.002955838106572628,-0.0022260956466197968
1771956728889468400,2.931468505859375,-0.001555213239043951,0.000842011533677578,-0.0013165364507585764
1771956728909431300,2.951431396484375,0.0009052292443811893,-0.0010966784320771694,0.0010361693566665053
1771956728929394200,2.971394287109375,-0.00012786313891410828,-0.001513405703008175,-0.0014862790703773499
1771956728949357300,2.991357421875,-0.0007342128083109856,-0.001583675853908062,-0.0008707253145985305
1771956728969321200,3.0113212890625,-0.001154458150267601,0.0004818020388484001,-0.0007510451250709593
1771956728989284400,3.031284423828125,0.0011107651516795158,0.0008638571016490459,-0.002252079313620925
1771956729009247200,3.051247314453125,-0.0003101322799921036,0.0024556773714721203,0.000535413040779531
1771956729029210400,3.07121044921875,-0.0019194362685084343,0.0014232713729143143,0.0014624989125877619
1771956729049173200,3.09117333984375,0.0007583559490740299,-0.00027043139562010765,0.00020004331599920988
1771956729069137400,3.111137451171875,0.0011991816572844982,-0.0032996423542499542,0.0026650940999388695
1771956729089100300,3.131100341796875,-0.00017850520089268684,-0.0023216111585497856,0.00020208465866744518
1771956729109063400,3.1510634765625,0.00037291948683559895,0.002287034410983324,-0.0009780785767361522
1771956729129026300,3.1710263671875,-0.0015422403812408447,0.0017516030929982662,-0.0005528389592655003
1771956729148989400,3.190989501953125,-0.0002363370731472969,0.0019358177669346333,-0.00008954392978921533
1771956729168953300,3.210953369140625,0.0020818528719246387,0.00008527236059308052,0.001032756525091827
1771956729188916500,3.23091650390625,0.0005171142984181643,-0.0023264577612280846,0.0008859063382260501
1771956729208879400,3.25087939453125,-0.001291567925363779,-0.0036210031248629093,0.0013129791477695107
1771956729228842200,3.27084228515625,0.0013437687885016203,0.0010774489492177963,-0.0014179879799485207
1771956729248805400,3.290805419921875,0.0008223378099501133,0.0018230355344712734,-0.00002169428626075387
1771956729268769300,3.310769287109375,-0.0008203857578337193,0.0002086404711008072,0.0003498189616948366
1771956729288732400,3.330732421875,0.00031748460605740547,-0.00043641217052936554,-0.0006002435111440718
1771956729308695300,3.3506953125,0.002266731346026063,-0.00430138036608696,-0.00016679015243425965
1771956729328658400,3.370658447265625,0.00015163887292146683,-0.0020551332272589207,0.003413742408156395
1771956729348621300,3.390621337890625,-0.0026489365845918655,-0.001900198869407177,0.0009671371662989259
1771956729368585500,3.41058544921875,0.002728672232478857,-0.0005439533852040768,-0.00197556521743536
1771956729388548400,3.43054833984375,-0.0018463223241269588,0.003520950675010681,-0.001043996773660183
1771956729408511500,3.450511474609375,0.0003254394978284836,0.0004169577732682228,0.0006088206428103149
1771956729428474400,3.470474365234375,0.00028815632686018944,0.00006541190668940544,-0.000364544743206352
1771956729448438500,3.4904384765625,0.0003256518393754959,-0.0031066443771123886,0.002832816680893302
1771956729468401400,3.5104013671875,-0.000004000961780548096,0.002366159576922655,0.0007985890842974186
1771956729488364300,3.5303642578125,0.0014631426893174648,-0.0012418664991855621,-0.000524951028637588
1771956729508327000,3.550326904296875,-0.001454759854823351,-0.0002561011351644993,0.00018736202036961913
1771956729528290000,3.5702900390625,-0.0003333650529384613,0.0032015503384172916,-0.0003935936256311834
1771956729548254000,3.59025390625,0.0008976445533335209,0.00060691824182868,-0.000007177703082561493
1771956729568217000,3.610217041015625,0.0011262968182563782,-0.000023666303604841232,-0.0000781373237259686
1771956729588180000,3.630179931640625,-0.000013420823961496353,-0.0008702590130269527,0.000031175732146948576
1771956729608143000,3.65014306640625,-0.0010315589606761932,-0.0016559693031013012,0.0003238326753489673
1771956729628106200,3.670106201171875,-0.0011405250988900661,0.003110380843281746,-0.0014279106399044394
1771956729648070100,3.690070068359375,0.0005628473591059446,0.0003735935315489769,0.0005924708675593138
1771956729668032800,3.71003271484375,0.0004681744612753391,0.0030926731415092945,0.0013056723400950432
1771956729687996000,3.729995849609375,-0.0006237607449293137,0.002587428316473961,-0.003565869526937604
1771956729707959000,3.749958984375,-0.0003699534572660923,-0.003192875999957323,0.0004935586475767195
1771956729727922000,3.769921875,-0.00022378284484148026,-0.0006140167824923992,0.00125719397328794
1771956729747885800,3.7898857421875,-0.000019484199583530426,0.0008873273618519306,0.0008200387819670141
1771956729767849000,3.809848876953125,0.002587313763797283,0.0020878571085631847,-0.0020110346376895905
1771956729787812000,3.82981201171875,-0.000295788049697876,0.001300807110965252,0.0010085932444781065
1771956729807775000,3.84977490234375,0.0012525261845439672,0.0007317159324884415,-0.00012187077663838863
1771956729827738000,3.869738037109375,-0.0005939053371548653,-0.0010731765069067478,-0.0025704388972371817
1771956729847702000,3.889701904296875,-0.0009533786214888096,-0.0036768082063645124,0.002798826200887561
1771956729867665200,3.9096650390625,0.00023133214563131332,-0.0023471741005778313,0.002277560532093048
1771956729887628000,3.9296279296875,0.000632420415058732,-0.0032048397697508335,-0.0005614419933408499
1771956729907591200,3.949591064453125,0.0004571469034999609,0.0007685525342822075,0.001970435492694378
1771956729927553800,3.9695537109375,-0.0014375289902091026,0.00248695258051157,-0.0009253267198801041
1771956729947518200,3.989518310546875,-0.0015521706081926823,0.002458397299051285,-0.0007881501223891973
1771956729967480800,4.009480712890625,-0.00027446309104561806,0.0004122387617826462,0.0008268844103440642
1771956729987444000,4.02944384765625,-0.0013357289135456085,-0.0008709491230547428,0.002844854723662138
1771956730007406800,4.04940673828125,0.0013977084308862686,-0.003159194253385067,-0.0012638986809179187
1771956730027370000,4.069369873046875,-0.0013043261133134365,-0.0027457005344331264,-0.0002452631597407162
1771956730047334000,4.089333984375,0.0007245105225592852,0.0020875423215329647,0.0009258006466552615
1771956730067297000,4.109297119140625,0.0001361379399895668,0.0005648843944072723,-0.0009184440714307129
1771956730087260000,4.129260009765625,-0.0008991267532110214,0.0015635178424417973,-0.00047140067908912897
1771956730107223000,4.14922314453125,-0.00021615251898765564,-0.0014010444283485413,0.0014625887852162123
1771956730127187000,4.16918701171875,0.002096471842378378,-0.0021378295496106148,0.0003113127895630896
1771956730147150000,4.189150146484375,0.001175022916868329,0.000815830659121275,0.0022131758742034435
1771956730167113000,4.209113037109375,-0.00024154596030712128,0.003212049137800932,0.0011812320444732904
1771956730187076000,4.229076171875,-0.0011443640105426311,0.0027347332797944546,0.0023011276498436928
1771956730207039200,4.249039306640625,0.0005671554245054722,0.0025511556304991245,0.00045000610407441854
1771956730227003100,4.269003173828125,0.0020251241512596607,-0.00017846375703811646,0.0019843499176204205
1771956730246965800,4.2889658203125,-0.00003149360418319702,-0.0030226167291402817,0.0011487732408568263
1771956730266929000,4.308928955078125,0.00012001488357782364,-0.0010082283988595009,-0.0005026612197980285
1771956730286892000,4.32889208984375,-0.002072923816740513,0.00001324852928519249,-0.0009330522734671831
1771956730306855000,4.34885498046875,0.0010344353504478931,0.00044566066935658455,-0.0005700631882064044
1771956730326818800,4.36881884765625,-0.0015056873671710491,0.00046996399760246277,-0.0017899720696732402
1771956730346782000,4.388781982421875,0.00028922734782099724,0.00048034079372882843,0.0024482067674398422
1771956730366745000,4.4087451171875,0.0006738763768225908,-0.0006335047073662281,0.0024151226971298456
1771956730386708000,4.4287080078125,0.0025444142520427704,-0.0015385318547487259,-0.00044264260213822126
1771956730406671000,4.448671142578125,0.000036139506846666336,-0.0009742514230310917,-0.0008582650334574282
1771956730426635000,4.468635009765625,-0.001317446120083332,-0.000328287947922945,0.00024552957620471716
1771956730446598100,4.48859814453125,-0.0003284672275185585,0.0027345363050699234,0.0009316746145486832
1771956730466561000,4.50856103515625,0.0005502463318407536,0.002644023858010769,-0.001314429915510118
1771956730486524200,4.528524169921875,0.001443000277504325,0.0016511185094714165,-0.0011247936636209488
1771956730506487600,4.548487548828125,0.0003344870638102293,0.00001641828566789627,0.0014269574312493205
1771956730526451700,4.56845166015625,-0.0010959324426949024,-0.0026609664782881737,-0.0015662792138755322
1771956730546414600,4.58841455078125,0.0006301654502749443,-0.0021145581267774105,0.0017927680164575577
1771956730566377700,4.608377685546875,-0.001057963352650404,-0.0016221706755459309,-0.0015878400299698114
1771956730586340600,4.628340576171875,0.0003785877488553524,0.003177143167704344,-0.00383109413087368
1771956730606303700,4.6483037109375,0.001034469110891223,-0.0001501878723502159,0.0021315959747880697
1771956730626267600,4.668267578125,0.00005151471123099327,0.0012789247557520866,0.0009448174387216568
1771956730646230800,4.688230712890625,-0.0003496757708489895,0.00005229748785495758,0.003423732239753008
1771956730666193700,4.708193603515625,-0.0015715574845671654,-0.000658772885799408,-0.0012148520909249783
1771956730686156800,4.72815673828125,0.0007642479613423347,-0.0006056223064661026,-0.002138255862519145
1771956730706120700,4.74812060546875,0.00004938105121254921,0.002288623247295618,0.0013539496576413512
1771956730726083800,4.768083740234375,-0.0022948794066905975,0.0018103071488440037,-0.0015536542050540447
1771956730746046700,4.788046630859375,-0.0032341526821255684,0.0010166307911276817,-0.0012186866952106357
1771956730766009900,4.808009765625,-0.0000718049705028534,0.00034180423244833946,0.0009687929414212704
1771956730785972500,4.827972412109375,-0.00018126098439097404,-0.0007339343428611755,-0.0009078577277250588
1771956730805937000,4.84793701171875,0.0006522880867123604,-0.0025574234314262867,-0.00038135587237775326
1771956730825899500,4.8678994140625,0.0018804201390594244,0.00011273287236690521,-0.0020760316401720047
1771956730845862700,4.887862548828125,-0.0006567230448126793,0.003462932538241148,-0.0012056492269039154
1771956730865825500,4.907825439453125,0.00007898686453700066,0.002444222569465637,-0.0013165331911295652
1771956730885788700,4.92778857421875,-0.0035833544097840786,0.0011264919303357601,-0.0005077115492895246
1771956730905752600,4.947752685546875,-0.0011209170334041119,0.001249371562153101,-0.0009333118214271963
1771956730925715700,4.9677158203125,-0.001860384363681078,-0.001293934416025877,-0.0009191115386784077
1771956730945678600,4.9876787109375,-0.0017780382186174393,-0.00004020705819129944,-0.000737462192773819
1771956730965641700,5.007641845703125,-0.0001547425054013729,0.00044133327901363373,-0.0008648516377434134
1771956730985604900,5.02760498046875,0.001912489766255021,0.0001285080797970295,-0.003231438808143139
1771956731005568800,5.04756884765625,-0.000503727700561285,0.0021955021657049656,-0.001574798719957471
1771956731025531600,5.06753173828125,0.0026339138858020306,-0.001096832100301981,0.0004209461621940136
1771956731045494800,5.087494873046875,-0.0000016940757632255554,-0.001835822593420744,0.0035543362610042095
1771956731065458000,5.1074580078125,-0.002018050290644169,-0.001000408548861742,-0.00038914481410756707
1771956731085420500,5.127420654296875,-0.0027035842649638653,-0.0004409416578710079,-0.0012397815007716417
1771956731105384700,5.147384765625,-0.001664692535996437,0.0011206935159862041,-0.0021374011412262917
1771956731125347600,5.16734765625,0.002477459143847227,0.002122168429195881,0.0005289682885631919
1771956731145310700,5.187310791015625,-0.0016063558869063854,0.00031648436561226845,-0.00043706485303118825
1771956731165273600,5.207273681640625,0.0012590254191309214,-0.00002245977520942688,0.0016993113094940782
1771956731185236700,5.22723681640625,0.0012850882485508919,-0.0035323621705174446,0.0010942536173388362
1771956731205200600,5.24720068359375,0.000751781277358532,-0.0014527235180139542,-0.0004686505999416113
1771956731225163800,5.267163818359375,-0.0015103383921086788,0.0033318204805254936,0.0016137943603098392
1771956731245126700,5.287126708984375,-0.0012700571678578854,0.0028474032878875732,-0.0005436012288555503
1771956731265089800,5.30708984375,-0.0008052275516092777,0.0010891584679484367,-0.0012035167310386896
1771956731285052700,5.327052734375,-0.0011730766855180264,0.001661177258938551,-0.0018625655211508274
1771956731305016800,5.347016845703125,-0.0020659700967371464,-0.0023029875010252,0.002626219764351845
1771956731324979700,5.366979736328125,-0.0008057677187025547,-0.0035095959901809692,-0.0002893801429308951
1771956731344942800,5.38694287109375,-0.0004210411570966244,-0.0027187643572688103,0.0008879163069650531
1771956731364905500,5.406905517578125,0.0015274679753929377,-0.00031177373602986336,0.0016486519016325474
1771956731384868600,5.42686865234375,0.0014127746690064669,0.0019101039506495,0.0006592463469132781
1771956731404832500,5.44683251953125,0.0012240116484463215,0.0010782009921967983,0.0013003043131902814
1771956731424795600,5.466795654296875,0.0002875952050089836,0.000007428228855133057,0.0024808570742607117
1771956731444758500,5.486758544921875,-0.0000616610050201416,-0.0019816383719444275,0.0013556813355535269
1771956731464721700,5.5067216796875,-0.001077807042747736,-0.002867689821869135,0.00021610234398394823
1771956731484684800,5.526684814453125,-0.0002571139484643936,-0.001567032653838396,-0.0025088456459343433
1771956731504648400,5.5466484375,-0.0006409203633666039,0.0010003196075558662,-0.0004800250753760338
1771956731524611600,5.566611572265625,0.0008825103286653757,-0.001412451732903719,-0.00015408318722620606
1771956731544574200,5.58657421875,0.0011914321221411228,0.0017801378853619099,0.0013562912354245782
1771956731564537300,5.606537353515625,-0.00006392830982804298,-0.00033438997343182564,-0.0012436413671821356
1771956731584501200,5.626501220703125,0.0007975441403687,-0.004657325334846973,0.0006419256096705794
1771956731604464400,5.64646435546875,-0.000023861881345510483,-0.0037223314866423607,-0.00005122675793245435
1771956731624427300,5.66642724609375,-0.000912458635866642,0.0010441681370139122,-0.0015397584065794945
1771956731644390400,5.686390380859375,0.00019701244309544563,0.00028395606204867363,-0.0012218912597745657
1771956731664353300,5.706353271484375,-0.00035187648609280586,0.001680827233940363,-0.0013663549907505512
1771956731684317400,5.7263173828125,0.001639192458242178,-0.00017382437363266945,0.0005596959963440895
1771956731704280300,5.7462802734375,-0.000030444469302892685,-0.002656834665685892,-0.0001679460401646793
1771956731724243500,5.766243408203125,-0.0007119830697774887,-0.000441583339124918,0.00067018938716501
1771956731744206300,5.786206298828125,-0.00153803126886487,-0.0017519542016088963,-0.000015647499822080135
1771956731764169500,5.80616943359375,-0.002267841249704361,0.0018548606894910336,0.0005043329438194633
1771956731784133400,5.82613330078125,0.002200969262048602,0.0024433499202132225,-0.001973893027752638
1771956731804096500,5.846096435546875,0.003225938882678747,-0.0000779246911406517,-0.00031286670127883554
1771956731824059400,5.866059326171875,0.0016218663658946753,0.0006562406197190285,0.00008675898425281048
1771956731844022300,5.886022216796875,0.002775035798549652,-0.0036239922046661377,0.0009679088834673166
1771956731863985400,5.9059853515625,-0.0014924253337085247,0.0003674454055726528,-0.0006641478976234794
1771956731883949300,5.92594921875,-0.0021110093221068382,0.0019570752047002316,-0.004277665633708239
1771956731903912200,5.945912109375,0.0003979671746492386,0.0015908675268292427,-0.0014780496712774038
1771956731923875300,5.965875244140625,-0.0010647918097674847,0.0010169316083192825,-0.0006417366676032543
1771956731943838500,5.98583837890625,-0.0015845741145312786,0.0027097887359559536,0.0004925181856378913
1771956731963801300,6.00580126953125,0.0008135673124343157,-0.003689322853460908,0.00022874586284160614
1771956731983765200,6.02576513671875,-0.0005214577540755272,-0.0027215336449444294,0.00126466469373554
1771956732003728400,6.045728271484375,-0.002309975679963827,-0.0011722762137651443,-0.00034676241921260953
1771956732023691500,6.06569140625,0.000861338572576642,-0.000008544884622097015,0.001636116299778223
1771956732043654400,6.085654296875,-0.0019604158587753773,0.002066482789814472,-0.00009060010779649019
1771956732063617500,6.105617431640625,-0.0015223072841763496,0.002347741276025772,-0.0006235758773982525
1771956732083581400,6.12558154296875,0.00021614599972963333,-0.0013436228036880493,-0.00004114845069125295
1771956732103544600,6.145544677734375,-0.0003470545634627342,-0.0005143848247826099,-0.001493900315836072
1771956732123507200,6.165507080078125,0.0013072735164314508,-0.0034826924093067646,0.0009152803104370832
1771956732143470300,6.18547021484375,-0.0013413983397185802,-0.0018273931927978992,0.0012315517524257302
1771956732163433200,6.20543310546875,-0.001838588621467352,0.0012184474617242813,-0.001062375376932323
1771956732183397400,6.2253974609375,-0.0012502814643085003,0.003372343722730875,-0.00120168412104249
1771956732203360300,6.2453603515625,0.00012964662164449692,-0.00038285134360194206,-0.00002533273072913289
1771956732223323400,6.265323486328125,0.0002533034421503544,-0.002303942572325468,0.0023871720768511295
1771956732243286300,6.285286376953125,-0.00008394988253712654,-0.0015551857650279999,0.003214786062017083
1771956732263249400,6.30524951171875,0.00005043763667345047,-0.0008365949615836143,0.00034968723775818944
1771956732283213300,6.32521337890625,0.0009891530498862267,0.0020362213253974915,-0.0008049343014135957
1771956732303176400,6.345176513671875,-0.001417810097336769,0.0007544416002929211,-0.004337157588452101
1771956732323139300,6.365139404296875,-0.001405161339789629,0.0028099054470658302,-0.0004020547494292259
1771956732343102500,6.3851025390625,0.0006666216067969799,0.0008702632039785385,0.0015007166657596827
1771956732363065600,6.405065673828125,0.00002019014209508896,-0.0027310936711728573,-0.0002995824324898422
1771956732383029500,6.425029541015625,0.00045434082858264446,-0.0010051289573311806,0.001713931793347001
1771956732402992400,6.444992431640625,0.0031195697374641895,-0.0028418684378266335,0.0008928682655096054
1771956732422955300,6.464955322265625,-0.0006354986689984798,-0.0010686577297747135,-0.00473218597471714
1771956732442918400,6.48491845703125,-0.0006035380065441132,0.0015341946855187416,0.0011355606839060783
1771956732462881300,6.50488134765625,0.0018482592422515154,0.0021064109168946743,0.001665406976826489
1771956732482845200,6.52484521484375,0.001101307338103652,-0.000586062204092741,0.0007647674647159874
1771956732502808300,6.544808349609375,0.0015761011745780706,-0.005913125351071358,0.0008253451669588685
1771956732522771500,6.564771484375,0.0025408263318240643,-0.004870849661529064,0.003740120679140091
1771956732542734000,6.584734130859375,-0.0012735403142869473,-0.0003750724717974663,-0.0008495338843204081
1771956732562697200,6.604697265625,-0.0004902523942291737,0.0015061581507325172,-0.0012619809713214636
1771956732582661000,6.6246611328125,-0.0009145559743046761,0.0009844880551099777,0.000542991969268769
1771956732602624300,6.644624267578125,0.003681788221001625,0.0016645737923681736,-0.0020527616143226624
1771956732622587100,6.664587158203125,-0.00018683355301618576,-0.0021946560591459274,-0.00034700718242675066
1771956732642550300,6.68455029296875,0.0011192592792212963,-0.003358062356710434,0.0033177027944475412
1771956732662513200,6.70451318359375,-0.001793659757822752,-0.0008305343799293041,0.001131327822804451
1771956732682477300,6.724477294921875,0.0012715612538158894,-0.0005928333848714828,-0.000060748658142983913
1771956732702440200,6.744440185546875,0.0012420248240232468,0.0017320900224149227,-0.0018978388980031013
1771956732722403300,6.7644033203125,0.0013368038926273584,0.0017925766296684742,-0.0011907769367098808
1771956732742366200,6.7843662109375,0.0006583395879715681,-0.0006956146098673344,0.0008305879891850054
1771956732762329300,6.804329345703125,-0.0011823787353932858,-0.0007320833392441273,0.0007612775079905987
1771956732782293200,6.824293212890625,-0.0008848467841744423,-0.0034359386190772057,0.0012026067124679685
1771956732802256400,6.84425634765625,0.0013647009618580341,-0.0006856061518192291,0.0023884885013103485
1771956732822219000,6.864218994140625,-0.0007971501909196377,0.0007589780725538731,-0.00173032411839813
1771956732842182100,6.88418212890625,0.0022607820574194193,0.0019192751497030258,-0.0033580013550817966
1771956732862145300,6.904145263671875,0.000914835836738348,0.0008645602501928806,-0.00036402815021574497
1771956732882109200,6.924109130859375,0.00022093439474701881,-0.001548092346638441,0.0025457674637436867
1771956732902072000,6.944072021484375,0.00019106268882751465,-0.0017336886376142502,-0.0013487981632351875
1771956732922035200,6.96403515625,0.0007878278847783804,-0.002358999103307724,-0.0013983120443299413
1771956732941998300,6.983998291015625,-0.0021414929069578648,0.0021308078430593014,-0.002204262651503086
1771956732961961200,7.003961181640625,-0.00019875681027770042,0.002139836549758911,-0.0022810124792158604
1771956732981925400,7.02392529296875,0.0018032793886959553,0.0029227538034319878,-0.0009429936180822551
1771956733001888300,7.04388818359375,0.0009030632209032774,0.0016080359928309917,-0.0005213104304857552
1771956733021851400,7.063851318359375,0.0010228408500552177,-0.0007435777224600315,0.00010248180478811264
1771956733041814300,7.083814208984375,-0.0005902061238884926,-0.0009874450042843819,-0.000463972392026335
1771956733061777400,7.10377734375,-0.0007361331954598427,-0.0016692141070961952,0.0005100201815366745
1771956733081741300,7.1237412109375,0.00013221986591815948,0.0001948084682226181,-0.0021042819134891033
1771956733101704400,7.143704345703125,0.000042827799916267395,0.0027849823236465454,0.0026456532068550587
1771956733121667000,7.1636669921875,0.0012137503363192081,-0.0007563084363937378,-0.001365693868137896
1771956733141630200,7.183630126953125,-0.0013221991248428822,0.001279069110751152,-0.000421223696321249
1771956733161593000,7.203593017578125,-0.001494135707616806,-0.0009104530327022076,0.0015599529724568129
1771956733181557200,7.22355712890625,0.00028117047622799873,-0.0012389635667204857,0.0007669630576856434
1771956733201520000,7.24352001953125,-0.00148016307502985,-0.00012123072519898415,-0.00011837109923362732
1771956733221483300,7.263483154296875,0.0007913017179816961,0.00021199975162744522,0.0004821865586563945
1771956733241446100,7.283446044921875,-0.0011357939802110195,0.0007687411271035671,-0.0018442552536725998
1771956733261409300,7.3034091796875,-0.0006073843687772751,0.0011123605072498322,-0.0012857378460466862
1771956733281373200,7.323373291015625,0.0005082848947495222,0.001309653278440237,0.0016402351902797818
1771956733301336300,7.34333642578125,-0.001098373904824257,-0.0010075666941702366,0.0016244861762970686
1771956733321299200,7.36329931640625,0.0010818361770361662,0.00027001556009054184,0.0016834184061735868
1771956733341262300,7.383262451171875,0.000841173343360424,0.0014215260744094849,-0.001472528907470405
1771956733361225500,7.4032255859375,0.0008971134666353464,0.0013191606849431992,-0.0011108249891549349
1771956733381189400,7.423189453125,-0.0004043588414788246,0.00040630903095006943,0.00039951468352228403
1771956733401152300,7.44315234375,0.0026792632415890694,-0.001477221492677927,0.0010587868746370077
1771956733421115100,7.463115234375,0.0014334924053400755,0.0000688629224896431,0.002341373125091195
1771956733441078300,7.483078369140625,-0.0014407443813979626,0.0003604697994887829,0.0031925737857818604
1771956733461041200,7.503041259765625,0.0007804445922374725,-0.004274734295904636,-0.0007757120183669031
1771956733481005300,7.52300537109375,0.00021677883341908455,0.0013350090011954308,0.00010104652028530836
1771956733500968200,7.54296826171875,-0.000253074336796999,0.001823084894567728,-0.0012999889440834522
1771956733520931800,7.562931884765625,-0.00013644341379404068,0.0010921303182840347,-0.0005497494130395353
1771956733540894700,7.582894775390625,0.0024903882294893265,-0.0002939784899353981,0.0012789699248969555
1771956733560857900,7.60285791015625,-0.00005142390727996826,-0.0023466572165489197,-0.002090476220473647
1771956733580821800,7.62282177734375,-0.0005364189855754375,-0.00011676596477627754,0.00009076239075511694
1771956733600785000,7.642784912109375,-0.002420417033135891,-0.001939486712217331,-0.0005818147910758853
1771956733620747800,7.662747802734375,-0.0015853564254939556,-0.001607036218047142,0.001653439598158002
1771956733640711000,7.6827109375,-0.00025172624737024307,0.0045083994045853615,-0.001527775777503848
1771956733660673800,7.702673828125,0.001396550564095378,0.0020125098526477814,-0.0005473803612403572
1771956733680638000,7.722637939453125,0.0003870045766234398,-0.0010099555365741253,0.0004088813439011574
1771956733700600800,7.742600830078125,0.0001118895597755909,-0.002789486665278673,0.00014049361925572157
1771956733720564000,7.76256396484375,-0.0004145931452512741,-0.0006471597589552402,-0.002442265162244439
1771956733740526800,7.78252685546875,-0.00045351777225732803,0.0002597714774310589,-0.001345752622000873
1771956733760490000,7.802489990234375,-0.00022704852744936943,-0.0007332409732043743,-0.0014890329912304878
1771956733780454000,7.822453857421875,-0.00045260926708579063,0.0005530272610485554,-0.0034455645363777876
1771956733800417000,7.8424169921875,-0.0006389585323631763,0.00268183508887887,0.0004199534305371344
1771956733820379600,7.862379638671875,0.0009428372140973806,-0.0015221298672258854,0.0006741120596416295
1771956733840342800,7.8823427734375,0.0011198935098946095,0.000009323935955762863,0.000993460649624467
1771956733860305700,7.9023056640625,0.0004002258647233248,-0.0017382395453751087,0.00013008411042392254
1771956733880268800,7.922268798828125,-0.001512662973254919,0.0004821484908461571,0.00008200807496905327
1771956733900232700,7.942232666015625,-0.0014723422937095165,0.0014699483290314674,0.0026537321973592043
1771956733920195800,7.96219580078125,0.0011164327152073383,0.0012064329348504543,0.0007213812205009162
1771956733940158700,7.98215869140625,-0.0009263413958251476,0.002149338833987713,0.0005129443597979844
1771956733960121900,8.002121826171875,0.0005707386881113052,-0.000685693696141243,0.0018156851874664426
1771956733980085000,8.0220849609375,-0.0003902609460055828,-0.0018357965163886547,0.0010241206036880612
1771956734000049000,8.042048828125,-0.0017158463597297668,-0.002493654377758503,0.0016010541003197432
1771956734020011800,8.06201171875,-0.0012260260991752148,-0.0006111515685915947,-0.00006523763295263052
1771956734039975000,8.081974853515625,0.0003222713712602854,-0.000672120600938797,0.0011806052643805742
1771956734059937800,8.101937744140624,0.0006216422189027071,0.00093407416716218,0.0002130153588950634
1771956734079900700,8.121900634765625,-0.0006303479894995689,0.0000841398723423481,0.0022317194379866123
1771956734099864800,8.14186474609375,-0.0006292522884905338,-0.004451787564903498,-0.00032175518572330475
1771956734119827700,8.16182763671875,-0.0016046310774981976,0.00008704094216227531,0.0007577544311061502
1771956734139790800,8.181790771484375,0.0004193594213575125,0.0016043204814195633,-0.001165494555607438
1771956734159753700,8.201753662109375,-0.0011142096482217312,0.004132887348532677,-0.003329148516058922
1771956734179716900,8.221716796875,-0.00045360904186964035,0.0011788406409323215,0.0011022556573152542
1771956734199680800,8.2416806640625,-0.0007783179171383381,0.0017663165926933289,0.000015236262697726488
1771956734219644000,8.261643798828125,-0.0005427924916148186,0.0011065262369811535,0.0004949171561747789
1771956734239606800,8.281606689453126,-0.001248398795723915,-0.0014722771011292934,0.0012879123678430915
1771956734259570000,8.30156982421875,0.0006757790688425303,-0.0018745260313153267,0.0013068406842648983
1771956734279532800,8.32153271484375,0.000663332175463438,-0.0006573842838406563,0.00036148494109511375
1771956734299497000,8.3414970703125,0.0009754777420312166,-0.0003311792388558388,-0.0011689832899719477
1771956734319459800,8.3614599609375,-0.0014268695376813412,0.0024303989484906197,0.0016361391171813011
1771956734339423000,8.381423095703125,-0.0005425265990197659,-0.0026601594872772694,-0.0004937832709401846
1771956734359385900,8.4013857421875,0.00014489982277154922,-0.0024839667603373528,0.0017126393504440784
1771956734379348700,8.4213486328125,-0.001677060965448618,-0.005958567839115858,0.0031712185591459274
1771956734399312600,8.441312744140625,-0.000012874603271484375,-0.0020911083556711674,-0.0001442768843844533
1771956734419275800,8.46127587890625,-0.001469986978918314,0.00176654988899827,-0.0017041356768459082
1771956734439239000,8.481239013671875,-0.0025741388089954853,0.002822672948241234,-0.0012055982369929552
1771956734459201800,8.501201904296876,0.0004757207352668047,0.0026653665117919445,-0.0006752421613782644
1771956734479165000,8.5211650390625,0.0010222275741398335,-0.000994803849607706,-0.00045661127660423517
1771956734499128800,8.54112890625,-0.0007326737977564335,-0.001426108181476593,-0.002607826143503189
1771956734519091200,8.56109130859375,0.0002771057188510895,-0.003942074254155159,0.0007959220092743635
1771956734539054000,8.58105419921875,0.0003756911028176546,-0.0009224875830113888,0.00042033905629068613
1771956734559017200,8.601017333984375,-0.0012615635059773922,0.0030177710577845573,-0.000798766384832561
1771956734578980000,8.62097998046875,-0.0002447790466248989,-0.00018504122272133827,0.0015717734349891543
1771956734598943000,8.64094287109375,0.0009785951115190983,0.0014153048396110535,-0.00016068521654233336
1771956734618907000,8.660906982421874,0.0011751458514481783,-0.00003664381802082062,0.0002887451555579901
1771956734638870000,8.6808701171875,-0.0010894672013819218,-0.0016156816855072975,0.001190372509881854
1771956734658833200,8.700833251953124,0.001539696240797639,-0.003774492535740137,0.0000431770458817482
1771956734678796000,8.720796142578125,-0.0008069346658885479,0.00220679584890604,-0.0025585037656128407
1771956734698759200,8.74075927734375,0.0016612350009381771,0.0021184380166232586,-0.001747697126120329
1771956734718723000,8.76072314453125,-0.0010730037465691566,0.001452588476240635,0.0004072341835126281
1771956734738686200,8.780686279296875,0.0007047175895422697,-0.0016211625188589096,-0.00016822549514472485
1771956734758649000,8.800649169921876,0.0005694495048373938,-0.000854868907481432,0.0011594737879931927
1771956734778612200,8.8206123046875,-0.00007265107706189156,-0.0006634215824306011,-0.0006956100696697831
1771956734798575000,8.8405751953125,0.000602545915171504,-0.0015993770211935043,-0.0012012725928798318
1771956734818539300,8.860539306640625,0.0008004354313015938,-0.00008509447798132896,-0.0017732034903019667
1771956734838502100,8.880502197265624,0.001916325418278575,0.001302420161664486,-0.0003631371655501425
1771956734858465300,8.90046533203125,0.001994868740439415,0.0035416409373283386,-0.0022965772077441216
1771956734878428000,8.920427978515624,-0.00036564934998750687,-0.0018469393253326416,0.00007122731767594814
1771956734898391000,8.94039111328125,0.000244765542447567,-0.0018738112412393093,0.0010474413866177201
1771956734918355000,8.96035498046875,-0.00020667538046836853,-0.0017952052876353264,0.0004160668468102813
1771956734938318000,8.980318115234375,-0.0013248198665678501,-0.00012979237362742424,-0.0007385237840935588
1771956734958281000,9.000281005859375,0.0007681564893573523,0.0005696988664567471,0.0003937311703339219
1771956734978244000,9.020244140625,-0.001843106932938099,0.0027558444999158382,-0.000741633353754878
1771956734998207000,9.04020703125,0.0038219797424972057,0.0008974345400929451,-0.0010353748220950365
1771956735018170000,9.060170166015626,-0.0008973628282546997,-0.0036263163201510906,0.0016182566760107875
1771956735038134000,9.080134033203125,-0.001057029701769352,-0.001679966226220131,0.002320251427590847
1771956735058097200,9.10009716796875,0.00039020972326397896,-0.0013280007988214493,-0.001211601193062961
1771956735078060000,9.12006005859375,-0.0011055744253098965,0.0016156830824911594,-0.0008488057646900415
1771956735098023200,9.140023193359376,0.0015407688915729523,0.0007891030982136726,-0.000674254959449172
1771956735117986300,9.159986328125,0.00003417534753680229,-0.0020378390327095985,0.0013733174419030547
1771956735137950200,9.1799501953125,0.0021843581926077604,-0.0005064648576080799,0.0011222948087379336
1771956735157913000,9.1999130859375,0.0018033746164292097,-0.003182443790137768,0.0018623403739184141
1771956735177876000,9.2198759765625,0.0013833306729793549,-0.002008696086704731,-0.0018836641684174538
1771956735197839000,9.239839111328125,0.0006139641627669334,-0.001689302735030651,-0.001441058935597539
1771956735217802000,9.259802001953124,0.0009113869164139032,0.0011501736007630825,-0.0009273568284697831
1771956735237766100,9.27976611328125,-0.0009859134443104267,0.0032774517312645912,0.0013992032036185265
1771956735257729000,9.29972900390625,0.0014273347333073616,0.0032125506550073624,-0.002376265823841095
1771956735277692200,9.319692138671876,0.0006687010172754526,0.001412625890225172,-0.0018142577027902007
1771956735297655000,9.339655029296875,0.0013229327742010355,-0.0021553649567067623,0.001855132868513465
1771956735317618200,9.3596181640625,0.00009485241025686264,-0.0006897198036313057,-0.0023817261680960655
1771956735337581000,9.3795810546875,-0.0019566090777516365,-0.000218189787119627,0.000660239951685071
1771956735357545200,9.399545166015624,-0.0002915547229349613,0.0032499409280717373,-0.001589144580066204
1771956735377508000,9.419508056640625,-0.0015919581055641174,0.0007885154336690903,0.00018664624076336622
1771956735397471200,9.43947119140625,-0.0016794484108686447,0.0007267394103109837,0.002014104975387454
1771956735417433900,9.459433837890625,0.002208285266533494,-0.0011068601161241531,0.0026157412212342024
1771956735437397000,9.47939697265625,0.0008989139460027218,-0.0019335928373038769,0.0006915627745911479
1771956735457361000,9.49936083984375,0.0010383434128016233,-0.0030694473534822464,0.0007222018903121352
1771956735477324000,9.519323974609375,-0.00003860238939523697,0.0004663905128836632,-0.0022080005146563053
1771956735497287000,9.539286865234375,0.00019302917644381523,0.0016153668984770775,0.0003283318364992738
1771956735517250300,9.559250244140625,-0.0010359040461480618,0.003043075557798147,-0.0012710459996014833
1771956735537213400,9.57921337890625,0.002115296432748437,-0.0012012212537229061,0.0001877297181636095
1771956735557177300,9.59917724609375,-0.0003004996106028557,-0.001822013407945633,-0.0014723390340805054
1771956735577140200,9.61914013671875,-0.002317871432751417,0.00003645196557044983,0.001919840695336461
1771956735597103400,9.639103271484375,0.0009008338674902916,-0.002586232963949442,0.002560524269938469
1771956735617066500,9.65906640625,-0.00013284385204315186,0.0005174838006496429,-0.0013796553248539567
1771956735637029400,9.679029296875,0.00007264316082000732,0.0025605782866477966,-0.002251583384349942
1771956735656992500,9.698992431640624,-0.001348842866718769,0.0013138921931385994,-0.0005741415079683065
1771956735676956400,9.718956298828125,0.00020655663684010506,0.0007882802747189999,-0.0000010690419003367424
1771956735696919600,9.73891943359375,-0.00004658149555325508,-0.0026140515692532063,0.0010286434553563595
1771956735716882400,9.75888232421875,0.0013648050371557474,-0.0022852541878819466,0.002340161707252264
1771956735736845600,9.778845458984375,-0.0005711368285119534,0.002495334018021822,-0.0021326139103621244
1771956735756808200,9.79880810546875,-0.0008494323119521141,0.002393420785665512,0.00044414284639060497
1771956735776772400,9.8187724609375,-0.0013007400557398796,0.0010698381811380386,-0.0025438470765948296
1771956735796735200,9.8387353515625,0.0012830689083784819,-0.0030553294345736504,0.0010982418898493052
1771956735816698400,9.858698486328125,-0.000585570465773344,0.0013325689360499382,0.003621273208409548
1771956735836661200,9.8786611328125,-0.0001827557571232319,-0.0036849863827228546,0.00016653130296617746
1771956735856624400,9.898624267578125,0.00014744000509381294,-0.0024913358502089977,-0.00024695193860679865
1771956735876587300,9.918587158203126,0.0002631696406751871,0.00011140713468194008,0.000600809114985168
1771956735896551400,9.938551513671875,0.0014781670179218054,-0.00020144600421190262,-0.002436067909002304
1771956735916514300,9.958514404296874,-0.0004457947798073292,0.002127649262547493,0.00008456932846456766
1771956735936477400,9.9784775390625,0.0004556807689368725,-0.0003368174657225609,0.00021419033873826265
1771956735956440600,9.998440673828124,-0.0008509834297001362,-0.002503877505660057,0.002567543648183346
1771956735976403500,10.018403564453125,-0.00020783767104148865,-0.002376243472099304,-0.001292553497478366
1771956735996367400,10.038367431640625,-0.0011860453523695469,-0.00041351234540343285,0.0004843879723921418
1771956736016330500,10.05833056640625,0.0007041459903120995,0.001413203775882721,0.0009603177895769477
1771956736036293400,10.07829345703125,0.0002901137340813875,0.0002938751131296158,-0.0015050722286105156
1771956736056256300,10.09825634765625,-0.00206577917560935,0.0035749184899032116,0.0000884226756170392
1771956736076219400,10.118219482421875,0.0006911703385412693,-0.0012659472413361073,0.00244636507704854
1771956736096183300,10.138183349609376,0.00019020959734916687,-0.0030798749066889286,0.00037889822851866484
1771956736116146400,10.158146484375,-0.0005219047889113426,0.0000094645656645298,0.0011486270232126117
1771956736136109300,10.178109375,-0.0007958328351378441,-0.0015769675374031067,-0.000966009043622762
1771956736156072400,10.198072509765625,-0.001622137613594532,0.0007917438633739948,-0.00011509290197864175
1771956736176035300,10.218035400390624,0.0030029844492673874,0.002338252030313015,-0.001199626480229199
1771956736195998500,10.23799853515625,-0.00047909142449498177,-0.0002058008685708046,0.001019375049509108
1771956736215962400,10.25796240234375,-0.001603378914296627,-0.0016817254945635796,0.0013002584455534816
1771956736235925500,10.277925537109375,0.0009394078515470028,-0.00002404768019914627,0.0013205886352807283
1771956736255888400,10.297888427734375,-0.00039771758019924164,-0.0010722256265580654,-0.0009221922373399138
1771956736275851500,10.3178515625,-0.0015748674049973488,0.0014235363341867924,-0.0020319106988608837
1771956736295814400,10.337814453125,-0.000020821578800678253,-0.00014117220416665077,-0.0016776805277913809
1771956736315778600,10.357778564453126,0.0006972504779696465,0.0015137596055865288,0.0026886840350925922
1771956736335741200,10.3777412109375,0.0018163786735385656,-0.0008008396252989769,0.000824927119538188
1771956736355704300,10.397704345703126,0.0017842995002865791,-0.0033747628331184387,-0.0009728202712722123
1771956736375667500,10.41766748046875,-0.000574606005102396,-0.0014712908305227757,0.000797131797298789
1771956736395630300,10.43763037109375,-0.00025028176605701447,-0.0009732507169246674,-0.002110980451107025
1771956736415593500,10.457593505859375,0.00022144103422760963,0.0009843274019658566,-0.0006752557819709182
1771956736435557400,10.477557373046874,0.0021029477939009666,0.000728242564946413,-0.0003735393984243274
1771956736455520500,10.4975205078125,-0.0013525593094527721,0.00026600249111652374,-0.0010564563563093543
1771956736475483400,10.5174833984375,0.0000827922485768795,-0.001654115505516529,0.000981079530902207
1771956736495446500,10.537446533203125,-0.000170866958796978,0.051251769065856934,0.07006233930587769
1771956736515409200,10.5574091796875,-0.0034293741919100285,0.03984164819121361,0.011087015271186829
1771956736535373600,10.57737353515625,0.0002857353538274765,-0.044511578977108,-0.06556382030248642
1771956736555336200,10.597336181640625,0.0017006939742714167,-0.0468938946723938,-0.02640005573630333
1771956736575299300,10.61729931640625,0.005187535658478737,-0.004782835487276316,-0.005482805892825127
