time,seconds_elapsed,z,y,x
1771956838104898800,0.07489892578125,0.030665187376737593,0.0039684652395546435,-0.013253540658298878
1771956838124861700,0.09486181640625,-0.029932196927070616,0.033697906136140224,0.007756733340304345
1771956838144824800,0.114824951171875,0.014946224719285963,0.011567834327369927,-0.033214689196459944
1771956838164787700,0.13478759765625,0.03901157543957233,0.01001446740552783,0.0008272994033060967
1771956838184750800,0.154750732421875,-0.03539572302997112,0.028435784356854853,-0.034379988382477314
1771956838204713700,0.174713623046875,-0.0716208826214075,-0.040757724987156685,0.01841601972170174
1771956838224676600,0.194676513671875,-0.03418634724020958,-0.044780989153869445,0.020796841310476884
1771956838244639700,0.2146396484375,-0.034760347735881804,0.014673837518692015,-0.01188108326131478
1771956838264601600,0.2346015625,-0.011691022315621375,-0.005932824115082621,-0.004795709843933582
1771956838284564700,0.254564697265625,0.032922026392817494,0.008905008326284587,-0.012574828545982018
1771956838304528000,0.27452783203125,-0.011824877828359602,0.017242226701974867,0.001496987958950922
1771956838324490800,0.29449072265625,-0.026046879926323888,-0.012652085900120437,-0.012241998128732666
1771956838344454000,0.314453857421875,0.024676760616898535,-0.015913754577189684,-0.00227768087470904
1771956838364416500,0.33441650390625,-0.024404373416304588,-0.004963979082927107,0.022075601675175128
1771956838384379600,0.354379638671875,-0.010492167919874191,-0.0006662088237702846,-0.020723931337893006
1771956838404342500,0.374342529296875,-0.01979483379423618,0.017429675565473736,-0.03239110698704607
1771956838424305700,0.3943056640625,-0.014720599269866942,0.0022214023765176534,-0.003827321469504386
1771956838444268800,0.414268798828125,-0.04526011444032192,-0.025650172226317224,0.01793580758986063
1771956838464231700,0.434231689453125,-0.022507015362381935,-0.02205602019187063,0.02488036603075452
1771956838484194800,0.45419482421875,-0.02293196277618408,0.005856836269423365,-0.014583346223644912
1771956838504157700,0.47415771484375,0.012706336838006973,0.00990044910442084,0.006421256085997447
1771956838524120800,0.494120849609375,-0.016012392646074295,0.003507350533828139,-0.0053355797411408275
1771956838544082700,0.514082763671875,-0.018258125746250152,0.008285086329653859,-0.025263054338563233
1771956838564045600,0.534045654296875,0.00014788403809070586,-0.005931545473448932,-0.006014145722985267
1771956838584008700,0.5540087890625,-0.008237082469463348,-0.005585873840935528,0.008567720929626375
1771956838603971800,0.573971923828125,-0.011839490875601768,-0.0049825011203065515,-0.010089898128760977
1771956838623934700,0.593934814453125,-0.01289163027703762,0.001400039523653686,0.0013884678168687968
1771956838643897900,0.61389794921875,-0.007220014381408691,-0.0033609643330797553,-0.01162752862535417
1771956838663860700,0.63386083984375,-0.015458265894651413,-0.004117993245460093,0.007538478346588089
1771956838683823900,0.653823974609375,-0.03447217844426632,-0.010400069189630448,-0.010492889439081773
1771956838703786800,0.673786865234375,-0.009925766208767891,-0.012936821125634013,0.0003473247334826737
1771956838723749600,0.69374951171875,-0.022476035702228545,-0.0041104309935122724,-0.002510895975539461
1771956838743712800,0.713712646484375,-0.01243804129064083,-0.005909625902585685,-0.007509115254785865
1771956838763675600,0.733675537109375,-0.003156418204307556,0.0062016676517203445,0.0032463432437740266
1771956838783638800,0.753638671875,-0.009747487032413482,0.0020212401619181036,-0.021628488095337524
1771956838803601000,0.773600830078125,-0.009901216289401054,0.012797558785416186,-0.021427631760993972
1771956838823563800,0.793563720703125,-0.01887771894931793,-0.014658895677886903,-0.009061733257956802
1771956838843527000,0.81352685546875,0.005962707796692848,-0.019589447415247558,0.0077304115889593955
1771956838863489800,0.83348974609375,0.007756605476140975,0.011831636362709104,-0.011075219371682033
1771956838883452700,0.85345263671875,-0.01633972490429878,0.006257160698622465,0.01565134078133851
1771956838903415600,0.87341552734375,-0.023377368456125258,-0.00510360674932599,0.008063324204599485
1771956838923378700,0.893378662109375,-0.02756488327383995,-0.01885645696558058,0.00678849109634757
1771956838943341800,0.913341796875,-0.020076573345065116,-0.01653685491159558,-0.006554865003563463
1771956838963304700,0.9333046875,-0.013630465945601463,-0.01057107837498188,-0.0005099040172062814
1771956838983267800,0.953267822265625,-0.0091454294860363,-0.014561353587545454,-0.008079553820192813
1771956839003230700,0.973230712890625,-0.011685761618614196,-0.010974069685302673,-0.0001259736003819853
1771956839023193900,0.99319384765625,-0.007642623707652092,0.013427454186789691,-0.004603511740081012
1771956839043156700,1.01315673828125,-0.013628712379932403,-0.003184438722394407,-0.0017128317998722194
1771956839063118600,1.03311865234375,-0.009595511341094971,-0.005907251282408833,-0.014756821360718458
1771956839083081700,1.053081787109375,-0.00017827917635440825,-0.013043825164064764,-0.015390945412637665
1771956839103044900,1.073044921875,-0.0145481653124094,-0.0025994053760543465,-0.004870400781650096
1771956839123007700,1.0930078125,-0.004517185163497924,-0.0026861703440546987,-0.002668525089509785
1771956839142971000,1.112970947265625,-0.022315292182564735,0.004125993888825178,0.009217252613231539
1771956839162933800,1.132933837890625,-0.015123919373750686,-0.005438756987825036,0.0029884412262588737
1771956839182897000,1.15289697265625,-0.02260170790851116,0.010914850311353802,-0.009729047193424776
1771956839202859500,1.172859619140625,-0.011669395005702972,-0.008935768790729343,-0.014409377896226941
1771956839222822700,1.19282275390625,-0.022135843962430953,-0.016022037257254124,0.0018175616828259079
1771956839242785800,1.212785888671875,-0.0067179100781679145,-0.009867606280744075,0.008602655245689674
1771956839262748700,1.232748779296875,-0.014641688814759253,0.00042670097947120663,-0.01074374066130258
1771956839282711800,1.2527119140625,0.0016635492980480193,-0.003958893693611025,-0.01226159787834622
1771956839302674700,1.2726748046875,-0.012550854015350341,-0.003808488904871046,-0.01342653173818253
1771956839322637800,1.292637939453125,-0.02960661823451519,-0.011600165694393217,0.004925272774044424
1771956839342600000,1.312599853515625,-0.021230419555306433,0.00110478290412575,-0.011486357455840333
1771956839362562600,1.3325625,-0.00941080242395401,-0.008255677572079002,-0.019595064305281264
1771956839382525700,1.352525634765625,-0.005965045884251594,-0.01531615401022136,-0.004943164623761549
1771956839402488800,1.37248876953125,-0.015393383964896201,-0.00032598055135458706,-0.03168844774356112
1771956839422451700,1.39245166015625,-0.019725860211253166,-0.004838781800679862,0.009651561510423198
1771956839442414800,1.412414794921875,-0.01941547908782959,0.0035207945372909303,-0.0023095007850788534
1771956839462377700,1.432377685546875,-0.020459435182809828,-0.008427015550993382,-0.002407353402674198
1771956839482340900,1.4523408203125,-0.012383680754899979,-0.023112908833660184,0.0003245375129394233
1771956839502303700,1.4723037109375,-0.017468436673283575,-0.018807247528992592,-0.0031194745942484587
1771956839522267000,1.492266845703125,-0.01461480080783367,-0.014679317411407827,0.012747417767066508
1771956839542229800,1.512229736328125,-0.024493220743536947,0.008107574338279664,-0.005553487674985081
1771956839562192600,1.532192626953125,-0.014769699108600615,0.0018665975894778966,0.004005244452832266
1771956839582155800,1.55215576171875,-0.030480478459596633,-0.006655695029534399,0.004008915980951861
1771956839602119000,1.572118896484375,-0.009972527959942816,0.0006079392978921533,-0.013654851468186825
1771956839622082000,1.59208203125,-0.03076806322932243,-0.00922792013771832,-0.011446591701032594
1771956839642045000,1.612044921875,-0.0030798458367586132,-0.01659260368682444,-0.007197117563011124
1771956839662008000,1.632008056640625,-0.0021767595171928405,0.002434095279127359,-0.0074263597416225815
1771956839681971200,1.65197119140625,-0.017735563176870344,-0.0016625994499772786,-0.012029871481703593
1771956839701934000,1.67193408203125,-0.011449614775180816,-0.013040427630580961,-0.006124510762281716
1771956839721897200,1.691897216796875,0.004565700480341911,0.000950140331685543,0.0076483958613127465
1771956839741860000,1.711860107421875,-0.017728548914194106,-0.021530425415188074,-0.013025522322393953
1771956839761823200,1.7318232421875,-0.0038099136769771573,-0.0012781301770359277,-0.016827407956542445
1771956839781786000,1.7517861328125,-0.01757598870098591,-0.006836933347955346,-0.001099065549392253
1771956839801749000,1.7717490234375,-0.003957213193178177,-0.0007418678758665919,0.0006696520230267196
1771956839821712100,1.791712158203125,-0.017116554495692254,-0.006638634296879172,-0.01624506889078766
1771956839841675000,1.811675048828125,-0.01412029528915882,-0.009097644821554422,-0.026550180672807618
1771956839861637000,1.83163720703125,-0.011579378634691238,-0.009946918594650923,-0.00623691249503754
1771956839881600300,1.851600341796875,-0.0064963762819767,-0.010923435476608574,-0.01559667885149829
1771956839901563100,1.871563232421875,-0.017571312525868413,-0.016506240577623246,-0.011857446657400577
1771956839921526300,1.8915263671875,-0.009039631024003028,0.00522876749895513,0.005473462975025177
1771956839941489000,1.911489013671875,-0.0018599486529827117,-0.0022336773362010716,0.014785718661639838
1771956839961452000,1.9314521484375,-0.011138649129867553,-0.006553440231457352,0.00362917768205516
1771956839981415000,1.951414794921875,-0.032390111473202705,-0.005410663404501974,-0.007793284224718809
1771956840001378000,1.9713779296875,-0.015935820278525352,-0.015315277227386832,-0.012896242520073428
1771956840021341200,1.991341064453125,-0.010096446600556372,-0.022873656717687842,-0.017735508377943188
1771956840041304000,2.011303955078125,0.002021276694536209,-0.009370726141892372,-0.0026180644107516855
1771956840061267200,2.03126708984375,-0.00007014262676239014,0.000506269021704793,0.000042578766401857136
1771956840081230000,2.05122998046875,-0.016692776125669478,-0.00011372604016214609,-0.009227162085892632
1771956840101193200,2.071193115234375,-0.012361468923091888,-0.00582216681484133,-0.0034940983266104012
1771956840121156000,2.091156005859375,-0.028073417317867277,0.003868840789981186,-0.0020525029498618093
1771956840141118000,2.111117919921875,-0.012220599147677421,-0.01140325488280505,-0.006528570651682094
1771956840161081000,2.1310810546875,-0.009385667982697486,-0.0074275927174836396,0.002767263623094186
1771956840181044200,2.151044189453125,-0.007886953857541084,-0.023798005020990966,0.005287301886314526
1771956840201007000,2.171007080078125,-0.006693360158801079,-0.001121916702017188,0.013578927554609254
1771956840220970200,2.19097021484375,-0.025253683722019193,-0.00605838672351092,-0.009437352504162118
1771956840240933000,2.21093310546875,-0.02824059057831764,0.0045878392469137904,-0.005381245513772592
1771956840260896000,2.23089599609375,-0.004451718711853027,-0.019238113226927814,-0.01066300357528962
1771956840280859000,2.25085888671875,0.000488075777888298,-0.0071988985281437635,0.005727967459056526
1771956840300822000,2.270822021484375,-0.012837854263186455,-0.011002893920987843,-0.011580538545316085
1771956840320785200,2.29078515625,-0.023754969596862793,0.0020375702422112227,-0.013127402661135419
1771956840340748000,2.310748046875,-0.020925299128890035,0.0084858695987612,0.017465230936044827
1771956840360711200,2.330711181640625,-0.013289689683914184,0.006266293853148817,-0.0066175184436142445
1771956840380674000,2.350674072265625,-0.00895019917488098,0.0028645591182634234,0.003154116649366915
1771956840400637200,2.37063720703125,-0.02211363213062286,-0.0070340998878702515,-0.014829521270748228
1771956840420599000,2.39059912109375,-0.018378537255525587,-0.026610614756308493,-0.014550576465204357
1771956840440562000,2.41056201171875,-0.010298691174387932,-0.007684928479418158,-0.0003277432501781732
1771956840460525000,2.430525146484375,-0.011187164446711539,-0.005162753058038652,-0.004553105860250071
1771956840480488000,2.450488037109375,-0.011336802050471306,-0.004135784630477428,0.005094519260572269
1771956840500451000,2.470451171875,-0.01956219408214092,-0.0006556508971378207,-0.00379808624186553
1771956840520414200,2.490414306640625,-0.016721417698264122,-0.023281835659779607,-0.012201255126390606
1771956840540377000,2.510377197265625,-0.010139116698503493,0.013960355487093328,-0.007469322100514546
1771956840560340200,2.53034033203125,-0.007597615522146224,-0.004700177047587931,-0.01743796846978366
1771956840580303000,2.55030322265625,-0.006704466074705123,-0.012359642292186617,-0.005437871071835979
1771956840600266000,2.570265869140625,-0.009561609071493149,0.003429645655117929,0.01563699259557761
1771956840620228600,2.590228515625,-0.003425298273563385,0.0033516850480809807,-0.01913908243239857
1771956840640191500,2.61019140625,-0.01674187596440315,-0.0069356444820761675,-0.004083113728323951
1771956840660154400,2.630154296875,-0.027067455145716665,-0.029343766047246752,0.002764240548945963
1771956840680117200,2.6501171875,-0.002528641694784164,-0.006478475299105048,-0.0012002517683897167
1771956840700079400,2.670079345703125,-0.003867196822166443,-0.0036588878337293863,-0.007048110146913677
1771956840720042500,2.69004248046875,-0.004767360532283783,-0.014194237308204172,0.0013904223119374365
1771956840740005400,2.71000537109375,-0.01224456454515457,-0.004381356889382004,0.005957063507195562
1771956840759968500,2.729968505859375,-0.023755554118752478,0.005472549659572542,-0.0070290127207990735
1771956840779931600,2.749931640625,-0.022411153772473335,0.004790851005725562,-0.018719797574402765
1771956840799894500,2.76989453125,-0.0013169278174638747,-0.002587641873024404,-0.010240467314282431
1771956840819857400,2.789857421875,-0.020624270355701444,-0.00773220168724656,-0.005532636683201417
1771956840839820300,2.8098203125,-0.014637597161531447,-0.007592172162048518,0.00012323365402407943
1771956840859783400,2.829783447265625,-0.0002776478976011276,-0.003070493486523628,-0.013740986248524859
1771956840879746600,2.84974658203125,0.0006277765095233917,-0.000022869418933987616,-0.014723631477169692
1771956840899709400,2.86970947265625,-0.008805822268128394,-0.00296012844722718,-0.02868338417606428
1771956840919672600,2.889672607421875,-0.018078093004226685,0.0006364347400143742,-0.001062131072487682
1771956840939635500,2.909635498046875,-0.012093757897615432,-0.01887527126390487,-0.017515371954394503
1771956840959598600,2.9295986328125,-0.010605565166473388,-0.009107435563206673,0.0017559494223911313
1771956840979561500,2.9495615234375,-0.014802432334423065,0.0027267946153879162,0.0024803273073397574
1771956840999523300,2.9695234375,-0.017793430843949316,0.009824753519706428,0.00019325754977762697
1771956841019486500,2.989486572265625,-0.01360007080733776,0.01302252664770931,-0.0020675726548302917
1771956841039449300,3.009449462890625,-0.020485738667845727,-0.008315627598389982,-0.006235149796213955
1771956841059412500,3.02941259765625,-0.011656535524129867,-0.012222608441673218,0.0015685096920467912
1771956841079375600,3.049375732421875,-0.014937456890940665,0.0028071298426017165,-0.013964648069720715
1771956841099338500,3.06933837890625,-0.009548165068030356,-0.0003977671459317207,-0.003373750749416649
1771956841119301600,3.089301513671875,-0.012992168042063712,-0.01315221744198352,-0.0002294613743200898
1771956841139264300,3.10926416015625,-0.015388123267889022,0.009360825802385807,-0.018221282600890842
1771956841159227400,3.129227294921875,-0.02451484805345535,-0.009065824911184609,-0.004774301729723811
1771956841179190300,3.149190185546875,-0.014188099828362465,-0.00876326176803559,0.001033946157619357
1771956841199153400,3.1691533203125,-0.012843114960193634,-0.0024184958511963483,-0.009334613648895174
1771956841219116500,3.189116455078125,-0.009555763852596282,-0.002505808808468282,-0.003589603723492473
1771956841239079400,3.209079345703125,-0.010445406168699264,0.007082651737332343,-0.016891239573527127
1771956841259042600,3.22904248046875,0.0076648355394601814,-0.010660546756722032,-0.00709187622340396
1771956841279004700,3.249004638671875,-0.012693477356433868,0.0052457186337560415,-0.011491691218083723
1771956841298967300,3.26896728515625,-0.02048281605839729,-0.0035460020437836645,-0.01077361520975828
1771956841318930400,3.288930419921875,-0.01584521938562393,-0.002261332528106868,-0.011943490106193349
1771956841338893300,3.308893310546875,-0.009863806888461113,-0.0034522593457251786,0.0176998160100542
1771956841358856400,3.3288564453125,-0.018390812215209006,-0.012566489975899457,-0.001111797166801989
1771956841378819600,3.348819580078125,-0.013448095116019248,-0.014627331495843826,-0.011920602420950308
1771956841398782500,3.368782470703125,-0.013595394632220268,-0.0005974909691140055,-0.005744178808340802
1771956841418745600,3.38874560546875,-0.0038736265629529952,0.016161263064853847,0.006178789099631831
1771956841438708500,3.40870849609375,-0.013292612293362616,-0.0010557195980101823,-0.01901825993116945
1771956841458671600,3.428671630859375,-0.014331307691335678,-0.004182948240451514,-0.010596112351538612
1771956841478634200,3.44863427734375,-0.0028127193331718443,-0.005780227369256317,-0.000532124982168898
1771956841498597400,3.468597412109375,-0.019866145464777947,-0.011599471574649214,0.0073090809043496845
1771956841518560500,3.488560546875,-0.014925181931257248,-0.001385207280702889,0.015325871686637401
1771956841538523400,3.5085234375,-0.018519407030940054,-0.004488032134249806,-0.011898472787532954
1771956841558485500,3.528485595703125,-0.027203064224123955,-0.010817673547193407,-0.007932473499700426
1771956841578448600,3.54844873046875,-0.02929623711109161,0.0008103300021961331,-0.007823496699891984
1771956841598411500,3.56841162109375,-0.002366144609451294,-0.006444463431648909,-0.011052413884829729
1771956841618373600,3.58837353515625,-0.021364275068044662,-0.015727913148887454,-0.0019953020030632615
1771956841638336800,3.608336669921875,-0.003570259702205658,-0.004520217370800674,-0.0008227419591974466
1771956841658299600,3.628299560546875,-0.0023778350472450256,-0.008094203400053084,0.010029646708350628
1771956841678262800,3.6482626953125,-0.001322188514471054,-0.005489135468192398,-0.006119231798965483
1771956841698225700,3.6682255859375,-0.020920038431882858,-0.0028916663208976385,-0.01762449488467537
1771956841718188800,3.688188720703125,-0.015388123267889022,-0.010510288098454475,-0.0067869932590052485
1771956841738151700,3.708151611328125,-0.02975216418504715,-0.014264526065438985,-0.02316778995920904
1771956841758114800,3.72811474609375,-0.004767360532283783,-0.014490224580094217,-0.0011238437976222484
1771956841778077700,3.74807763671875,-0.012692892834544181,0.0000051145665347576134,-0.024572944049397482
1771956841798040600,3.76804052734375,-0.0185217451184988,-0.004400207720324397,0.0011982790070120244
1771956841818003700,3.788003662109375,-0.02032031897306442,-0.0014761734997853636,-0.025573243665741756
1771956841837965800,3.8079658203125,-0.018972411495447157,-0.003278327550925314,0.011005569935264066
1771956841857928700,3.8279287109375,-0.018075754916667935,-0.012709515175782143,-0.003073288231808692
1771956841877891800,3.847891845703125,-0.018677812463045118,-0.006152969671785831,-0.013488600656343623
1771956841897854700,3.867854736328125,0.0018237082958221435,0.005879267296940088,-0.0025447982451412827
1771956841917817600,3.887817626953125,-0.015084756407141684,-0.005654774358682334,-0.012419857179978861
1771956841937780700,3.90778076171875,-0.019874913293123245,-0.0013661737866699694,0.006575697729038074
1771956841957743600,3.92774365234375,-0.013739771538972854,0.013402575473859906,-0.025323159628501162
1771956841977706800,3.947706787109375,-0.00864917040169239,-0.003274966550059616,-0.019100010797334834
1771956841997669600,3.967669677734375,-0.013732757276296614,-0.007356902101449668,0.0038888058657757935
1771956842017632800,3.9876328125,-0.025999533653259275,-0.023564890384860336,-0.012315720952069386
1771956842037595600,4.007595703125,-0.017468436673283575,-0.0038009631855413315,-0.006197767794737592
1771956842057558800,4.027558837890625,-0.01657470270395279,0.00856653361953795,-0.009441709018871187
1771956842077522000,4.04752197265625,-0.03139291712939739,0.005871120523102581,0.002634485822590068
1771956842097484800,4.06748486328125,-0.018384382474422454,-0.011038294027931987,-0.010434592513740062
1771956842117446700,4.08744677734375,-0.013594225588440895,-0.012624722969159483,-0.01720611420897767
1771956842137409800,4.107409912109375,-0.015241992795467375,-0.0054654257990419865,0.0027763328455388545
1771956842157372700,4.12737255859375,-0.030807226195931434,-0.011018749077245593,0.004721786091197282
1771956842177335800,4.147335693359375,-0.00282031811773777,0.0035609438845887777,0.00021363361752592026
1771956842197298700,4.167298583984375,-0.0014805939465761184,0.004854271630756557,-0.009782393949013203
1771956842217261800,4.18726171875,-0.01360007080733776,0.007815203795582055,-0.015301979354396462
1771956842237224700,4.207224609375,-0.017041151171922682,0.008110971871763467,-0.014610362094733863
1771956842257187600,4.2271875,-0.004772036707401275,-0.004996748841367662,-0.008701749972300603
1771956842277150700,4.247150634765625,-0.020480477970838545,-0.002039469938352704,-0.018749873052258042
1771956842297113600,4.267113525390625,-0.007914426386356354,-0.009250935687124729,-0.0026416827483568338
1771956842317076700,4.28707666015625,-0.01315349608361721,-0.00442399045471102,-0.009523249822482467
1771956842337039600,4.30703955078125,-0.014942717587947844,0.002802234471775591,-0.0019950919405091554
1771956842357002800,4.327002685546875,-0.019879589468240737,0.003797346456348896,0.0009256178117822855
1771956842376966000,4.3469658203125,-0.005063128608465194,-0.01111216298174113,-0.023553291278611867
1771956842396927500,4.366927490234375,-0.026771102547645566,-0.003958893693611025,-0.008631287685129791
1771956842416890600,4.386890625,-0.00013385551273822782,-0.01293820936512202,-0.0012565759323537348
1771956842436853800,4.406853759765625,-0.010762217032909393,-0.009542612110078334,-0.003919137071957812
1771956842456816600,4.426816650390625,-0.028562077617645263,0.016937106275558472,-0.021601746218884364
1771956842476779800,4.44677978515625,-0.020179449197649954,0.005642535931617021,-0.012785037230560556
1771956842496742700,4.46674267578125,-0.025116321077942847,0.009644209321029483,-0.01845748424325138
1771956842516705800,4.486705810546875,-0.0022264438778162,0.0065873059684410686,-0.013511543140513822
1771956842536668700,4.506668701171875,0.007343933022022247,-0.009869834770448505,-0.02118570363074541
1771956842556631800,4.5266318359375,-0.01988601920902729,-0.011520488054305314,0.0018074330144561826
1771956842576594700,4.5465947265625,-0.01868774933516979,-0.00816102155856788,-0.015108520875219255
1771956842596557600,4.5665576171875,-0.016143910071253775,0.012464198645204304,0.007849188263574615
1771956842616521500,4.586521484375,-0.03215162654221058,0.014183898577280342,-0.024221929521486163
1771956842636484400,4.606484375,-0.028709377133846282,-0.003954655909910798,-0.00895072889784351
1771956842656447500,4.626447509765625,-0.0008750292688608169,-0.012276384455524383,-0.008525507489405572
1771956842676409600,4.64640966796875,-0.007004910326004028,-0.011285071863234042,-0.0031336035843007263
1771956842696372200,4.666372314453125,-0.016731354570388792,-0.007558817881718277,-0.02850328750195913
1771956842716335400,4.68633544921875,-0.014035539615154266,0.005340849571302533,-0.02460086410278454
1771956842736298200,4.70629833984375,-0.007899813339114188,0.002831058707460761,-0.002457850614050403
1771956842756261400,4.726261474609375,-0.0008627543091773986,0.0035169586123898625,-0.005504744029277935
1771956842776224300,4.746224365234375,-0.0019213234513998031,-0.013126169685274362,-0.005018010825105011
1771956842796187400,4.7661875,-0.011498130092024803,-0.01499068491552025,-0.0122891434723977
1771956842816150500,4.786150634765625,-0.018536358165740965,0.00042005204297602174,0.0035637477630283683
1771956842836113400,4.806113525390625,-0.015386369702219961,-0.0037967619344592093,-0.014345281417760997
1771956842856076500,4.82607666015625,-0.02825286553800106,-0.008080868994444608,-0.01310108090979047
1771956842876039200,4.8460390625,-0.021510990062355993,0.0021868425197899342,-0.006302187150437385
1771956842896002300,4.866002197265625,-0.01388064131438732,0.0009214987590909004,-0.011697123262844979
1771956842915965400,4.88596533203125,-0.01852057607471943,-0.013250745913013815,-0.007831068084994331
1771956842935928300,4.90592822265625,-0.014631751942634582,-0.00014846855998039245,0.020510955307492987
1771956842955890400,4.925890380859375,-0.017021861949563025,0.0027345029978081583,0.00655554999015294
1771956842975853600,4.945853515625,-0.017910335221886634,-0.0036760581642389296,0.0010310326813254506
1771956842995816400,4.96581640625,-0.005638298147916793,0.003469721937179565,-0.010528216480789705
1771956843015779600,4.985779541015625,-0.008781272348761558,0.012956329543702303,0.014340997968288138
1771956843035742200,5.0057421875,-0.020157237365841865,0.01517897402923554,-0.015506498083705082
1771956843055705300,5.025705322265625,-0.022554946157336234,-0.015126878515817224,-0.000001625701505690813
1771956843075668200,5.045668212890625,-0.015676292559504507,-0.01649166406299919,-0.017364738836791366
1771956843095631400,5.06563134765625,-0.011933014377951622,-0.007628923975862562,-0.00720336464070715
1771956843115594500,5.085594482421875,-0.010885551151633262,-0.008081343918479979,-0.007042027465999126
1771956843135557400,5.105557373046875,-0.01073532902598381,-0.00009450988303869962,-0.011600330091174692
1771956843155520500,5.1255205078125,-0.02030336783826351,-0.01603665030449629,-0.010332036321563645
1771956843175483400,5.1454833984375,-0.028536358654499053,-0.0038721652582287785,-0.007927925188746302
1771956843195446500,5.165446533203125,0.0004909983873367309,-0.014414967386797069,-0.0060243931223638355
1771956843215409200,5.1854091796875,-0.014023849177360534,-0.012197108674235641,0.0019739212883170694
1771956843235371300,5.205371337890625,-0.02570084296762943,0.0006441431224346161,-0.008533690795861184
1771956843255334400,5.22533447265625,-0.018515315377712248,0.0005433130964636803,-0.01089211788973771
1771956843275297300,5.24529736328125,-0.008641571617126465,-0.004208995997160673,-0.0239632968516089
1771956843295260400,5.265260498046875,-0.011039280408620834,0.004907645785808563,-0.0056627476025838406
1771956843315223600,5.2852236328125,-0.02899520833790302,-0.017544789845123886,-0.012428935535578056
1771956843335186400,5.3051865234375,-0.01357961254119873,-0.01860105743240565,-0.032111942985793576
1771956843355149300,5.3251494140625,-0.011786883905529975,-0.013438706233166158,-0.007382767195068299
1771956843375112200,5.3451123046875,-0.019568039301037787,-0.014747231548465788,-0.02440872079785913
1771956843395075300,5.365075439453125,-0.034082302343845364,-0.007806947423890233,-0.007873710783477872
1771956843415038500,5.38503857421875,-0.025414427241683003,-0.0017056348741054533,-0.01637771882712841
1771956843435001300,5.40500146484375,-0.008207271853089332,-0.0007871317896991968,-0.010537157839071006
1771956843454964500,5.424964599609375,-0.017787001103162763,-0.009553535362891852,0.007665876719076186
1771956843474927400,5.44492724609375,-0.00372048182785511,-0.003038783174008131,-0.0005406279490329324
1771956843494890500,5.464890380859375,-0.02257072824835777,0.005945683596655726,-0.014123838953115045
1771956843514852400,5.484852294921875,-0.01404138483405113,-0.006695040659233927,0.0031756617608945815
1771956843534815200,5.504815185546875,-0.01508709449470043,-0.012667831458523869,0.005213095005787908
1771956843554778400,5.5247783203125,-0.016731354570388792,0.012842128579504787,-0.007696162259485572
1771956843574741200,5.5447412109375,-0.004162964898347854,-0.010344941468909382,-0.004944963855203241
1771956843594704400,5.564704345703125,-0.014634674552083015,-0.010587919911928475,-0.008820499247452243
1771956843614667000,5.5846669921875,-0.023316578179597855,-0.017830401853471994,0.014392983883852139
1771956843634629600,5.604629638671875,-0.009851531928777694,-0.0032430370418354867,-0.013165022124629467
1771956843654592800,5.6245927734375,-0.023310732960700988,-0.01582110785767436,0.0025815500589553265
1771956843674556000,5.644555908203125,-0.03318856837451458,-0.003262326264195144,-0.009209991755383088
1771956843694518800,5.664518798828125,-0.014787234765291214,-0.018089783442020415,-0.011952467997092753
1771956843714482000,5.68448193359375,-0.017330489507317543,-0.0018313436130061745,-0.01514214001703076
1771956843734444800,5.70444482421875,-0.017933716097474097,-0.008416822950541972,-0.0028708244622685014
1771956843754408000,5.724407958984375,-0.014186346262693404,-0.0016943462951108813,-0.007178604658786207
1771956843774369800,5.744369873046875,-0.027802783682942388,-0.00956007470153272,0.00963017166252248
1771956843794332700,5.764332763671875,-0.020619009658694266,-0.009566102583520114,-0.013346607502922415
1771956843814295800,5.7842958984375,-0.005361819294095039,-0.005411503654718399,-0.0017928930324502287
1771956843834258700,5.8042587890625,-0.016137480330467222,-0.01209711889848113,0.0003093947427347302
1771956843854221800,5.824221923828125,-0.006258475872874259,0.0036272505864500997,-0.002053014406515285
1771956843874185000,5.84418505859375,0.008710545200109481,-0.014445800916478038,0.004861084964033216
1771956843894147800,5.86414794921875,-0.03169277685880661,-0.004546155529655516,-0.015166836066870018
1771956843914111000,5.884111083984375,-0.018673136287927626,-0.013790478812903165,0.004966728162439539
1771956843934073900,5.904073974609375,-0.020175357544422148,-0.003925904739461839,-0.020974636429641393
1771956843954037000,5.924037109375,-0.015085340929031372,-0.006943243266642093,-0.017369953868025912
1771956843973999600,5.94399951171875,-0.013742694148421287,-0.0055661096945405,-0.01978549971031025
1771956843993962800,5.963962646484375,-0.013599486285448074,-0.025262195822037755,-0.0174312921338249
1771956844013926000,5.98392578125,-0.0200379949003458,-0.018045907767675815,-0.007174650002876296
1771956844033887700,6.0038876953125,-0.023933833295106885,-0.011280176492407918,-0.006490330133680254
1771956844053851000,6.023850830078125,-0.008836217406392097,0.004911664373800158,-0.012096963634854182
1771956844073814000,6.04381396484375,-0.01781505815386772,0.008910743947327136,-0.010882199283922091
1771956844093777000,6.06377685546875,-0.005998948153853416,-0.002715761764720082,-0.005332136541884392
1771956844113739800,6.08373974609375,-0.021864625805616378,0.003601422025449574,-0.002377433188445866
1771956844133702700,6.10370263671875,-0.015571078619360922,-0.0066700888810679315,-0.012729936909303068
1771956844153665800,6.123665771484375,-0.0014969605594873428,-0.003190795397944748,-0.010864106504805385
1771956844173629000,6.14362890625,-0.023049451676011082,0.004061185024306178,-0.011986288068303838
1771956844193591800,6.163591796875,-0.016607435929775236,0.019219664254784583,-0.005467261563101783
1771956844213555000,6.183554931640625,-0.011815525478124618,0.008104286402650178,-0.006826448486559092
1771956844233517800,6.203517822265625,-0.012718027275800705,-0.0002497735099866986,-0.0054791437971405685
1771956844253481000,6.22348095703125,-0.02409749942421913,-0.018251878668554124,-0.005933600433217361
1771956844273443800,6.24344384765625,-0.008240005078911782,-0.013180055296979843,-0.010607857588259502
1771956844293405700,6.26340576171875,-0.02155658276975155,-0.007040968020074069,-0.003511953643709421
1771956844313368800,6.283368896484375,-0.014078209713101386,0.02121365108359605,-0.007015924910362809
1771956844333331700,6.303331787109375,-0.012429857984185218,-0.0030468203499913215,-0.011355853810813277
1771956844353294800,6.323294921875,-0.031135727497935292,-0.00034822891578078266,-0.025488624989055096
1771956844373258000,6.343258056640625,-0.01796761836707592,0.0010520298035815358,0.002617973079206422
1771956844393220900,6.363220947265625,-0.015126257461309432,-0.0004976473238319159,-0.013979516845289617
1771956844413184000,6.38318408203125,-0.009887772285938262,-0.009116641782969236,-0.010383017590129747
1771956844433147000,6.40314697265625,-0.011381225714087485,0.0058066769847646355,0.0023876988541334868
1771956844453109800,6.42310986328125,-0.021552491116523742,-0.00038677082788199184,-0.03042160614551976
1771956844473072600,6.44307275390625,-0.01542261005938053,0.010488624255917966,-0.0033597587566822763
1771956844493035800,6.463035888671875,-0.020965046617388725,0.003356361223198473,-0.024402857312653212
1771956844512999000,6.4829990234375,-0.012433365115523337,-0.006890818959660827,-0.013302001176215708
1771956844532961800,6.5029619140625,-0.007940145349502563,0.0006801642838865518,-0.015286115064984186
1771956844552924000,6.522923828125,-0.01706044039428234,-0.0005283347230404615,-0.003779701201803982
1771956844572887000,6.542886962890625,-0.005084171396493912,0.0012571239216253162,0.0011561112325638532
1771956844592849700,6.562849609375,-0.020799042400717734,-0.007861490622721613,-0.009072236385662107
1771956844612812800,6.582812744140625,-0.019299159231781958,0.0023594591403380033,-0.010591892834147437
1771956844632775700,6.602775634765625,-0.0163040690690279,-0.004731339370831847,-0.007758194645028561
1771956844652738800,6.62273876953125,-0.011220482194423675,-0.0015538418458774686,-0.0182677429579664
1771956844672701700,6.64270166015625,-0.01736146916747093,-0.013323336225189268,-0.0009900887495838105
1771956844692664600,6.66266455078125,-0.011532032361626624,-0.011276011773943901,-0.0015156195941846817
1771956844712627700,6.682627685546875,-0.016465981632471084,0.009937748907506466,-0.010111826832778751
1771956844732590600,6.702590576171875,-0.02035480576455593,-0.0056167439032346,-0.009084538744809105
1771956844752553700,6.7225537109375,-0.02350245614051819,0.011893632215633988,-0.01120198755650781
1771956844772516600,6.7425166015625,-0.023958383214473723,0.013746530073322355,-0.019718352758232503
1771956844792479700,6.762479736328125,-0.009295067089796065,-0.000945792950130999,-0.0063750971230212596
1771956844812441900,6.78244189453125,-0.020519640937447545,-0.009035247109830379,0.0038399069564417003
1771956844832404700,6.80240478515625,-0.03083528324663639,0.0034269787739962337,0.008566570152156054
1771956844852367600,6.82236767578125,-0.013320084822177886,-0.00019848171416670082,-0.00201571460342966
1771956844872330800,6.842330810546875,-0.006444353833794593,0.0021000775517895816,-0.007203675167961046
1771956844892293600,6.862293701171875,-0.027101941937208173,-0.011006291454471647,0.007511197614017874
1771956844912256800,6.8822568359375,-0.005704933643341064,-0.004069003004580736,-0.01485292954579927
1771956844932219600,6.9022197265625,-0.006006546938419342,-0.010582147758267818,-0.018340324136987326
1771956844952182800,6.922182861328125,-0.016339140382409096,0.002070011207088828,-0.023728236853564157
1771956844972146000,6.94214599609375,-0.008559738552570343,0.0136563675718382,-0.0038726401822641488
1771956844992108800,6.96210888671875,-0.026518589091300962,0.002302541321329772,-0.010030258629703893
1771956845012071700,6.98207177734375,-0.020689152285456657,-0.0053116234768182035,-0.009225024927733465
1771956845032034600,7.00203466796875,0.0027928455889225006,-0.000055127720721065994,-0.029576086098933592
1771956845051997700,7.021997802734375,-0.015465864679217338,-0.010138422578759491,-0.008028316823299974
1771956845071959800,7.041959716796875,-0.014417232409119605,-0.014363785188831388,-0.004110540591366589
1771956845091922700,7.061922607421875,-0.0012537994533777237,-0.003927804435603321,-0.01573436115598306
1771956845111885800,7.0818857421875,-0.022055179941654204,0.0021044614659622312,0.0034181470135692506
1771956845131848700,7.1018486328125,-0.037303602477908135,-0.005620433697663248,-0.008768686861824243
1771956845151811600,7.1218115234375,-0.010524316623806953,0.000043583413399755955,0.0016594119790475815
1771956845171774700,7.141774658203125,-0.01725683974921703,-0.0018905629869550465,-0.02013656903714873
1771956845191737600,7.161737548828125,-0.014119710767269134,-0.011271372131444513,-0.021490723592462017
1771956845211700700,7.18170068359375,-0.005433130964636802,-0.006715279729664326,-0.005126978491758928
1771956845231663600,7.20166357421875,-0.003039513826370239,0.003066547963768244,-0.0037685861527454105
1771956845251626800,7.221626708984375,-0.015908932271599768,0.005051328572817147,-0.002911649663001299
1771956845271589600,7.241589599609375,-0.020098785176873205,-0.012320333195105195,-0.010072654733015224
1771956845291552800,7.261552734375,-0.012615151423215865,-0.01053293832167983,0.014789636784931644
1771956845311516000,7.281515869140625,-0.024292729735374448,-0.007256583532132208,-0.004556622124742716
1771956845331477800,7.301477783203125,0.001592237627506256,-0.016525931658782064,0.0028007549007423222
1771956845351440600,7.321440673828125,-0.012623919251561163,0.013020882679894565,-0.00735799807999283
1771956845371403800,7.34140380859375,-0.018457447710633276,-0.0003673720076680183,-0.015169265485974028
1771956845391366700,7.36136669921875,-0.01650982077419758,-0.0035804523026570674,-0.01005858967504464
1771956845411329800,7.381329833984375,-0.019204466685652732,-0.013237192311696707,-0.00884144157078117
1771956845431292700,7.401292724609375,-0.01606967579126358,-0.014076858006231485,0.00525884297681041
1771956845451255800,7.421255859375,-0.01787000321149826,-0.0198098121676594,-0.02500475046224892
1771956845471219000,7.441218994140625,-0.011889175236225128,-0.009020816725678742,-0.012521034265821799
1771956845491181600,7.461181640625,-0.007698737809062004,-0.002037241448648274,-0.009555900849914178
1771956845511144700,7.481144775390625,-0.020711364117264746,0.0053430049957707525,-0.007511188480863347
1771956845531107600,7.501107666015625,-0.010536007061600685,0.0028561200834810734,-0.022221531218197196
1771956845551070700,7.52107080078125,-0.019368132814764974,-0.01007138522453606,0.00039149266877211626
1771956845571032800,7.54103271484375,-0.013537526965141296,-0.01713098487984389,-0.009975998558662831
1771956845590995700,7.56099560546875,-0.00964519570171833,-0.006160933782532811,-0.02041218024129048
1771956845610959600,7.580959716796875,-0.021911387556791305,-0.007210844694264233,-0.006571761339437216
1771956845630922500,7.600922607421875,-0.017570143482089042,0.00696516283750534,-0.011106491292780265
1771956845650885400,7.620885498046875,-0.03133855659365654,-0.008266491227038205,-0.021047747331624848
1771956845670848300,7.64084814453125,-0.03194178318381309,0.015050525343976913,-0.015944496775325386
1771956845690811400,7.660811279296875,-0.011591653594374656,0.003202668498829007,-0.0023140673623420296
1771956845710774500,7.6807744140625,-0.019672668719291686,-0.006311228973418474,0.005932221326883882
1771956845730737400,7.7007373046875,-0.019376900643110276,-0.010435359698720276,-0.014036416397988796
1771956845750700500,7.720700439453125,-0.03853519009947776,-0.01631203317977488,0.0017551274384837597
1771956845770663400,7.740663330078125,-0.02491758363544941,-0.006909596725367009,0.004035383862769231
1771956845790626600,7.76062646484375,-0.013254033848643302,-0.008356836391612887,-0.007385023084236308
1771956845810588400,7.78058837890625,-0.027028292179107665,0.010779168167710304,-0.01789940283591859
1771956845830551300,7.80055126953125,-0.028981179812550543,0.0031418416896834968,0.006429457658762112
1771956845850514400,7.820514404296875,-0.006692191115021705,0.0004418985486030578,-0.007154210003046319
1771956845870477300,7.840477294921875,-0.011791560080647467,-7.671849802136421e-7,0.0029915373656433076
1771956845890440400,7.8604404296875,-0.006250292566418647,-0.0032523163268342614,-0.013408959548873826
1771956845910403600,7.880403564453125,-0.01941547908782959,0.01542213513534516,-0.004441233850456774
1771956845930366500,7.900366455078125,-0.0322901582300663,-0.0022437238061800598,0.0068740230884868645
1771956845950329600,7.92032958984375,-0.009844517666101456,-0.0013642010252922772,-0.010459845686005428
1771956845970292500,7.94029248046875,-0.010154314267635346,0.010276296679489315,-0.008424284737790003
1771956845990255400,7.96025537109375,-0.025119828209280968,-0.006946458137035369,0.011983155396301298
1771956846010218500,7.980218505859375,-0.00806581755578518,-0.0035858956627547738,-0.01134142342666164
1771956846030181400,8.000181396484376,-0.030066052439808845,0.00476173450909555,-0.014236925672460347
1771956846050143500,8.0201435546875,-0.009418985730409621,-0.0007099749002605676,0.0091947119878605
1771956846070106600,8.040106689453125,-0.017650222980976103,0.00011851181313395499,-0.019225399875827134
1771956846090069500,8.060069580078125,-0.020490999364852904,-0.021067922469973563,-0.003004981369106099
1771956846110032600,8.08003271484375,-0.02258475677371025,-0.006017616321705281,-0.0020281722262036053
1771956846129995300,8.099995361328125,-0.0038841479569673536,-0.002002645059302449,0.008711294118780643
1771956846149958400,8.11995849609375,-0.017506430596113204,0.0035533085674047467,0.001638332658400759
1771956846169921300,8.13992138671875,-0.02948328411579132,0.014414200201816855,-0.0033314459776505826
1771956846189884400,8.159884521484376,-0.018262801921367644,0.009534026944823562,-0.0031586101613938805
1771956846209847600,8.17984765625,-0.03890928410887718,-0.01421305160652846,-0.007358226408855989
1771956846229810400,8.199810546875,-0.012711013013124465,-0.0004357610687613487,-0.014811455891095102
1771956846249773600,8.219773681640625,-0.011972177344560622,-0.0001451440917328,-0.009933575055887923
1771956846269736400,8.239736328125,-0.02618365804851055,0.004540602571703493,-0.009708735057758168
1771956846289698300,8.2596982421875,-0.016752981880307195,-0.00874685862250626,-0.008914223679201676
1771956846309661400,8.279661376953126,-0.019143676409125326,0.009799472947977483,-0.020081158188637344
1771956846329624300,8.299624267578125,-0.012263853767514227,-0.004442366361618042,-0.0035778858862351623
1771956846349587500,8.31958740234375,-0.02497837391197681,0.0012742577195167541,-0.0242716412815731
1771956846369550600,8.339550537109375,-0.014506664258241653,-0.004415770615637302,-0.003771189101785421
1771956846389513500,8.359513427734376,-0.01421440331339836,-0.0013887509446591137,-0.004793864946719259
1771956846409476600,8.3794765625,-0.008079846081137657,-0.0012322086760774254,-0.006236821163492277
1771956846429439500,8.399439453125,-0.0074812956660985945,0.010310345079563557,-0.005550181473046541
1771956846449402600,8.419402587890625,-0.0103261637032032,0.013634411468356847,0.002869527554325759
1771956846469365200,8.439365234375,-0.02603869661986828,0.009604133038967847,-0.006374055943405255
1771956846489328400,8.459328369140625,-0.015557050094008444,0.013737068125233053,-0.017008089152537285
1771956846509291500,8.47929150390625,-0.010168927314877509,0.0004731704697012901,-0.0003477905243635177
1771956846529253400,8.49925341796875,-0.01645604476034641,0.004438749632425606,-0.021600540642486885
1771956846549216500,8.519216552734376,-0.021250877821445465,0.013131576512753963,-0.011392687823018059
1771956846569179600,8.5391796875,-0.02902735704183578,0.02134001740962267,0.0034268691761419174
1771956846589142500,8.559142578125,-0.037110710254311556,0.006996471291221678,-0.010038149675214663
1771956846609105000,8.57910498046875,-0.004790741407871246,0.0018994404131546616,0.012145716413715854
1771956846629067800,8.59906787109375,-0.013767244067788124,-0.0050150516830384725,-0.009474195649521424
1771956846649031000,8.619031005859375,-0.013619360029697417,0.004850874097272753,-0.0046153117757290595
1771956846668994000,8.638994140625,0.0020949264526367185,-0.0015516133561730384,-0.0013540084248408674
1771956846688957000,8.65895703125,0.001050970357656479,0.009970774394273758,-0.009297925767162814
1771956846708920000,8.678920166015626,-0.013460370075702666,0.0002050941180437803,-0.009470514988247304
1771956846728883000,8.698883056640625,-0.01766132889688015,-0.002442315118201077,-0.017027414907515047
1771956846748846000,8.71884619140625,-0.02663373990356922,0.002491341891698539,-0.01019391562566161
1771956846768808000,8.738807861328125,-0.014971943682432173,-0.006674545860476792,-0.012959434816241264
1771956846788770800,8.758770751953126,-0.00015489830076694487,-0.0009539397239685058,-0.00251169969313778
1771956846808734000,8.77873388671875,-0.008244681254029274,-0.00228814746979624,-0.011046796994796023
1771956846828697000,8.798697021484376,-0.007197218027710914,0.005071458045393228,-0.00395197076248005
1771956846848660000,8.818659912109375,-0.008547463592886924,0.012289645795896649,-0.007355659992434084
1771956846868623000,8.838623046875,-0.02157002677321434,0.005794365492463111,0.008316002057725563
1771956846888586000,8.8585859375,-0.0269569805085659,0.005389328355528414,0.001734221647772938
1771956846908549000,8.878549072265624,-0.02455927171707153,-0.028554551898315548,-0.0008938527003396301
1771956846928511700,8.89851171875,-0.02351239301264286,-0.01419880388546735,-0.0055983862626366315
1771956846948475000,8.918474853515624,-0.023964812955260276,0.012575842326134443,0.007189381781127303
1771956846968438000,8.93843798828125,-0.016031097346544263,0.005642280203290283,-0.0082045227735769
1771956846988399900,8.95839990234375,-0.018724574214220045,-0.002249167166277766,0.00006880005304701626
1771956847008363000,8.978363037109375,-0.03069792060256004,0.001982844380289316,-0.01735929547669366
1771956847028326100,8.998326171875,-0.022322306445240973,-0.001695040414854884,0.0004334595138207078
1771956847048289000,9.0182890625,-0.0239724117398262,0.010626973280683159,-0.00247541367020458
1771956847068252000,9.038251953125,-0.01828092209994793,-0.008550495800189673,0.006125844202842563
1771956847088214800,9.05821484375,-0.0218722245901823,0.0026227497190237045,0.004145575372129678
1771956847108178000,9.078177978515624,-0.014990648382902145,0.023472280197963116,0.008186457393923773
1771956847128140800,9.098140869140625,-0.010808978784084319,0.014829685667529702,0.0038542825416661795
1771956847148104000,9.11810400390625,-0.025772154638171195,0.008227218662574887,-0.005552464761678129
1771956847168067000,9.138067138671875,-0.023680735316872596,-0.016303009623102844,-0.007364857079042122
1771956847188030000,9.158030029296874,-0.020395137774944304,-0.0018226488498970866,-0.0013379158065654337
1771956847207993000,9.1779931640625,-0.04149170181751251,-0.0008138371335342526,0.012914262233953921
1771956847227955000,9.197954833984374,-0.015453005197644233,0.007354527481272816,0.0007132537027355284
1771956847247917800,9.217917724609375,-0.00976502268910408,0.030629129682667552,0.003731861738394946
1771956847267881000,9.237880859375,-0.00827098473906517,0.005304901475086808,-0.006855437119025737
1771956847287843800,9.25784375,-0.00916764131784439,-0.0006917451238259673,-0.003039559492142871
1771956847307807000,9.277806884765624,-0.013065233278274536,0.007280110538192093,-0.0026989202277734876
1771956847327770000,9.29777001953125,-0.01186637888252735,0.0057497956983745095,-0.004979852505493909
1771956847347733000,9.31773291015625,-0.02862052980661392,0.0027700127026066184,-0.0010222648529801517
1771956847367696100,9.337696044921875,-0.016045125871896743,-0.00048314387444406745,-0.001181729731010273
1771956847387659000,9.357658935546874,-0.01679389841258526,0.0020246011627838016,0.006449760661274194
1771956847407622000,9.377621826171875,-0.024873744493722913,0.013974822403863071,-0.010293266080599278
1771956847427584800,9.397584716796874,-0.01963935097157955,-0.0011151947002857924,0.013536303122434765
1771956847447547000,9.417546875,-0.010661094745993614,0.004683408575877547,-0.0014713237947318702
1771956847467510000,9.437510009765624,-0.026670564782619473,-0.0026944632483646273,0.008408173853205516
1771956847487473000,9.457472900390625,-0.017235796961188314,-0.01002608477808535,-0.014832909671077504
1771956847507436000,9.47743603515625,-0.02307107898592949,0.00811166599150747,-0.0030455325752031057
1771956847527399200,9.497399169921875,-0.03070493486523628,0.011458711397089063,-0.028115977817960082
1771956847547361800,9.51736181640625,-0.016640169155597687,0.010025573321431875,-0.002167407166957855
1771956847567325000,9.537324951171875,-0.012309446474909782,-0.007179134381748735,0.003520703205745667
1771956847587287800,9.557287841796875,-0.009918167424201966,-0.0060341655977070325,-0.008224770977161825
1771956847607251000,9.5772509765625,-0.013356325179338454,0.002653619781322777,-0.010202592122461647
1771956847627214000,9.597214111328125,-0.023377952978014944,0.004004084542207419,-0.009328622299525887
1771956847647177200,9.61717724609375,-0.028476152899861332,-0.01843012131229043,-0.008759352777898312
1771956847667139300,9.637139404296875,-0.016799743631482122,0.004625321713089943,-0.010428957357397302
1771956847687102200,9.657102294921875,-0.024433599510788915,-0.010728387828543781,-0.020696714537404477
1771956847707065000,9.677065185546875,0.002800444373488426,-0.020627412160858512,-0.01975233722622506
1771956847727028200,9.6970283203125,-0.0036339725881814953,0.004983085642196238,0.003667911390401423
1771956847746991000,9.7169912109375,-0.010219196197390555,0.0003827157072722912,-0.0066633851456455884
1771956847766954200,9.736954345703126,-0.012608721682429313,0.012573650369048117,-0.010729292010841891
1771956847786917000,9.756917236328125,-0.0049789574563503265,-0.005840981113165617,-0.0042336281149182465
1771956847806880300,9.77688037109375,-0.020538345637917517,0.00890570244602859,-0.0017490904233418403
1771956847826843100,9.796843017578125,-0.018894085562229157,-0.010299239163659513,-0.011458464801916852
1771956847846806300,9.81680615234375,-0.013654431343078612,0.001933306150138378,-0.014844399179471656
1771956847866769400,9.836769287109375,-0.008117255482077599,-0.0011815379347652195,-0.006156056678015738
1771956847886732000,9.85673193359375,-0.00901858823597431,-0.010678009348176419,-0.006379124844167381
1771956847906694100,9.876694091796875,-0.01904547673165798,0.006869849236868322,0.0007644633001647889
1771956847926657300,9.8966572265625,-0.010811901393532752,0.010343224435858427,-0.02358155839187093
1771956847946620200,9.9166201171875,-0.020389877077937126,-0.00846972218155861,-0.0015937993969302624
1771956847966583300,9.936583251953126,-0.02518237205147743,0.000548354597762227,-0.011103906610049306
1771956847986546200,9.956546142578125,-0.027568974927067755,-0.0027972295030951498,0.009830078148795291
1771956848006509300,9.97650927734375,-0.019191022682189942,0.00036773733384907244,0.001067565299430862
1771956848026472200,9.99647216796875,-0.011702128231525421,-0.003189151430130005,0.0025785361179616302
1771956848046435000,10.01643505859375,-0.008861936369538307,-0.002255998765863478,-0.010723775585507973
1771956848066398200,10.036398193359375,-0.032660745108127595,0.0016419219881296156,0.007605031643621623
1771956848086361000,10.056361083984376,-0.010212766456604003,-0.00534811956230551,0.005179220135649666
1771956848106324200,10.07632421875,-0.0016758242577314376,-0.007025806983560323,-0.00001697853426449001
1771956848126286300,10.096286376953126,-0.012751929545402526,-0.004981587804853916,-0.014403477878402918
1771956848146249200,10.116249267578125,-0.010652911439538,0.004216594781726598,0.0007171078939456492
1771956848166212400,10.13621240234375,-0.0009247136294841766,0.01149312512334436,0.004627422338631003
1771956848186175200,10.15617529296875,-0.028904022923111915,0.003825403507053852,-0.022295948161277918
1771956848206138000,10.17613818359375,-0.02022445738315582,0.0037868250623345374,-0.012189445957588032
1771956848226101200,10.196101318359375,-0.005559387692809104,0.001954166275076568,0.003724673945782706
1771956848246064000,10.216064208984376,-0.01918108581006527,0.0002366583000868559,0.006431339088594541
1771956848266027300,10.23602734375,-0.015139116942882537,-0.004288783235102892,0.004156224630307406
1771956848285990100,10.255990234375,-0.02277121925652027,-0.006136237732693553,-0.010449607419781386
1771956848305953300,10.275953369140625,-0.029653379985690113,0.005184526498429477,-0.013105035565700382
1771956848325916400,10.29591650390625,-0.01603577352166176,0.011173574312776326,-0.00611758783115074
1771956848345878000,10.3158779296875,-0.014244798451662063,0.0009413359707221388,-0.01211507468027994
1771956848365841200,10.335841064453126,-0.021117022308707236,0.0012958484968170524,-0.009061167002376169
1771956848385804300,10.35580419921875,-0.022162731969356534,0.004084419769421219,-0.0184736407936085
1771956848405767200,10.37576708984375,-0.014080547800660132,0.0041104309935122724,-0.0007797156682237982
1771956848425730300,10.395730224609375,-0.011090718334913253,-0.007923121149465442,0.0069949003886431455
1771956848445693200,10.415693115234374,-0.002855389431118965,0.007976531837135552,0.002404010668117553
1771956848465656300,10.43565625,-0.03338146059811115,0.008395853227749467,-0.013091299301292747
1771956848485619200,10.455619140625,-0.016020575952529908,0.00013301526252180337,-0.007551209963997826
1771956848505582000,10.47558203125,-0.009887772285938262,0.015349727486260234,-0.009865706584602594
1771956848525545200,10.495545166015624,-0.01511982772052288,0.008437281216681003,-0.011454884605342521
1771956848545507000,10.515507080078125,-0.017664836028218268,-0.009164645643159747,0.01753418625271879
1771956848565470200,10.53547021484375,-0.010032149192690848,0.006753748576529324,0.005560182277252897
1771956848585433300,10.555433349609375,-0.10270517219305038,0.02231660735681653,-0.03633086672192439
1771956848605396200,10.575396240234374,0.2162526409178972,-0.03129636141974479,0.014386709406692533
1771956848625359400,10.595359375,-0.23831483512222765,0.02284190987255424,-0.027341020523244514
1771956848645322200,10.615322265625,0.04393266522884369,-0.08422934857551008,0.06948198916288092
1771956848665285000,10.63528515625,-0.03534837675690651,0.039995252714678645,0.005474522420950234
1771956848685248300,10.655248291015624,0.0019376900643110274,0.04255677376575768,-0.03996009006975219
1771956848705211100,10.675211181640625,-0.02138531785607338,-0.009006240211054683,-0.020218466033786534
