time,seconds_elapsed,z,y,x
1771956825039435800,0.076435791015625,-0.007379004335403442,-0.003837861129827797,-0.05147900722147897
1771956825059399000,0.09639892578125,0.030632454150915145,0.058603580138087266,0.0076146762548014515
1771956825079361800,0.11636181640625,0.03253741098940372,0.0018504501722753047,-0.048584820149932054
1771956825099325000,0.136324951171875,-0.055342532515525816,-0.009276179726235567,-0.02897453087605536
1771956825119288000,0.1562880859375,-0.06584697539508343,-0.06416947063691913,0.048122810395061964
1771956825139250700,0.176250732421875,-0.049508419534564016,-0.07469550429377704,0.054860767747415225
1771956825159213800,0.1962138671875,-0.07983458421528339,0.013455145911313592,-0.03479292569807731
1771956825179176700,0.2161767578125,0.04575695804655552,0.016347214091010392,0.014449947368633002
1771956825199138800,0.236138916015625,0.026928923457860944,0.03368058967515826,-0.06601598441959358
1771956825219102000,0.25610205078125,0.0592471387386322,0.03135846687052399,-0.00217773676472716
1771956825239064800,0.27606494140625,-0.041936522975564,-0.025525522933341562,-0.012355358842713758
1771956825259028000,0.296028076171875,-0.06617898382842541,-0.0027767712369561196,-0.019867369307484478
1771956825278991000,0.3159912109375,0.04677227256894111,-0.019654219747148455,0.005596203438704833
1771956825298953700,0.33595361328125,-0.0068096800148487084,-0.016216135057248175,-0.004165695711551234
1771956825318916900,0.355916748046875,-0.025978490865230557,0.01506981456633657,-0.012441575821442528
1771956825338879700,0.375879638671875,-0.009997077879309653,-0.007760770194604992,-0.004825018136808648
1771956825358843000,0.3958427734375,-0.054445875936746595,-0.027201639452017843,-0.0028194230685941873
1771956825378805800,0.4158056640625,-0.040811318337917325,-0.022583368534222242,-0.013859470662195235
1771956825398769000,0.435768798828125,0.006796820533275604,-0.02137560017965734,0.006704667004104704
1771956825418732000,0.45573193359375,-0.018611176967620848,0.0030079496443271635,-0.016566245402861387
1771956825438695000,0.47569482421875,0.003407762616872787,0.004774922784231603,-0.011556564014684408
1771956825458658000,0.495657958984375,0.02107318316698074,0.016299064100347458,-0.014253538880543782
1771956825478620700,0.51562060546875,-0.022333412361145017,-0.005458594199456274,-0.024378736651549115
1771956825498582800,0.535582763671875,-0.0024485621958971024,-0.0157565547214821,-0.00652577590639703
1771956825518546000,0.5555458984375,-0.02790039883852005,0.007238280690461397,-0.03065360653679818
1771956825538508800,0.5755087890625,0.0036649522483348843,-0.007349741708301007,-0.01338488455354236
1771956825558472000,0.595471923828125,-0.01849427258968353,-0.00910681450869888,-0.020202957937400786
1771956825578435000,0.61543505859375,-0.03721241706311702,-0.0049970045696943995,0.003097436292376369
1771956825598398000,0.63539794921875,-0.025546529188752172,-0.020579992822557687,0.012762277409480884
1771956825618361000,0.655361083984375,-0.04169628447890281,-0.015316994260437786,-0.000962305693514645
1771956825638324000,0.675323974609375,-0.021627309918403625,-0.012543949350528417,0.0005460165102034807
1771956825658287000,0.695287109375,-0.00350830038189888,-0.001479936359450221,-0.03048792198053561
1771956825678250000,0.71525,0.00038870705664157865,-0.006924136707372963,0.0010213241380639373
1771956825698213000,0.735213134765625,-0.006496960803866386,-0.007617087407596409,-0.0019571710829157382
1771956825718176000,0.755176025390625,-0.006355506506562233,0.012822729759290814,0.0004527852687984705
1771956825738139000,0.775138916015625,-0.018932079485058782,0.005001680744811892,-0.020515211357502266
1771956825758102000,0.79510205078125,-0.0246259072124958,0.002944419421441853,-0.01130223306058906
1771956825778065000,0.81506494140625,-0.026723171752691267,-0.0060094695478677745,0.008005675733229144
1771956825798027000,0.835027099609375,-0.02089607303440571,-0.008360781914368271,-0.022515207801992072
1771956825817990100,0.854990234375,-0.017456746235489845,-0.01904642657972872,-0.004297797658620402
1771956825837953000,0.874953125,-0.033011458241939545,-0.0008066036751493811,0.0009297733970917761
1771956825857916000,0.894916015625,-0.01924012252092361,-0.007281681440770626,-0.010732004557736218
1771956825877878800,0.914878662109375,-0.018776596662402154,-0.025399193139933048,-0.020197761172475293
1771956825897842000,0.934842041015625,-0.012938392028212547,-0.013715477347932756,0.000653486339515075
1771956825917805000,0.95480517578125,-0.005001753810048103,0.007195610592514276,-0.021427302967431023
1771956825937768000,0.974767822265625,-0.004397358176112175,-0.0077189768794924014,-0.004016651762835681
1771956825957731000,0.99473095703125,-0.01532324133813381,0.010506196445226669,-0.004742554884590208
1771956825977694000,1.01469384765625,-0.013082184413075446,-0.014928214138559995,-0.024693793950090182
1771956825997657000,1.034656982421875,-0.021621464699506758,0.015138715084083378,-0.002672251416556537
1771956826017620000,1.054619873046875,-0.010102291819453239,0.009433781440742313,-0.020626498845405874
1771956826037582800,1.074582763671875,-0.0035281741261482236,0.0012141250301152466,-0.015304582303436473
1771956826057546000,1.0945458984375,-0.016698621344566345,-0.014967084844224154,-0.021300680913077664
1771956826077508900,1.1145087890625,-0.004130231672525406,-0.011973857844993472,0.0027271051426418125
1771956826097472000,1.134471923828125,-0.011752981635928153,-0.006385024861991405,0.0015222593975253403
1771956826117434000,1.15443408203125,-0.008756137907505035,0.00792925862930715,0.010443926597665994
1771956826137397000,1.17439697265625,-0.0024631752431392667,-0.013027422018535434,0.0037579368945676833
1771956826157360000,1.194360107421875,0.008463876962661742,-0.00992353771906346,-0.017687860710779203
1771956826177323000,1.214322998046875,-0.003511222991347313,0.000043583413399755955,0.00021886691506952047
1771956826197286000,1.234285888671875,-0.005611994662880897,0.006940868646465242,-0.015474084518291055
1771956826217249000,1.2542490234375,-0.0008253449082374572,-0.004940963533520699,-0.011268878780258819
1771956826237212000,1.2742119140625,-0.01758767913877964,0.00914415084440261,0.003458634287584573
1771956826257175000,1.294175048828125,-0.004718845215439796,0.0070654448742046945,0.003259549785219133
1771956826277138000,1.314137939453125,-0.020883213552832604,0.0058517947681248185,-0.004455545503599569
1771956826297101000,1.33410107421875,-0.020741174733638762,-0.02026259743645787,-0.007030647555459291
1771956826317064000,1.35406396484375,-0.022237550771236417,-0.028340689951926467,-0.005083203282114118
1771956826337027000,1.374027099609375,-0.01610240901708603,-0.026015973331406712,0.005635567334713414
1771956826356990200,1.393990234375,-0.013859014004468918,-0.0005485007282346486,0.013736355739179997
1771956826376952800,1.413952880859375,-0.01400397543311119,-0.00055127720721066,-0.002274630401097238
1771956826396916000,1.433916015625,-0.021337387061119078,0.008703165611252188,-0.0013392127145081757
1771956826416878800,1.45387890625,-0.005022212076187134,0.018756247994117438,-0.0317430274750106
1771956826436841000,1.473841064453125,-0.02012918031513691,-0.005427943332865834,-0.013333519692486152
1771956826456804000,1.49380419921875,-0.020577508604526517,0.004172280715964734,-0.00567874888931401
1771956826476767000,1.51376708984375,-0.014590835410356521,-0.012791640501283109,-0.008760467022750526
1771956826496730000,1.533730224609375,-0.008449263915419577,-0.013883454325981438,-0.009777936969604342
1771956826516693000,1.55369287109375,-0.004549333867430686,0.006695515583269297,-0.006051573390234262
1771956826536656000,1.57365576171875,-0.02354454171657562,0.008780249435454607,-0.028942528302595017
1771956826556619000,1.593618896484375,-0.01636193673610687,-0.004146269491873682,-0.019606051490176468
1771956826576582000,1.613581787109375,-0.011126958692073821,-0.012575878858752549,-0.02659715248653665
1771956826596544800,1.633544677734375,0.0015934066712856292,-0.012660634532757103,0.009168134508188814
1771956826616507600,1.653507568359375,-0.02803191626369953,-0.019624847522191704,-0.011782335594575852
1771956826636470800,1.673470703125,-0.023090952730178832,-0.003391505601815879,-0.008849286950519309
1771956826656434000,1.693433837890625,-0.011417466071248054,-0.00416077294126153,-0.005949629119411111
1771956826676396800,1.713396728515625,-0.023689503145217894,-0.001975099465250969,-0.008743196227541192
1771956826696359700,1.733359619140625,-0.00902910962998867,-0.006829590291716158,-0.007312642834614962
1771956826716322600,1.753322509765625,-0.014562193837761878,-0.010546601520851254,-0.0057517319271340964
1771956826736284700,1.77328466796875,-0.003936754927039147,-0.02353277821354568,-0.009362853362690656
1771956826756247800,1.793247802734375,-0.00004968436062335968,-0.002347001517564058,0.011309767913073301
1771956826776210700,1.813210693359375,-0.012620412120223044,-0.005911744794435798,-0.023221967831859362
1771956826796173800,1.833173828125,-0.01217091478705406,0.0032012071941047906,-0.005392607158003375
1771956826816137000,1.853136962890625,-0.0034895956814289092,-0.004622508701495826,-0.00566440070355311
1771956826836099600,1.873099609375,-0.022198972326517102,0.002380209667421877,-0.014408976037427782
1771956826856062700,1.893062744140625,-0.0037953006297349926,-0.0030128450151532885,-0.003185123708983883
1771956826876025600,1.913025634765625,-0.016207038435339927,-0.017129742770828307,0.015283658246416598
1771956826895988700,1.93298876953125,-0.01681026502549648,-0.001857391369715333,-0.007722100418340414
1771956826915951600,1.95295166015625,-0.014265841239690779,0.004752126430533826,-0.0027427319700364023
1771956826935914800,1.972914794921875,-0.029822891333699225,-0.004650894545763731,0.006424671885790303
1771956826955878000,1.9928779296875,-0.011271335598826407,0.016660554356500504,-0.011389235490607098
1771956826975840800,2.0128408203125,-0.017107202145457266,-0.00043053690437227485,-0.020886136162281035
1771956826995804000,2.032803955078125,-0.030880291432142257,-0.003872201790846884,-0.007725187424570321
1771956827015766800,2.052766845703125,0.0036859950363636014,-0.0048572673054412,-0.018832655964884905
1771956827035729700,2.072729736328125,-0.004390343913435936,-0.0022423720993101593,-0.008633004718180745
1771956827055692800,2.09269287109375,-0.014263503152132033,-0.0066947849309071895,-0.01200463657574728
1771956827075654700,2.112654541015625,-0.012469020950794218,-0.0011280907144770025,-0.011115916708251461
1771956827095617800,2.13261767578125,-0.006783961051702499,-0.010161145867221057,-0.005898666117154061
1771956827115580700,2.15258056640625,-0.01307458562850952,0.004617942124232649,-0.004225664004171267
1771956827135543800,2.172543701171875,-0.003641571372747421,-0.018605550944432614,-0.013183900355035439
1771956827155507000,2.1925068359375,-0.013665537258982658,-0.002536094348877668,-0.016045189803978427
1771956827175469600,2.212469482421875,-0.026236849540472028,-0.0037780572339892386,-0.0010845073010772466
1771956827195432700,2.2324326171875,-0.018155249893665314,-0.009687281277775763,-0.00486786176469177
1771956827215395600,2.2523955078125,-0.023092706295847892,-0.003460479184798896,-0.024327426589420064
1771956827235358700,2.272358642578125,-0.0266781635671854,-0.011271299066208303,-0.017137953476747497
1771956827255321900,2.29232177734375,0.00429214423596859,-0.017594949129782617,-0.027806117284344508
1771956827275284700,2.31228466796875,-0.004243628919124603,0.008613222305476665,0.0028941231394652277
1771956827295248000,2.332247802734375,-0.02444645899236202,0.004754902909509837,0.0066845649309922005
1771956827315210800,2.352210693359375,-0.013221300622820854,-0.0024690204620361326,-0.009671754915080964
1771956827335174000,2.372173828125,-0.004243628919124603,0.00176171244289726,-0.010507940877741201
1771956827355136500,2.392136474609375,-0.023993454527854917,-0.027789997266605495,-0.011708658437011762
1771956827375099600,2.412099609375,-0.009323708662390708,0.0022852613929659127,-0.023063096608873457
1771956827395062800,2.432062744140625,-0.01801028846502304,0.009283047858439385,-0.017080816462030635
1771956827415024600,2.452024658203125,-0.002449146717786789,-0.01960431619081646,-0.011372640548832713
1771956827434987800,2.47198779296875,-0.019053660038113592,-0.008284063416346908,0.0007172266249544919
1771956827454951000,2.491950927734375,-0.0190577516913414,0.007246208268590271,-0.007485807444434613
1771956827474913800,2.511913818359375,-0.023695932886004446,-0.007736366405710578,-0.011967218041652813
1771956827494876700,2.531876708984375,-0.02220131041407585,-0.007433511001616716,0.006560938551323488
1771956827514839600,2.551839599609375,-0.007840192106366157,-0.012556370440684259,-0.0013374682819936423
1771956827534802700,2.571802734375,-0.013072832062840462,-0.012531966651789843,0.0041269346037413925
1771956827554765800,2.591765869140625,-0.015918284621834755,-0.011069054492376744,-0.009175139637710526
1771956827574728700,2.611728759765625,-0.02759060223698616,-0.0003649973874911666,-0.008300119502004235
1771956827594692400,2.6316923828125,-0.0033417116433382033,0.0018802242560312151,-0.004335782448295504
1771956827614655500,2.651655517578125,-0.010681553012132644,-0.020929683043062686,-0.010070070050284267
1771956827634618600,2.67161865234375,-0.009037877458333968,-0.006265417070314288,-0.013132288898807019
1771956827654581500,2.69158154296875,-0.0112847796022892,-0.019991598475351927,-0.008284876267099752
1771956827674544600,2.711544677734375,-0.017121230670809746,0.0009600406711921095,-0.019467629400175063
1771956827694507500,2.731507568359375,-0.018017887249588964,-0.0018868731925264,-0.022974450211040675
1771956827714470700,2.751470703125,-0.01577332319319248,0.0030065248722210523,-0.009404948071902617
1771956827734433500,2.77143359375,-0.033276831179857254,0.004994081960245967,-0.024710516756027937
1771956827754395400,2.7913955078125,-0.0153150580316782,-0.005489719990082085,0.011672427213005722
1771956827774358500,2.811358642578125,-0.005886719951033592,-0.014695136035047471,-0.018091811002325264
1771956827794321700,2.83132177734375,-0.0087228201597929,-0.00892225172203034,-0.006994936921261251
1771956827814284500,2.851284423828125,-0.02189326737821102,-0.005598002670146525,-0.01872328643943183
1771956827834247700,2.87124755859375,-0.006478840625286102,0.01235365094281733,-0.007471961582172662
1771956827854210600,2.89121044921875,-0.01575461849272251,0.0026916502367705106,-0.011887385137937962
1771956827874173700,2.911173583984375,-0.028180384823679922,-0.0052111953096464275,-0.02733607035349123
1771956827894136300,2.93113623046875,-0.023693010276556015,-0.006406907900236547,-0.006379599768202751
1771956827914099500,2.951099365234375,-0.009317863443493843,-0.02169884078465402,-0.009683363154483959
1771956827934062600,2.9710625,-0.009167056795954703,-0.0082489190377295,-0.015416171185439451
1771956827954025500,2.991025390625,-0.033252281260490416,0.005570384010858833,0.014815812405804171
1771956827973988600,3.010988525390625,-0.018583119916915893,-0.006819653419591486,-0.010050278504425659
1771956827993951500,3.030951416015625,-0.03070142773389816,-0.005576996414735913,-0.017465084805572403
1771956828013914600,3.05091455078125,0.00027180267870426176,-0.014925145398639142,0.004793508753692731
1771956828033877500,3.07087744140625,-0.012894552886486053,0.005288315666466951,-0.004253100000368431
1771956828053840600,3.090840576171875,-0.0076554831892251965,-0.015627448449097574,-0.0036094592014327643
1771956828073803500,3.110803466796875,-0.000768061763048172,-0.009182327430322766,-0.014942534924857318
1771956828093766400,3.130766357421875,-0.016772271102666853,-0.01266750266496092,-0.007621224726596847
1771956828113728500,3.150728515625,-0.006737199300527573,0.006592164806649089,-0.012818501108745113
1771956828133691600,3.170691650390625,-0.02215045700967312,0.000866699831932783,-0.027605918537126854
1771956828153654500,3.190654541015625,-0.007927870389819144,-0.02708374869339168,-0.005736607423238456
1771956828173617700,3.21061767578125,-0.007787000614404678,-0.017697423123568295,-0.0010890099462587386
1771956828193580500,3.23058056640625,-0.004195113602280616,0.0007003302890807389,-0.003537974000955
1771956828213543400,3.25054345703125,-0.018707623079419134,0.00014116203635931014,0.0032022392405662682
1771956828233506600,3.270506591796875,-0.017814473631978033,0.005823481989093124,0.005843337467033416
1771956828253469400,3.290469482421875,-0.0016524433821439742,-0.015741576348058877,-0.007062887590937316
1771956828273432600,3.3104326171875,-0.0071866966336965555,-0.008039660201221705,-0.011530625855829566
1771956828293395500,3.3303955078125,-0.0034410803645849226,-0.007633527085743844,-0.006419648650800809
1771956828313358600,3.350358642578125,-0.006879238119721413,-0.013935440241545438,-0.011289793704124166
1771956828333321500,3.370321533203125,-0.02064531314373016,-0.020372670214809475,-0.014621020486066116
1771956828353284600,3.39028466796875,-0.016008885514736174,0.00018996961414813993,-0.020928486599819735
1771956828373247700,3.410247802734375,-0.016011808124184606,-0.001183437630906701,-0.002005229742033407
1771956828393210600,3.430210693359375,-0.016160276684165,-0.00506005986854434,-0.02131739458586089
1771956828413173500,3.450173583984375,-0.021693945413827895,0.007234627428650856,-0.006400103700114413
1771956828433136400,3.470136474609375,-0.013010872742533684,-0.008697466522827744,-0.01087854602211155
1771956828453098500,3.490098388671875,0.0007476034969091414,-0.010459325096197425,-0.002757774275541305
1771956828473061600,3.5100615234375,-0.013765490502119063,0.008854118389263749,-0.011354958761669694
1771956828493024500,3.5300244140625,-0.012875263664126396,0.01880136577747762,-0.0013124160391278564
1771956828512987600,3.549987548828125,-0.029491467422246932,-0.0004943959208205342,0.017940766892768443
1771956828532950500,3.569950439453125,-0.015124503895640372,-0.009654219258390367,-0.01276714538084343
1771956828552913400,3.589913330078125,-0.022904490247368813,-0.011308489271439612,-0.005820906439516693
1771956828572876500,3.60987646484375,-0.002701660174131393,-0.01593943700771779,0.004934150200244039
1771956828592838700,3.629838623046875,0.005527238988876342,-0.025463928939215837,0.009047220675414427
1771956828612801800,3.6498017578125,-0.008092121040821075,0.0040056919774040575,-0.001949508366268128
1771956828632765000,3.669764892578125,-0.020512626674771307,0.0013022417049854992,-0.014407039808668195
1771956828652727800,3.689727783203125,-0.015875030001997945,0.006864113615825772,0.00880896407328546
1771956828672690700,3.709690673828125,-0.0007493570625782013,-0.002033880447782576,-0.015596660585189237
1771956828692653600,3.729653564453125,-0.01825286504924297,-0.009174144123867153,0.0011214052453637122
1771956828712616700,3.74961669921875,-0.01272562606036663,-0.008082549494877456,-0.0077346676389686755
1771956828732579600,3.76957958984375,0.0008849661409854889,-0.0017951397884637117,0.011989302009297534
1771956828752542700,3.789542724609375,-0.023063480201363562,-0.004507942411117256,-0.0032444252813234923
1771956828772505900,3.809505859375,-0.0018219547301530836,-0.019439517550542948,-0.005897478807065636
1771956828792468700,3.82946875,-0.006019990941882133,-0.00903221490252763,0.0020984427171293644
1771956828812430800,3.849430908203125,-0.00872106659412384,0.005620324099808931,-0.008759526307834312
1771956828832393700,3.869393798828125,-0.013209610185027122,-0.013382299870811402,0.00035145291932858525
1771956828852356600,3.889356689453125,0.0029459903240203855,-0.012382036787085235,-0.00594614938753657
1771956828872319700,3.90931982421875,-0.023985855743288993,-0.005133088572137057,-0.01401218613903038
1771956828892282600,3.92928271484375,0.0063923313856124875,-0.010621968312002718,-0.016410735180741175
1771956828912245800,3.949245849609375,-0.023537527453899382,0.0020524024851620195,-0.0030539807431399823
1771956828932209000,3.969208984375,-0.019642273581027984,-0.005834697502851486,-0.0004596534010022878
1771956828952171800,3.989171875,-0.010666355443000793,-0.0122386827936396,-0.00557485012342222
1771956828972135000,4.009135009765625,-0.010366495713591575,-0.0012025441901758313,-0.019434275119844822
1771956828992097800,4.029097900390625,-0.032519875332713125,-0.009027538727410137,-0.005961155160423368
1771956829012060700,4.049060791015625,-0.02174596786201,-0.0004179696837440133,-0.004141657248837873
1771956829032023600,4.0690234375,-0.026090719068050383,-0.008818097227811813,-0.014058966156514361
1771956829051986700,4.088986572265625,-0.005887888994812965,0.0007120937921106815,-0.015585956528084352
1771956829071949800,4.10894970703125,-0.015611995151638984,-0.012724931940622627,-0.02846980535746552
1771956829091912700,4.12891259765625,-0.006029927814006805,0.0001616203024983406,-0.003657435662159696
1771956829111875800,4.148875732421875,-0.0163519998639822,-0.008313289510831236,-0.004226878713723272
1771956829131838700,4.168838623046875,-0.00992225907742977,-0.004571326503530144,-0.006366174031049013
1771956829151800600,4.188800537109375,-0.01815232728421688,-0.0009795856218785047,0.001970542021142319
1771956829171763700,4.208763671875,-0.0172539171397686,0.011550335203297436,0.00040646190904080866
1771956829191726600,4.2287265625,-0.023694179320335386,0.0028526860173791646,-0.022215923461318014
1771956829211689700,4.248689697265625,-0.02129413244128227,0.0019512436656281352,-0.026470018975529818
1771956829231652900,4.26865283203125,-0.016048633003234863,-0.006164294783398508,-0.0088163253958337
1771956829251615700,4.28861572265625,-0.023086861076951026,-0.006277144040726125,0.006196014229068532
1771956829271579000,4.308578857421875,-0.019942717832326887,-0.008175707671046256,-0.010567352047935128
1771956829291541800,4.328541748046875,-0.0019797756403684614,0.013512319458648562,0.0022350929751526563
1771956829311505000,4.3485048828125,-0.01051087262034416,-0.002879574024304747,-0.004085981538845226
1771956829331467500,4.368467529296875,-0.00467383702993393,-0.014866766274906695,-0.015369573831045999
1771956829351430700,4.3884306640625,-0.010808394262194633,-0.000889240457303822,-0.01589690390708856
1771956829371393800,4.408393798828125,-0.019489713367819784,-0.005534728175587952,-0.009132350808754562
1771956829391356700,4.428356689453125,-0.013355740657448769,-0.012522212442755698,-0.009447051914269105
1771956829411319800,4.44831982421875,-0.018286767318844793,-0.01698233365677297,0.013784998920187353
1771956829431282700,4.46828271484375,-0.011398761370778084,-0.01261558981463313,-0.0007773958469741046
1771956829451245800,4.488245849609375,-0.019774375528097153,-0.005383081277832389,-0.003688150460831821
1771956829471208700,4.508208740234375,-0.022024784803390502,-0.008146152782998978,0.0032035361485090105
1771956829491171800,4.528171875,-0.012745499804615973,-0.004257072922587394,0.005447780544497073
1771956829511133700,4.5481337890625,-0.011103577816486358,-0.01854428574386984,0.005275739312684163
1771956829531096600,4.5680966796875,-0.010655249527096749,-0.007600830392539501,0.01425457092700526
1771956829551059700,4.588059814453125,-0.0018248773396015165,-0.0063075757116079325,-0.013138691240129991
1771956829571022800,4.60802294921875,-0.01977788265943527,0.007042100531235337,-0.01667210779697634
1771956829590985700,4.62798583984375,-0.01738718813061714,0.006154065650328993,0.004965668716514483
1771956829610949600,4.64794970703125,-0.0164957922488451,-0.008147358359396457,-0.0033459128944203255
1771956829630912500,4.66791259765625,-0.010365326669812202,-0.01592244934029877,-0.007865618808567523
1771956829650875600,4.687875732421875,-0.023680735316872596,-0.011152714187838137,-0.009637925710715353
1771956829670838500,4.707838623046875,-0.0196457807123661,-0.007979454446583985,-0.005558209515875205
1771956829690801700,4.7278017578125,-0.02443652212023735,-0.007850311641581356,-0.020097141209058464
1771956829710764500,4.7477646484375,-0.012611644291877746,-0.0016666180379688738,-0.005297257024748251
1771956829730727700,4.767727783203125,-0.0147007255256176,-0.023819120874255893,-0.011479452791018412
1771956829750690800,4.78769091796875,-0.015143793118000029,-0.01392762226127088,-0.01712322169849649
1771956829770653700,4.80765380859375,0.0008610007435083389,-0.006052212711051106,-0.0024475027499720452
1771956829790616800,4.827616943359375,-0.0031909049957990644,-0.00803801623340696,0.006470648185675963
1771956829810579500,4.847579345703125,-0.015158990687131882,-0.011900025423802434,-0.004963230164255946
1771956829830542600,4.86754248046875,-0.006032850423455238,-0.006207659001089632,-0.013205838192207739
1771956829850505500,4.88750537109375,-0.021594576692581177,-0.007030263962969184,-0.005840935447392985
1771956829870467600,4.907467529296875,-0.007228197687864303,0.0032208617426455017,-0.008124178413208574
1771956829890430700,4.9274306640625,-0.006633738926053047,-0.020779387852177023,-0.022560005924943834
1771956829910393600,4.9473935546875,-0.0013929156631231306,-0.011991430034302175,-0.005361189106432721
1771956829930356700,4.967356689453125,-0.013968904119729996,-0.0018650632195174692,-0.018274866818496955
1771956829950319900,4.98731982421875,-0.013069909453392028,-0.011873429677821696,-0.008843925788812339
1771956829970282500,5.007282470703125,-0.013372107270359992,0.003812982416898012,-0.009106193454191088
1771956829990245600,5.02724560546875,-0.024444120904803274,-0.0028789895024150607,-0.012222106118174269
1771956830010208500,5.04720849609375,-0.01800502776801586,-0.008950089577026664,-0.006493033547420054
1771956830030171600,5.067171630859375,-0.011719663888216018,-0.010349690709263086,-0.005214538044203072
1771956830050134800,5.087134765625,0.0027881694138050077,-0.013878230161592363,-0.02844816891439259
1771956830070097700,5.10709765625,-0.011880407407879828,-0.00953260217271745,-0.011938192876568063
1771956830090060800,5.127060791015625,-0.02085924815535545,-0.007226590252667665,0.00632706586336717
1771956830110023700,5.147023681640625,-0.02997954320013523,-0.004170381019823253,-0.009763798846397548
1771956830129986800,5.16698681640625,-0.012925532546639442,-0.009796185012347995,0.0014034005245193838
1771956830149949400,5.186949462890625,-0.0048562078595161436,-0.01868449793215841,-0.02472156787300482
1771956830169912600,5.20691259765625,0.0005301613539457321,-0.009528510519489646,-0.013532777724787592
1771956830189875700,5.226875732421875,0.0038239422023296356,-0.00956661404017359,0.0009706077309790998
1771956830209837600,5.246837646484375,-0.011596914291381835,0.005947035303525626,-0.002815349681675434
1771956830229800700,5.26680078125,-0.013231822016835213,-0.0024903189783915874,-0.01153301874231547
1771956830249763800,5.286763916015625,-0.025351298877596854,-0.007320625211670994,-0.00823925616024062
1771956830269726700,5.306726806640625,-0.02190846494734287,-0.008851122714579105,-0.01121673760106787
1771956830289689600,5.326689697265625,-0.015324410381913183,-0.010979293849691749,-0.02311026021884754
1771956830309652500,5.346652587890625,-0.013527590093016623,-0.017814181371033192,-0.009405879653664306
1771956830329615600,5.36661572265625,-0.004252396747469901,-0.008009447726048528,-0.004341079677920788
1771956830349578500,5.38657861328125,-0.01996317609846592,0.009887333894520997,0.012939707202464342
1771956830369541600,5.406541748046875,-0.010532499930262566,-0.01611212669350207,-0.00607762114694342
1771956830389504800,5.4265048828125,-0.024005729487538336,-0.005371025513857603,-0.0025900438926648346
1771956830409467600,5.446467529296875,-0.003503624206781387,-0.009506079491972923,-0.013242991864820941
1771956830429430800,5.4664306640625,-0.016960487151145932,0.0015184782715514302,-0.007761619577975943
1771956830449393700,5.4863935546875,-0.0286345583319664,-0.016200754825025795,-0.007338361797761171
1771956830469356800,5.506356689453125,-0.010526654711365699,-0.01526504487749189,-0.0031415768282022326
1771956830489319700,5.526319580078125,-0.030574001961946484,0.003478307102434337,-0.003443400185834616
1771956830509282600,5.546282470703125,-0.017410569006204604,-0.022261954560130835,0.004581720033381134
1771956830529245700,5.56624560546875,-0.032821488627791405,0.002398549041710794,-0.010116968798777088
1771956830549207800,5.586207763671875,-0.009641104048490523,-0.007680434967391192,-0.0014504088708665222
1771956830569170700,5.606170654296875,-0.006052139645814895,-0.002202624610811472,-0.01842353630787693
1771956830589133800,5.6261337890625,-0.02281915005147457,-0.012012984278984368,-0.0036196152692660687
1771956830609096000,5.646095947265625,-0.021322189491987227,-0.002867920119129121,-0.0014292016860563306
1771956830629058800,5.666058837890625,-0.025809564039111135,-0.009592150340229273,0.003583110050624236
1771956830649022000,5.68602197265625,-0.020271803656220434,-0.018758586081676184,-0.01269494779431261
1771956830668984800,5.70598486328125,-0.021918401819467543,-0.004975669520720839,-0.0005497154377866536
1771956830688948000,5.725947998046875,-0.011593991681933402,0.0027591990476474163,-0.009664494057232513
1771956830708910800,5.745910888671875,-0.020571078863739965,-0.023682269686833023,0.0028508137207012623
1771956830728874000,5.7658740234375,-0.0014145429730415343,0.0045478725627064705,-0.011041125305835156
1771956830748836900,5.7858369140625,-0.022808628657460212,-0.0019389321733266115,-0.014696478608762845
1771956830768799700,5.8057998046875,-0.00724924047589302,-0.0030963585801422593,-0.005591719059832394
1771956830788763000,5.825762939453125,-0.018628712624311445,-0.003064721332862973,-0.01206579217845574
1771956830808725800,5.845725830078125,-0.009657470661401749,-0.01130713756456971,-0.0027695103791076686
1771956830828689000,5.86568896484375,-0.0030792613148689267,-0.0003023804800584912,-0.004710881104692816
1771956830848651800,5.88565185546875,-0.02328442947566509,-0.005516790660098195,-0.015817262799618766
1771956830868614000,5.90561376953125,-0.016250293055176734,-0.016738734159246087,0.011944129427010192
1771956830888577000,5.925576904296875,0.0020049100816249845,-0.007998816734179855,-0.007675895789591595
1771956830908539600,5.94553955078125,-0.03270692233741283,0.007533646907843649,-0.001632277376949787
1771956830928502800,5.965502685546875,-0.02148234848976135,0.006764343035779893,-0.0024730847158003595
1771956830948466000,5.9854658203125,-0.010559387937188148,-0.010126549477875233,-0.020584732929756863
1771956830968428800,6.0054287109375,0.006795066967606544,0.006199548759870231,-0.006435969597939402
1771956830988392000,6.025391845703125,-0.01774666909277439,0.007605433502420783,0.008469475586386397
1771956831008354800,6.045354736328125,-0.01102116023004055,-0.0008541326113045215,-0.014375119433598591
1771956831028318000,6.06531787109375,-0.006827215671539306,0.01098221645914018,-0.012228453660570085
1771956831048280800,6.08528076171875,-0.0024836335092782973,-0.0014906038839370011,-0.008845012634200974
1771956831068244000,6.105243896484375,-0.00443067592382431,0.0015279402196407318,-0.01787690787632018
1771956831088206800,6.125206787109375,-0.014151859471201896,-0.002080861394666135,-0.011102701033651827
1771956831108169700,6.145169677734375,-0.016246785923838613,-0.009616188802942634,0.007909786743856966
1771956831128132900,6.1651328125,-0.015642974811792373,-0.0070046911302953955,0.010548903075791895
1771956831148095700,6.185095703125,-0.016549568262696265,0.0057980187542736525,0.006274541091686114
1771956831168059000,6.205058837890625,-0.010413841986656189,0.004038973192498087,0.002216041214810684
1771956831188022000,6.22502197265625,-0.014604279413819312,-0.012303235929831862,-0.007234371700324118
1771956831207983900,6.24498388671875,-0.007277882048487663,-0.0015032441698014736,-0.0015430555903818458
1771956831227946800,6.26494677734375,-0.014614216285943985,-0.006163819859363138,0.0035047110521700233
1771956831247910000,6.284909912109375,-0.019994740280508995,-0.008258673246763645,-0.01305462968586944
1771956831267872800,6.304872802734375,-0.01505319222509861,-0.010455671834386884,0.007611370052862912
1771956831287836000,6.3248359375,-0.011310498565435409,-0.004818944589048624,-0.005456018649879843
1771956831307798800,6.344798828125,-0.016397008049488068,0.0014540347332134842,-0.009220796277187764
1771956831327762000,6.364761962890625,-0.005467617756128311,-0.014293204170651733,-0.011141772668715565
1771956831347724800,6.384724853515625,-0.008315992924571037,-0.01734477376099676,-0.0210060727475211
1771956831367688000,6.40468798828125,-0.0021849428236484524,-0.0008228241575881838,-0.005675323956366628
1771956831387651000,6.424651123046875,-0.016100655451416968,-0.006392258320376276,-0.014171514019742606
1771956831407613700,6.44461376953125,-0.005917115089297294,-0.008414338732510804,-0.023207893640734254
1771956831427576800,6.464576904296875,-0.017139935371279714,0.0015921645622700453,-0.008041148905409499
1771956831447539700,6.484539794921875,-0.010251929423213004,0.006642506754398345,-0.024491220582695677
1771956831467502800,6.5045029296875,-0.013395488145947456,0.0006334755979478359,-0.00035359921064227816
1771956831487466000,6.524466064453125,-0.01444704302549362,-0.015329853742010891,-0.016755941022373735
1771956831507428900,6.544428955078125,-0.016840075641870497,-0.0049248161163181065,-0.001714941558567807
1771956831527391000,6.564390869140625,-0.013699439528584479,0.001707278841920197,-0.008440112494584172
1771956831547353900,6.584353759765625,-0.011748305460810661,0.006375234120339155,-0.0012496804006863385
1771956831567316700,6.604316650390625,-0.025068974804878234,0.0008640694834291935,-0.0007437036399263889
1771956831587280000,6.62427978515625,-0.014746318233013152,-0.004210347704030573,-0.01734576927484013
1771956831607243500,6.644243408203125,-0.023578443986177443,-0.00790427031852305,-0.029000213306583464
1771956831627206700,6.66420654296875,0.005610241097211838,-0.01832070612106472,-0.0024900358506012707
1771956831647169500,6.68416943359375,-0.013390811970829962,0.001966514299996197,0.002415454510739073
1771956831667132700,6.704132568359375,-0.02251461414694786,-0.003308065102063119,-0.005174772289395332
1771956831687095600,6.724095458984375,-0.01878185735940933,0.004699336797371507,0.005005489270249381
1771956831707058700,6.74405859375,-0.031651860326528544,-0.0033893501773476597,0.0013962035987526177
1771956831727021600,6.764021484375,-0.013992869517207145,-0.010958725985698402,-0.01077502171555534
1771956831746984700,6.783984619140625,-0.020425532913208005,-0.015847338277474046,-0.0017619864375330507
1771956831766947600,6.803947509765625,-0.0006803834795951843,-0.021342209366708994,-0.02433896176358685
1771956831786910500,6.823910400390625,-0.01998188079893589,-0.015272022607550024,-0.001678162345290184
1771956831806873600,6.84387353515625,-0.014592004454135894,-0.007709953322820365,-0.007755171570880338
1771956831826836500,6.86383642578125,-0.011000117442011832,-0.0030036753280088305,-0.004418592760385945
1771956831846799600,6.883799560546875,-0.01938099229633808,-0.007963453159853815,-0.006048979574348777
1771956831866761700,6.90376171875,-0.018622282883524893,-0.0037627865996211767,-0.006085238197818398
1771956831886724600,6.923724609375,-0.01727612897157669,-0.015226064573973417,-0.01668918679594062
1771956831906687500,6.9436875,-0.021914894688129422,-0.003206577488966286,0.020888492516148834
1771956831926650600,6.963650634765625,-0.005901917520165443,-0.009817118202522396,-0.012133541918732225
1771956831946613500,6.983613525390625,-0.015627777242660523,0.011925525191240013,0.0073102682144381105
1771956831966576600,7.00357666015625,0.002924363014101982,-0.002038410492427647,-0.017736841818504035
1771956831986539500,7.02353955078125,-0.02206803942322731,-0.010203377573750913,-0.006747528898296877
1771956832006502700,7.043502685546875,-0.004864975687861442,-0.014127346084453164,-0.004373977300524711
1771956832026465500,7.063465576171875,-0.03390168507993221,-0.022491890858486293,-0.0223785301445052
1771956832046428700,7.0834287109375,-0.011747136417031288,-0.015177037800475954,0.00747063727476634
1771956832066391800,7.103391845703125,-0.016993220376968383,-0.0023179215535521504,-0.0027723781896289434
1771956832086354700,7.123354736328125,-0.014596680629253386,0.01769826337378472,-0.0033593934305012224
1771956832106317600,7.143317626953125,-0.0174456403195858,-0.0030455782409757374,-0.0032724549325648692
1771956832126280400,7.163280517578125,-0.021336218017339707,-0.015005005701817571,-0.016471534590423106
1771956832146243600,7.18324365234375,-0.014751578930020331,-0.006520305146835744,-0.013858484281506388
1771956832166205700,7.203205810546875,-0.005918284133076667,-0.007954173874855041,0.008429545434797183
1771956832186168600,7.22316845703125,-0.006975099709630012,-0.016255042295530438,-0.020034551701089365
1771956832206131700,7.243131591796875,-0.014011574217677115,-0.007731105708703398,0.007111868698662147
1771956832226094800,7.2630947265625,-0.022992753052711486,0.008611249544098972,-0.004289824414718896
1771956832246057500,7.283057373046875,-0.0006967500925064087,0.0017023834710940718,-0.020053603461431337
1771956832266020600,7.3030205078125,-0.013709376400709152,-0.008193937447480856,-0.0019518099212087689
1771956832285983500,7.3229833984375,-0.009372223979234694,-0.013532996920496225,-0.0016002656703349202
1771956832305946600,7.342946533203125,-0.00832242266535759,-0.0035425314450636502,0.0026468977795913815
1771956832325909500,7.362909423828125,-0.03945172042250633,0.0012442279074341058,0.0060572998781222845
1771956832345872600,7.38287255859375,-0.024646365478634833,-0.008110935339145363,-0.001486119505064562
1771956832365835800,7.402835693359375,-0.011481763479113578,-0.005782455858960748,0.005340475111966952
1771956832385798700,7.422798583984375,-0.027641455641388892,-0.0031220775432884693,-0.009801144315255805
1771956832405761800,7.44276171875,-0.00848667331635952,-0.010495930779539048,-0.0014086429552175104
1771956832425724400,7.462724365234375,0.004686696511507034,-0.023797310901246965,0.009629696738487108
1771956832445687600,7.4826875,-0.03017301994562149,-0.002237330598011613,-0.008711695977579802
1771956832465650400,7.502650390625,-0.028826281511783597,-0.004909289753623307,0.0010890556120313703
1771956832485612500,7.522612548828125,-0.016556582525372503,-0.0047569487361237405,-0.01594666133294813
1771956832505575700,7.54257568359375,-0.01954699651300907,0.0014270736610516904,0.0028670250699855387
1771956832525538600,7.56253857421875,-0.020298691663146018,-0.0005876636948436498,-0.016697671496495602
1771956832545501700,7.582501708984375,-0.010282324561476706,-0.018684607530012727,-0.0012213402221910655
1771956832565464600,7.602464599609375,-0.018362170642614365,-0.020638993000797926,-0.008450551690207794
1771956832585427500,7.622427490234375,-0.019409049347043038,-0.004805062194168567,0.001940886668395251
1771956832605390300,7.642390380859375,-0.03497077561616897,0.007425546890869736,0.0030389567039441315
1771956832625353200,7.662353271484375,-0.02748246568739414,-0.006610906039737165,-0.009152160620922223
1771956832645316400,7.68231640625,-0.015064298141002654,0.003151888159662485,-0.013256782928155735
1771956832665279500,7.702279541015625,-0.023293781825900077,-0.014411569853313266,-0.005513502724468708
1771956832685242000,7.7222421875,-0.012363222488760947,-0.016539412194862962,-0.018907894891873
1771956832705205200,7.742205322265625,-0.015507950255274771,-0.008116890155896544,0.0013782021511811763
1771956832725168000,7.762168212890625,-0.003991699984669685,0.003713467565178871,0.0012542378447949886
1771956832745131300,7.78213134765625,-0.008033668851852416,-0.008521269705705345,-0.0028893008338753134
1771956832765094400,7.802094482421875,-0.006539630901813507,0.014135967782326042,-0.0012316972194239496
1771956832785056300,7.82205615234375,-0.009980711266398429,-0.010894538175687193,-0.02016318304943852
1771956832805019400,7.842019287109375,-0.016859364864230154,0.0013782660832628608,0.0030801837634760886
1771956832824982300,7.861982177734375,0.00019815292060375213,0.005109488500840961,-0.01477702389853075
1771956832844945200,7.881945068359375,-0.01880114658176899,-0.0028296704679727554,0.010003991677286102
1771956832864908300,7.901908203125,-0.013260463589429854,-0.0030653058547526596,-0.008077051335852592
1771956832884871200,7.92187109375,-0.02208674412369728,-0.004710333115421236,-0.00859820739943534
1771956832904834300,7.941834228515625,-0.009227847072482108,-0.0056419148771092295,-0.018510237343795595
1771956832924797200,7.961797119140625,-0.013572013756632804,0.005123918884992599,-0.009395276061259209
1771956832944760300,7.98176025390625,-0.028845570734143254,0.005041793559491634,-0.0060192785558290775
1771956832964723500,8.001723388671875,-0.017476619979739188,-0.004447298265062272,-0.0005536792268510907
1771956832984686300,8.021686279296874,0.0012245733588933945,0.011537183460779487,0.0066972143500112
1771956833004649500,8.0416494140625,-0.023166940575838086,0.0029399624420329926,0.00006342062503099441
1771956833024612000,8.061612060546874,-0.014037877702713012,-0.007136610414274037,-0.019024342612084
1771956833044575200,8.0815751953125,-0.015388123267889022,-0.0015015636693686246,0.006846906752698123
1771956833064538400,8.101538330078125,-0.0050660512179136275,-0.003845204186066985,0.0027745153477881103
1771956833084500200,8.121500244140625,-0.028120179069042205,-0.008694726576469839,-0.01066731442422606
1771956833104463400,8.14146337890625,-0.013161094868183135,-0.010423376999981701,-0.018841926116729153
1771956833124426200,8.16142626953125,-0.01915536684691906,-0.004913016080670058,-0.007070504641812294
1771956833144389400,8.181389404296874,-0.01870996116697788,-0.0010737667113542555,-0.005590230355644599
1771956833164352300,8.201352294921875,-0.02948620672523975,-0.0025738325433805583,-0.0037292679225094613
1771956833184315100,8.221315185546874,-0.01137888762652874,-0.006192023040540516,-0.0027026922205928713
1771956833204278300,8.2412783203125,-0.03173135530352592,-0.011399638153612612,0.008572077444335446
1771956833224241200,8.2612412109375,-0.006292962664365768,-0.020842443151026964,-0.01966519779888913
1771956833244204300,8.281204345703125,-0.013176292437314987,0.0018660496002063155,0.014256434090528637
1771956833264167400,8.30116748046875,-0.014971943682432173,-0.0036705782715231177,0.002470974957104772
1771956833284130300,8.32113037109375,-0.02544774498939514,0.0071412135241553185,-0.01968265125718899
1771956833304093400,8.341093505859375,-0.0052460839599370954,-0.015735804194398222,-0.0018307956237345934
1771956833324056300,8.361056396484376,-0.020350714111328123,-0.0004960764212533831,-0.010017116020340472
1771956833344019200,8.381019287109375,-0.008978256225585938,-0.006504851849377155,0.0029371950962115076
1771956833363982000,8.400982177734376,0.0023906945288181304,0.0025061741346493363,-0.006884882409218698
1771956833383944200,8.420944091796875,-0.018109657186269758,-0.0016429449014365672,0.0024186328485142437
1771956833403907300,8.4409072265625,-0.0070353054642677305,0.010178170067258178,0.005586522294906899
1771956833423870200,8.4608701171875,-0.014213234269618987,0.007974924401938914,-0.003015950287692249
1771956833443833300,8.480833251953126,-0.03261982857584953,-0.00936787659768015,0.0009393266767263412
1771956833463796500,8.50079638671875,-0.02978606645464897,0.00020114859528839587,-0.011856843869201838
1771956833483759000,8.520759033203126,-0.002853635865449905,-0.017160466702654958,-0.027185154108097777
1771956833503722200,8.54072216796875,-0.024251813203096387,0.002150711760483682,-0.010170068959193304
1771956833523685000,8.56068505859375,-0.008691840499639511,0.0002991290770471096,0.002638860603608191
1771956833543648300,8.580648193359375,-0.010340776750445365,-0.0021500541733577845,-0.0011299173453822732
1771956833563611400,8.600611328125,-0.0166308168053627,0.005415924101509153,-0.02741292584883049
1771956833583574300,8.62057421875,-0.017531565037369728,-0.008896386628411709,0.006957920245965942
1771956833603537700,8.64053759765625,-0.02082885301709175,-0.010223032122291625,-0.003119949518283829
1771956833623500500,8.66050048828125,-0.013943769678473472,-0.005482011607661843,0.0038873719605151563
1771956833643463700,8.680463623046874,-0.012899813583493232,-0.021584237961657343,-0.015752380869863553
1771956833663426600,8.700426513671875,0.001014145478606224,0.0009840791339054704,0.0023867307397536933
1771956833683388400,8.720388427734376,-0.036986791613698,-0.011446509502641856,0.004017190618952736
1771956833703351600,8.7403515625,-0.011102408772706985,-0.01715758062582463,-0.014946443914994596
1771956833723314400,8.760314453125,-0.01499649360179901,-0.014977460107766091,-0.021319413013011216
1771956833743277600,8.780277587890625,-0.01934182932972908,-0.011519136347435415,-0.010533047919534147
1771956833763240400,8.800240478515626,-0.01051613331735134,-0.013819558776915073,-0.003690598146244883
1771956833783203600,8.82020361328125,-0.023231237983703613,-0.011068725698813795,0.006885759192053228
1771956833803166700,8.840166748046874,-0.03654781567454338,-0.0008833587057888508,0.0004385284145828336
1771956833823129300,8.86012939453125,-0.010211012890934944,0.00605210311319679,-0.013516895169066264
1771956833843092500,8.880092529296874,-0.032655484411120414,-0.008150902023352682,-0.0028697102174162865
1771956833863055400,8.900055419921875,-0.028159342035651205,-0.009274901084601878,0.008726975745102391
1771956833883018500,8.9200185546875,-0.009605448213219642,-0.017553557673469184,-0.016489472105912863
1771956833902981600,8.939981689453125,-0.018132453539967536,-0.0035025647608563303,-0.002891520190425217
1771956833922944500,8.959944580078124,-0.021726094117760657,-0.005776281846500933,-0.004972810843354091
1771956833942907600,8.97990771484375,-0.01469020413160324,0.007312405372597277,-0.013544468162581324
1771956833962869800,8.999869873046874,-0.013050035709142684,0.006707936673425138,-0.0083380220932886
1771956833982832400,9.019832275390625,0.0035620763957500455,0.003973725936561823,-0.01067052016146481
1771956834002795500,9.03979541015625,-0.0018231237739324568,-0.00934694340750575,0.000672611165093258
1771956834022758400,9.05975830078125,-0.009305003961920738,-0.017922500583715736,-0.016088033431861548
1771956834042721500,9.079721435546874,-0.00032440964877605437,-0.006322773280739784,0.0027707890207413583
1771956834062684400,9.099684326171875,-0.02860182510614395,-0.0008341858018189668,-0.008474325291439891
1771956834082647600,9.1196474609375,-0.03129588649570942,-0.004023812155984342,-0.00352187224952504
1771956834102610700,9.139610595703125,-0.014389759880304335,0.0009269786518067121,-0.012846777355158701
1771956834122573600,9.159573486328124,-0.020823007798194883,-0.007396430394239723,0.013188037674035875
1771956834142536700,9.17953662109375,-0.00481061515212059,-0.007720547782070934,-0.008665920607093721
1771956834162499300,9.199499267578124,-0.03204290547072887,-0.001803688421100378,0.008419078839709982
1771956834182462500,9.21946240234375,-0.0033130700707435607,0.0017310981089249252,0.007010536349192261
1771956834202425600,9.239425537109375,-0.03309679843783379,-0.0027665786365047096,-0.01207275164220482
1771956834222388500,9.259388427734375,-0.016937106275558472,0.008330021449923515,-0.015480413794377817
1771956834242351600,9.2793515625,-0.012300678646564483,-0.0009845905905589462,-0.0014016104262322188
1771956834262313700,9.299313720703125,-0.014699556481838225,-0.012399718574248254,-0.0007246062138117849
1771956834282276600,9.319276611328124,-0.015146131205558777,-0.01922700731102377,0.002665730344224721
1771956834302239500,9.339239501953125,-0.02457330024242401,0.002632942319475114,0.009517596399830654
1771956834322202400,9.359202392578124,-0.007355623459815978,-0.0028693814238533377,0.002158648471767083
1771956834342165500,9.37916552734375,-0.026660043388605115,0.012154950032941996,-0.018426175789535044
1771956834362128400,9.39912841796875,-0.0211316353559494,0.013664843139238655,-0.009539789965329691
1771956834382091500,9.419091552734375,-0.010962123519182205,0.006025068975798785,0.000009772475343197584
1771956834402054700,9.4390546875,-0.0037789340168237684,-0.0018233429696410894,-0.011389792613033205
1771956834422017500,9.459017578125,-0.0069195701301097865,-0.010872180213406682,-0.010118886761227621
1771956834441980700,9.478980712890625,-0.021877485287189483,-0.0009654840312898159,0.0007958265528082847
1771956834461943600,9.498943603515626,-0.0027186113089323043,0.0023065599093213675,-0.017707789253955705
1771956834481906400,9.518906494140625,-0.009904138898849486,-0.004680887825228274,-0.001144429927924648
1771956834501869600,9.53886962890625,-0.016338555860519407,-0.0165977182533592,-0.01236276583103463
1771956834521832400,9.55883251953125,-0.009613631519675253,0.0020062983211129905,-0.01686068003848195
1771956834541794600,9.578794677734376,-0.01395253750681877,-0.009835932500846684,0.005621054752171039
1771956834561757400,9.59875732421875,-0.011858780097961425,-0.01457395734079182,0.002443064036872238
1771956834581720600,9.618720458984376,-0.021584639820456504,-0.011339176670648156,-0.012289883257914334
1771956834601683700,9.63868359375,-0.010366495713591575,0.0063319429678842425,-0.006826348021859303
1771956834621646600,9.658646484375,-0.027878771528601645,0.0036337168598547577,-0.009246670503960922
1771956834641609700,9.678609619140625,-0.01891220574080944,-0.012124956753477453,-0.019752474223542957
1771956834661572600,9.698572509765626,-0.0043944355666637415,-0.002343969310261309,0.01261862202193588
1771956834681535700,9.71853564453125,-0.0033463878184556957,-0.006774754831939935,-0.010813326165638864
1771956834701498600,9.73849853515625,-0.03042787148952484,0.00017122838106006384,0.002783383640833199
1771956834721461500,9.75846142578125,-0.01950081928372383,-0.0038243805937469002,-0.005553305011894554
1771956834741424600,9.778424560546876,-0.02787818700671196,0.009378836383111775,-0.0015256934636272488
1771956834761387500,9.798387451171875,-0.023092121773958203,-0.010436455677263439,0.0043788178724236786
1771956834781350700,9.8183505859375,-0.010973813956975937,-0.013254106913879514,-0.009106056456873193
1771956834801312800,9.838312744140625,-0.013963643422722816,-0.002148665933869779,-0.013190220497967675
1771956834821275600,9.858275634765626,-0.01411503459215164,-0.0025280571728944776,0.0019967998404055833
1771956834841238500,9.878238525390625,-0.017258593314886092,0.0002464855743572116,0.005751302668871357
1771956834861201400,9.898201416015626,-0.019646949756145476,0.004012560109607875,0.007129532219516113
1771956834881164500,9.91816455078125,-0.01949205145537853,0.001469451498053968,0.0023055187297053633
1771956834901127700,9.938127685546876,-0.029665070423483847,-0.0012883958427235484,-0.006647986647114157
1771956834921090600,9.958090576171875,-0.00003331774771213531,-0.017310067773796615,0.00472524755676277
1771956834941053700,9.9780537109375,-0.012009586745500563,-0.016610395071841776,-0.009205553042283281
1771956834961016600,9.9980166015625,-0.003777180451154709,-0.0069021075386554,-0.00782380722714588
1771956834980979700,10.017979736328124,-0.015292846199870109,-0.01766713758315891,-0.005403092019399628
1771956835000942600,10.037942626953125,-0.02023497877717018,0.004372771724127233,0.010667095228517427
1771956835020905700,10.05790576171875,-0.01858896513581276,-0.01043261975236237,-0.008851497173914685
1771956835040868600,10.07786865234375,-0.005429039311408996,-0.008172602398507296,-0.009197397135291248
1771956835060831500,10.09783154296875,-0.010667524486780166,-0.018498948764801026,-0.010884866165043786
1771956835080793600,10.117793701171875,0.0007049333989620208,-0.003805091371387243,0.008334222701005638
1771956835100756700,10.1377568359375,-0.017703414472937582,-0.007738266101852059,0.0018127393772359936
1771956835120719600,10.1577197265625,-0.02817570864856243,0.001999978178180754,0.0020495346746407447
1771956835140682800,10.177682861328124,-0.023833295530080793,-0.012757774764299392,0.00023666743324138223
1771956835160645600,10.197645751953125,-0.014856792870163917,-0.0028221447486430403,-0.008314595551928506
1771956835180608500,10.2176083984375,-0.010219196197390555,-0.015245499926805496,-0.01731885386845097
1771956835200571600,10.237571533203125,-0.005583353090286254,-0.01683353630322963,0.003119894719356671
1771956835220534500,10.257534423828124,-0.018603578183054924,0.002245696567557752,-0.0030880017437506465
1771956835240497700,10.27749755859375,-0.009170563927292824,-0.006443513583578169,0.006730376834096386
1771956835260460500,10.29746044921875,-0.015299860462546347,0.004922952952794731,0.0043105292760301376
1771956835280423700,10.317423583984375,-0.016648936983942986,0.012180267137289046,-0.009163640996161848
1771956835300386600,10.337386474609374,-0.018445757272839546,0.003923201325722038,-0.010197194428136571
1771956835320349700,10.357349609375,-0.031310499542951585,-0.028122772884927687,0.016761000789981335
1771956835340311600,10.3773115234375,-0.009308511093258857,-0.014060308730229735,-0.0056827035452239215
1771956835360274400,10.3972744140625,-0.01123860237300396,-0.004902531219273806,-0.012066203170409425
1771956835380237600,10.417237548828124,-0.012741408151388167,0.011319814383052289,-0.0038816637389361857
1771956835400200700,10.43720068359375,-0.02127367417514324,0.020005736598558723,-0.004238066828018054
1771956835420163600,10.45716357421875,-0.01738426552116871,0.012390256626158952,-0.00016753858663141725
1771956835440126700,10.477126708984375,-0.023968904608488082,-0.0037550782172009346,-0.013617871325509621
1771956835460089600,10.497089599609374,-0.015439561194181441,-0.0010980243697762489,-0.00945725364787504
1771956835480052700,10.517052734375,-0.008260463345050812,-0.01497643719445914,-0.01094828679007478
1771956835500015600,10.537015625,-0.012454407903552055,0.0019240999303758142,0.0006899093597661704
1771956835519978500,10.556978515625,-0.023519407275319097,0.010291311585530639,0.0007469824424013495
1771956835539941600,10.576941650390625,-0.026813188123703,-0.003928133229166269,-0.0070160619076807046
1771956835559904500,10.596904541015626,-0.010799041911959647,0.008385331833735108,0.003252097131125629
1771956835579867600,10.61686767578125,-0.02022328833937645,-0.005772701649926603,-0.01576033584745601
1771956835599829000,10.6368291015625,-0.02336860062777996,-0.01822057021483779,-0.014047887640073895
1771956835619792000,10.6567919921875,-0.007653729623556137,-0.01665898345392197,0.0035917682811152187
1771956835639755000,10.676755126953125,-0.048804655179381366,-0.0010891104109585284,-0.0035343298722989853
1771956835659718100,10.69671826171875,0.44494215408265586,0.3039626712160185,-0.18215024563409388
1771956835679681000,10.716680908203125,-0.32586978445649145,-0.3066659388253465,0.12334223809824324
1771956835699644200,10.73664404296875,0.39424364798069,-0.3670689696008339,0.36349067272264507
1771956835719606800,10.756606689453125,-0.7541022112786769,0.2758541095195338,-0.25008688678480684
1771956835739570000,10.77656982421875,0.601011252194643,0.10140530510824174,0.11541830409802496
