time,seconds_elapsed,z,y,x
1772003694080420000,0.062420166015625,-0.041809097203612325,-0.0018178630769252776,-0.010935874833073466
1772003694100384000,0.082384033203125,-0.03614800270199776,0.01151478896588087,-0.016984324684459717
1772003694120348000,0.102347900390625,-0.007048749467730522,0.005931143614649772,0.024229400441888718
1772003694140312000,0.12231201171875,-0.015707272219657897,-0.010388049958273768,-0.02002995772436261
1772003694160276000,0.14227587890625,-0.010134440523386001,-0.008700535262748598,-0.010275145902018994
1772003694180240000,0.162239990234375,-0.0004927519530057906,0.00006583177782595157,-0.0016035627391189336
1772003694200203800,0.182203857421875,-0.01417524034678936,-0.0126963999658823,-0.013048355208709835
1772003694220169000,0.2021689453125,-0.027501754909753796,0.0012958119641989468,-0.00819212908288464
1772003694240133000,0.222133056640625,0.01818155337870121,0.014916779429093002,-0.01087291086576879
1772003694260097000,0.242096923828125,-0.05141162280738353,0.010706322127208113,0.0030974180260673165
1772003694280061000,0.26206103515625,0.013120178335905074,0.012113777772337197,0.00040766748543828724
1772003694300025000,0.282025146484375,-0.00939677389860153,0.0038297143559902903,-0.0021594978551380335
1772003694319989000,0.301989013671875,-0.020891396859288213,-0.012805194102600215,-0.002071801305375993
1772003694339953000,0.321952880859375,-0.008686579802632332,0.004796878887712955,0.013134407790657133
1772003694359916800,0.341916748046875,-0.013570844712853431,0.007710720507800578,-0.008739862626139074
1772003694379882000,0.361882080078125,-0.031070261046290397,-0.004487593742832541,0.016235515611153096
1772003694399846100,0.38184619140625,-0.028669629645347593,-0.00956343570239842,0.0011921141277067362
1772003694419810000,0.40181005859375,-0.01668868447244167,0.0007467267140746116,0.017933697831165045
1772003694439774000,0.42177392578125,-0.021702128720283508,-0.0024764731161296366,-0.00761540690716356
1772003694459738000,0.441738037109375,-0.014507248780131338,-0.007581614235416054,0.016078754146862773
1772003694479702000,0.461701904296875,-0.010818915656208992,0.009514043602719902,0.01323288146276027
1772003694499666000,0.481666015625,-0.02313946804702282,-0.005277794272452592,0.0053390777393244205
1772003694519630000,0.501630126953125,-0.022739070552587507,0.0001774754587560892,0.003147540778107941
1772003694539595000,0.521594970703125,-0.019640520015358924,-0.006439458462968469,0.024603604049142448
1772003694559559200,0.54155908203125,-0.018214286604523656,-0.007560059990733861,-0.002389105359930545
1772003694579523000,0.561523193359375,-0.019753332740068436,0.006209083773195743,0.020725063849054277
1772003694599487000,0.581487060546875,-0.02509352472424507,0.012224617735669015,-0.017213384199980645
1772003694619451100,0.601451171875,-0.007116554006934166,0.005342895397916436,-0.0028783136489801105
1772003694639415000,0.6214150390625,-0.028700024783611295,-0.006252119197323918,0.0060769452935084695
1772003694659379000,0.64137890625,-0.02162789444029331,0.0028629882156848904,-0.0041763906355015935
1772003694679343000,0.661343017578125,-0.021036358287930487,-0.010499620573967694,0.0006497874119319021
1772003694699308000,0.68130810546875,-0.0014513678520917891,-0.01623831035643816,0.008729724824614822
1772003694719272000,0.70127197265625,-0.014492051210999488,0.00390161054842174,-0.008847432920150458
1772003694739235800,0.72123583984375,-0.019137246668338773,0.004243701984360814,0.0023457411422394213
1772003694759200000,0.741199951171875,-0.009870821151137351,-0.007235796472430229,-0.018910817501321432
1772003694779164200,0.7611640625,-0.0212450326025486,0.014963321984559297,0.00460842537721619
1772003694799128000,0.781128173828125,-0.029619477716088295,-0.009280015651136637,0.007752258094586431
1772003694819092000,0.801092041015625,-0.007779401829838752,0.00046601007655262946,0.007393964442517608
1772003694839056100,0.82105615234375,-0.014814707294106482,-0.006398468865454196,-0.00789570341957733
1772003694859021000,0.84102099609375,-0.0022486557096242903,0.007052694990485906,-0.018886450245045126
1772003694878985000,0.86098486328125,-0.026548399707674978,-0.0006898819603025913,-0.0013978293002583086
1772003694898948900,0.880948974609375,-0.0014046061009168624,-0.003460296521708369,-0.019444230258278548
1772003694918912800,0.900912841796875,-0.018204349732398987,0.011177300639823078,0.006933781318552792
1772003694938877200,0.920877197265625,-0.025378186884522435,0.008859744412451982,0.01687878195075318
1772003694958841000,0.940841064453125,-0.009065934509038925,-0.01601195425465703,0.00944057650770992
1772003694978805000,0.960804931640625,-0.03525660682022572,-0.006639730275422334,-0.003490856056753546
1772003694998768600,0.9807685546875,0.00024257658421993254,-0.013171835457906126,0.00463752360753715
1772003695018733800,1.00073388671875,-0.03175941235423088,0.0062467854350805275,0.008397679858654737
1772003695038697700,1.02069775390625,0.01210778642296791,0.006377718338370323,0.004046809439081698
1772003695058661600,1.04066162109375,-0.01903495533764362,-0.02769377035051584,-0.007186075579188764
1772003695078625800,1.060625732421875,0.027192542830109596,-0.011474310825020075,0.006235149796213955
1772003695098589700,1.080589599609375,-0.03760521577298641,-0.006084215284511447,-0.014649543327651917
1772003695118553600,1.1005537109375,-0.007085574346780777,-0.003988338983803987,-0.0007754778845235705
1772003695138517500,1.120517578125,-0.0313444018125534,0.0015302052419632673,0.006818173848558217
1772003695158481700,1.140481689453125,-0.0006675239980220794,-0.0007033259637653827,-0.013028591062314807
1772003695178445600,1.160445556640625,0.0012865326792001724,0.008157222166284919,0.005312299330253153
1772003695198410800,1.18041064453125,-0.019064765954017637,0.0016652297984808683,0.009506590948626398
1772003695218374700,1.200374755859375,-0.0183212541103363,-0.014036635593697428,-0.012750961431022733
1772003695238338800,1.2203388671875,-0.0365817179441452,0.002730374811962247,0.016082261278200893
1772003695258302700,1.240302734375,0.010274141255021095,-0.012157397718355058,-0.017517865305580197
1772003695278266600,1.2602666015625,-0.022633272090554237,0.0034460488006472587,-0.0006479059820994734
1772003695298230500,1.28023046875,-0.0139729957729578,-0.006084726741164922,-0.005431578328367322
1772003695318194700,1.300194580078125,-0.026233926931023596,0.010345379860326647,-0.003579301525186747
1772003695338158600,1.32015869140625,-0.03569499823749065,-0.011649229000508785,0.005482778792642057
1772003695358122500,1.34012255859375,0.007696399721503257,-0.011731573521718382,0.01923752870503813
1772003695378087700,1.360087646484375,-0.002338087558746338,-0.008642375334724783,-0.0035312793986871835
1772003695398051800,1.3800517578125,-0.02686287248432636,-0.005787570425495505,0.01263339946595952
1772003695418015700,1.400015625,-0.02729775677025318,0.011965163081884384,0.006736596512328833
1772003695437979600,1.419979736328125,-0.004407295048236846,0.0009133154526352882,0.017244692653696984
1772003695457943600,1.439943603515625,-0.03464110527038574,-0.009772621473670005,0.00021006255410611628
1772003695477907700,1.45990771484375,0.005918284133076667,-0.012443301987648009,0.0053971280694939195
1772003695497871600,1.47987158203125,-0.030895489001274107,0.0003810352068394422,-0.0035294345014728603
1772003695517835500,1.49983544921875,-0.011417466071248054,0.00371251771710813,0.005262066980358213
1772003695537799700,1.519799560546875,-0.003793547064065933,-0.0030347645860165358,-0.0008814042107202113
1772003695557763600,1.539763671875,-0.040461774247884746,0.005572612500563264,-0.006144567169621587
1772003695577728800,1.559728759765625,-0.011439093381166457,-0.012431100093200802,-0.0007519874110817909
1772003695597692700,1.579692626953125,-0.016537293303012846,-0.0010666793834418057,0.0007432743816636503
1772003695617656800,1.59965673828125,-0.0020230302602052687,-0.01459865339063108,-0.013909228088054806
1772003695637620700,1.619620849609375,-0.021645430096983907,0.0060321928363293404,0.02146863049166277
1772003695657584600,1.639584716796875,-0.010868015494942665,-0.003985781700536609,-0.0023515680948272347
1772003695677548500,1.659548583984375,0.0043874213039875026,0.007282631288841366,-0.011009506324864924
1772003695697512700,1.6795126953125,-0.022997429227828978,0.009691226800531149,-0.007119257420673966
1772003695717476600,1.6994765625,-0.021178981629014014,0.007107347787171602,-0.01061192184202373
1772003695737440500,1.7194404296875,-0.013685995525121689,0.010351298144459724,-0.0010589892673306166
1772003695757404700,1.73940478515625,-0.007255085694789886,-0.005188070162385702,-0.004279851009976118
1772003695777369900,1.759369873046875,-0.013840309303998946,-0.004550941302627324,-0.002332717263884842
1772003695797333800,1.779333740234375,-0.020254852521419522,0.0035460751090198753,0.016314225136861205
1772003695817297700,1.799297607421875,-0.026968086424469948,0.002591843124106526,-0.011542590288259089
1772003695837261600,1.819261474609375,-0.013042436924576758,0.008321180556342005,0.016379435860179363
1772003695857225700,1.839225830078125,-0.0443067592382431,0.0028397534705698487,-0.0126184210925363
1772003695877189600,1.859189697265625,0.004050152173638344,-0.010310527742654084,-0.0013337510881014168
1772003695897153500,1.879153564453125,-0.019286299750208853,-0.009381941655650735,0.0016280943921767174
1772003695917117700,1.89911767578125,0.006167290458083153,0.006391381537541747,0.00896768003264442
1772003695937081600,1.91908154296875,-0.03722586106657982,0.0003021978169679642,0.00398990988638252
1772003695957045500,1.93904541015625,0.004349427381157875,0.004530263840779662,-0.0017255451509729026
1772003695977010700,1.9590107421875,-0.02291150451004505,-0.0016742898877710104,0.0011533347535878419
1772003695996974600,1.978974609375,-0.003893500307202339,-0.008667436710745095,-0.013673428304493427
1772003696016939000,1.99893896484375,-0.014520108261704445,-0.01832994887344539,0.023149167457129805
1772003696036903000,2.01890283203125,-0.02407353402674198,0.004926569681987166,0.010234083239268511
1772003696056866800,2.03886669921875,-0.019437106397747993,-0.008956044393777847,0.009747121706232428
1772003696076831000,2.0588310546875,-0.012996844217181206,-0.001394888424500823,-0.00640699923178181
1772003696096795000,2.078794921875,0.010802549043297766,-0.0006968962229788303,-0.0068438562790863215
1772003696116758800,2.0987587890625,-0.01867079820036888,-0.010898995155096054,0.010200345366448163
1772003696136722700,2.11872265625,-0.01973871969282627,-0.006633885056525468,-0.0033513927871361374
1772003696156686800,2.138686767578125,-0.014504910692572592,-0.013190978549793363,0.017967070377804338
1772003696176652000,2.158652099609375,-0.00402677129805088,-0.009590542905032634,0.0029671061772853133
1772003696196616000,2.178615966796875,-0.018382044386863708,-0.011914090481773018,0.007276749537326395
1772003696216579800,2.198579833984375,-0.020462357792258263,-0.0010734013851732016,0.0038305180735886094
1772003696236544000,2.2185439453125,-0.02121229937672615,-0.0023502894531935454,-0.021911643285118042
1772003696256508000,2.2385078125,-0.0034410803645849226,-0.00897153422385454,-0.0011189027610234916
1772003696276471800,2.258471923828125,-0.03381985201537609,-0.004167494942992926,0.010244129709247499
1772003696296435700,2.278435791015625,-0.01692366227209568,0.01014686161354184,-0.007197327625565231
1772003696316399900,2.29839990234375,-0.021721417942643165,0.011185118620097637,0.009045658905990421
1772003696336363800,2.31836376953125,-0.006928922480344772,-0.005822203347459435,-0.007148593113012611
1772003696356327700,2.33832763671875,-0.02369184123277664,0.006902911256253719,-0.0010264021719805895
1772003696376291800,2.358291748046875,-0.009165303230285644,-0.006470365057885646,0.0235531634144485
1772003696396257000,2.378257080078125,-0.033095044872164726,0.007307692664861679,-0.0016269253483973442
1772003696416221000,2.398220947265625,-0.0001607435196638107,0.0031852059073746203,0.012601177696790545
1772003696436184800,2.418184814453125,-0.022888708156347273,-0.004034954604506492,-0.000220200355630368
1772003696456148700,2.438148681640625,-0.002069207489490509,-0.009444047106429933,-0.00544803627282381
1772003696476113000,2.45811279296875,-0.01343406659066677,-0.007983692230284214,0.014241839309595524
1772003696496076800,2.478076904296875,-0.0016080197185277937,-0.0074137833878397934,0.006646762804407626
1772003696516040700,2.498040771484375,-0.03243102800548076,0.005762874375656247,0.00008676496800035237
1772003696536004900,2.5180048828125,0.004233107525110244,-0.004057239501550794,-0.0030027254799380896
1772003696555968800,2.53796875,-0.022243395990133284,-0.009259630450233817,0.0005909698967821895
1772003696575933000,2.557932861328125,-0.005020458510518073,-0.004391512957215309,-0.0066323689528740935
1772003696595896800,2.577896728515625,-0.017269699230790136,-0.006413447238877415,-0.004387275173515081
1772003696615862000,2.597862060546875,-0.025359482184052467,-0.011742387176677584,0.010192162059992552
1772003696635826000,2.617825927734375,-0.003363338953256607,-0.008871580980718136,-0.018977105936873705
1772003696655789800,2.637789794921875,-0.01593406671285629,0.0035194062978029248,0.010047401560749857
1772003696675753700,2.657753662109375,-0.024142507609724997,-0.0036219168242067096,-0.001982844380289316
1772003696695718000,2.6777177734375,-0.01485796191394329,-0.016917743987962603,-0.0025952406575903294
1772003696715681800,2.697681884765625,-0.018747370567917823,0.01613455772101879,-0.01022637485684827
1772003696735645700,2.717645751953125,0.002364391043782234,-0.008790843894705176,-0.007358984460681677
1772003696755609900,2.73760986328125,-0.02040098299384117,0.006939078548178076,0.025745010902918874
1772003696775574000,2.757573974609375,-0.02188333050608635,0.006018164310976863,0.0038597624343819914
1772003696795538000,2.777537841796875,-0.0184434191852808,-0.007507379955425858,0.008343520252313464
1772003696815501800,2.797501708984375,-0.006035773032903671,-0.01119607840552926,0.007122216562740504
1772003696835466000,2.817466064453125,-0.010814239481091498,0.005975275017321109,-0.006125880735460668
1772003696855430000,2.837429931640625,-0.029368717825412748,-0.014530264329537749,-0.006570555763039738
1772003696875394800,2.857394775390625,-0.016952303844690323,-0.0034307051010429856,0.015625731416046618
1772003696895358700,2.877358642578125,-0.012014847442507743,-0.013423326000943779,0.01779142154995352
1772003696915323000,2.897322998046875,0.000991933646798134,-0.01499649360179901,-0.01725130505757406
1772003696935286800,2.917286865234375,-0.013252864804863929,0.003164528445526957,-0.001486640094872564
1772003696955251000,2.9372509765625,-0.018780688315629956,-0.0006459697533398866,0.025916823805868624
1772003696975214800,2.95721484375,-0.021923662516474724,-0.005745704045146703,0.0044336898648180065
1772003696995179000,2.977178955078125,-0.022240473380684852,-0.01654014284722507,0.0005620360632427036
1772003697015143000,2.997142822265625,-0.0052162733435630795,-0.016998115747794508,-0.01282283935714513
1772003697035107000,3.017107177734375,-0.013741525104641914,-0.015405439728870988,0.016802227849513292
1772003697055071200,3.0370712890625,0.008708207112550735,0.006612257746607065,-0.007912654554378241
1772003697075035100,3.05703515625,-0.004755085572600365,-0.01658376279324293,0.005591262402106076
1772003697094999000,3.0769990234375,-0.016716741523146627,-0.004365940124541521,-0.006910290845111012
1772003697114964000,3.0969638671875,-0.012070377022027968,-0.008121274070069193,-0.009140826376155018
1772003697134928000,3.116927978515625,-0.014773790761828422,-0.01188661795295775,-0.017731087931152432
1772003697154892000,3.13689208984375,-0.011036942321062088,0.0013876549661159514,-0.003876859699655324
1772003697174856000,3.15685595703125,-0.014475100076198576,0.007768880435824394,0.01816341493381187
1772003697194819800,3.17681982421875,-0.0042991584986448285,-0.0076719228673726315,0.0035736207030713555
1772003697214784300,3.1967841796875,-0.012554945668578147,-0.008399433424323796,0.02096731163971126
1772003697234748200,3.216748046875,-0.019893033471703528,-0.0056070262268185615,-0.015128668614104388
1772003697254712000,3.236712158203125,-0.017218261304497717,-0.005938304007798433,0.015313450596481561
1772003697274676000,3.256676025390625,-0.03128887223303318,0.004414382376149296,0.01600979883018881
1772003697294640000,3.27664013671875,-0.025601474246382712,-0.006218655319139361,0.003427325833868235
1772003697314604000,3.29660400390625,-0.03099251963496208,-0.0040080665975809095,-0.009647186729405075
1772003697334568000,3.31656787109375,0.009240122032165527,0.004892082890495658,-0.006094828010071069
1772003697354532000,3.336531982421875,-0.012332827350497245,-0.005577069479972124,0.028054639552161097
1772003697374496000,3.35649609375,-0.0171101247549057,0.0006748305216431618,-0.001799158376455307
1772003697394461000,3.3764609375,-0.022359131324291227,0.01306932493150234,0.01879069825299084
1772003697414425000,3.396425048828125,0.001589315018057823,-0.0034147038143128154,0.006838065859116614
1772003697434389000,3.416388916015625,-0.023538696497678754,-0.00047105157785117625,0.009067834205180406
1772003697454353200,3.436353271484375,-0.010823591831326484,-0.0025486615695059296,0.01441093053249642
1772003697474317000,3.456317138671875,-0.016376549783349036,-0.007716054270043969,-0.016005561046488582
1772003697494281000,3.476281005859375,-0.022810382223129273,-0.01537460619919002,0.0158055266960524
1772003697514245000,3.4962451171875,-0.011148586001992224,-0.005619081990793347,0.004544529828149825
1772003697534209000,3.516208984375,-0.023267478340864182,0.012552826776728034,-0.014031393162999301
1772003697554173000,3.5361728515625,-0.006067337214946746,-0.002560717333480716,0.0022720000525936483
1772003697574137000,3.55613720703125,-0.01744213318824768,-0.0058035717122256756,-0.00047974634096026417
1772003697594101000,3.57610107421875,-0.017444471275806426,-0.0029393413875252006,0.011065017638076095
1772003697614065000,3.59606494140625,-0.016841829207539558,0.002075710295513272,-0.013108652294892817
1772003697634029000,3.616029052734375,-0.001724339574575424,0.001971300072968006,0.004593538335338235
1772003697653993200,3.6359931640625,-0.03121171534359455,-0.0003003711860626936,0.006343341144733131
1772003697673958100,3.655958251953125,0.0003577273964881897,0.0008992869272828101,-0.004097242718376219
1772003697693922000,3.675922119140625,-0.030914778223633765,0.013018909918516874,0.001353168174624443
1772003697713886000,3.695885986328125,-0.013998130214214324,-0.0037941315859556196,-0.0014731230261735618
1772003697733850000,3.71585009765625,-0.01115793835222721,0.00004763853400945663,-0.007175773380883038
1772003697753814000,3.73581396484375,-0.04063713081479072,0.007323109429702162,0.00674872534153983
1772003697773778000,3.75577783203125,-0.006518003591895103,-0.0012485387563705443,-0.010096811926737427
1772003697793741800,3.775741943359375,-0.0002449146717786789,0.008459785309433936,0.0013330935009755194
1772003697813706000,3.7957060546875,-0.02868774982392788,0.004058773871511221,0.01809939152058214
1772003697833670100,3.815670166015625,-0.008927987343072891,0.0070505760986357925,0.0021077128689736126
1772003697853634000,3.835634033203125,-0.005178863942623138,-0.0021801935832947493,-0.011042148219142109
1772003697873598200,3.85559814453125,-0.021932430344820023,-0.00518704724907875,-0.013442761353775859
1772003697893562000,3.87556201171875,-0.005782090532779693,-0.005024404033273458,-0.017135405326634646
1772003697913526000,3.895526123046875,-0.024199206233024597,-0.001032338722422719,0.012358875107206404
1772003697933490000,3.915489990234375,-0.017314707416296003,-0.009504252861067652,-0.012420377769786864
1772003697953454000,3.9354541015625,-0.007283727267384529,-0.003305105959996581,0.002916965158935636
1772003697973418000,3.95541796875,-0.03033025633394718,0.001672755517810583,0.0027270503437146544
1772003697993383000,3.9753828125,-0.022084406036138534,0.013917466193437575,0.009973258612304926
1772003698013347300,3.995347412109375,-0.01685001251399517,0.007958776984736323,-0.0007739983134903013
1772003698033311500,4.0153115234375,-0.02027414174377918,0.006296762056648731,-0.0021000775517895816
1772003698053275400,4.035275390625,-0.013536942443251609,-0.012760551243275403,-0.01935364763168618
1772003698073239300,4.0552392578125,-0.010998948398232459,0.004208338410034775,0.02109510273784399
1772003698093203200,4.075203125,-0.01817278555035591,0.0028534897349774837,-0.003069799366779625
1772003698113167400,4.09516748046875,0.0023065233767032623,-0.0036946897994726896,0.01652509140856564
1772003698133131300,4.11513134765625,-0.029713001218438145,-0.0026287410683929918,0.0075095353798940775
1772003698153095200,4.13509521484375,0.001415127494931221,-0.017354016513377427,-0.004705492543522268
1772003698173059600,4.1550595703125,-0.007107786178588866,-0.0005209551341831684,0.018466014609578994
1772003698193023500,4.1750234375,-0.011133972954750061,0.007759966477006673,-0.0064982577118091285
1772003698212987400,4.1949873046875,0.0024818799436092374,0.008760302625969052,-0.001487389013543725
1772003698232951300,4.214951416015625,-0.018166355809569358,0.0004433598533272743,0.0032797157904133198
1772003698252915500,4.23491552734375,-0.00860474673807621,-0.013603797134384511,-0.027898736604396252
1772003698272879400,4.25487939453125,-0.014139584511518477,-0.0006098024614155293,0.0021894363356754184
1772003698292843300,4.27484326171875,-0.03656242872178554,-0.004755231703072786,-0.00010196253713220357
1772003698312807400,4.294807373046875,-0.025033903491497037,-0.0027346856608986853,-0.009537442744616419
1772003698332771300,4.314771240234375,0.021060908207297325,-0.005685352160036563,-0.003479604010377079
1772003698352735200,4.3347353515625,-0.025776830813288687,0.004602452294155955,0.0068191236966289575
1772003698372700400,4.354700439453125,-0.015882044264674187,0.0023676789794117212,-0.013977215290348975
1772003698392664300,4.374664306640625,-0.026206454402208326,-0.008208294766396283,0.006934146644733846
1772003698412628500,4.39462841796875,-0.012283727511763572,0.0025404782630503177,-0.007167681405972689
1772003698432592400,4.41459228515625,-0.018418284744024276,-0.0029180794037878513,0.004713547985814512
1772003698452556300,4.434556396484375,-0.018403087174892425,-0.0011713088016957044,0.015805544962361456
1772003698472520400,4.4545205078125,-0.03456219481527805,-0.0075766457993537185,-0.01653745769979432
1772003698492484400,4.474484375,-0.008244681254029274,-0.00792209823615849,0.0016675313534215092
1772003698512448300,4.4944482421875,-0.00914718305170536,-0.006525456245988607,-0.00861831860570237
1772003698532412400,4.514412353515625,-0.01376782858967781,0.0037482466176152226,0.0047369471277110275
1772003698552376300,4.534376220703125,-0.015104630151391029,0.015593436581641435,-0.009944744903873651
1772003698572340200,4.55434033203125,-0.03275485313236713,0.0013119593814015387,0.018407562420610337
1772003698592304400,4.574304443359375,-0.021518004325032234,-0.008083718538656831,0.0005440620151348412
1772003698612268500,4.5942685546875,0.005399813216924667,-0.005973083060234785,0.0014620719091966747
1772003698632232400,4.614232421875,-0.032466683840751645,-0.015616598261520266,-0.006248685131222009
1772003698652196400,4.6341962890625,-0.0017740239351987839,0.0015595774669200182,0.004417067523580044
1772003698672160500,4.654160400390625,-0.0225695592045784,-0.002925458992645144,-0.0014743286025710404
1772003698692124400,4.67412451171875,-0.004901800566911697,-0.01131320197917521,-0.0007887392248958349
1772003698712088300,4.69408837890625,-0.011648936739563942,-0.012784443575516342,-0.022513006711751223
1772003698732052200,4.71405224609375,0.0013794716596603393,-0.00256020587682724,0.011969894055929034
1772003698752016400,4.734016357421875,-0.02196691713631153,0.0010767623860388994,-0.007957461810484527
1772003698771981600,4.753981689453125,-0.013012041786313057,0.00855871563926339,0.007310834470018744
1772003698791945500,4.773945556640625,-0.026488778474926946,-0.0016731208439916372,0.00034726080140098925
1772003698811909400,4.793909423828125,-0.00000526069700717926,-0.012401435607299208,0.008690653189551084
1772003698831873500,4.81387353515625,-0.016612112104892728,-0.0010283931996673346,0.03534686065325513
1772003698851837400,4.83383740234375,-0.03128185797035694,-0.007288549572974443,0.016189667175430803
1772003698871801300,4.85380126953125,-0.027687048348784445,-0.00385718688480556,0.013890432056039572
1772003698891765200,4.87376513671875,-0.01795183627605438,-0.007254281977191567,0.02209558501727879
1772003698911729400,4.8937294921875,-0.008075754427909851,0.000495893758162856,-0.021771522428374736
1772003698931693300,4.913693359375,-0.0019318448454141615,0.0044615825187414885,0.015182901285681873
1772003698951657200,4.9336572265625,-0.01120762271285057,-0.004187076426297426,0.0042406697770580645
1772003698971621400,4.953621337890625,0.0019546411991119383,-0.010342530316114425,0.01293780750632286
1772003698991585300,4.973585205078125,-0.025111644902825355,-0.002134016354009509,-0.005373765460215509
1772003699011549000,4.993548828125,-0.022554361635446548,0.00003156418204307556,0.009737933752778916
1772003699031513000,5.01351318359375,-0.014778466936945914,-0.00351275736130774,0.007405490483529865
1772003699051477000,5.03347705078125,0.00930266587436199,-0.0016057546962052582,0.02289252581493929
1772003699071441000,5.05344091796875,-0.023467969349026677,-0.001093859651312232,-0.018248134075198322
1772003699091404800,5.07340478515625,-0.005074819046258926,-0.021648791097849607,-0.0027704328277148305
1772003699111369000,5.093368896484375,-0.03157002726197242,-0.0017947013970464466,0.013888349696807563
1772003699131332900,5.113332763671875,-0.01870002429485321,-0.0013408201497048138,-0.0015732954650186002
1772003699151296800,5.133296875,-0.016893851655721662,-0.00392199574932456,0.008479567722138016
1772003699171261000,5.153260986328125,-0.03258066560924053,-0.011999357612431049,0.0013625022585503756
1772003699191224800,5.173224853515625,-0.022867665368318555,-0.012159735805913806,0.018298896148055792
1772003699211188700,5.193188720703125,-0.008980594313144684,0.0016962094586342573,-0.005247819259297103
1772003699231153000,5.21315283203125,-0.019746902999281883,-0.005244330394268036,0.020957685294840482
1772003699251117000,5.233116943359375,-0.0038929157853126524,-0.02142090062610805,-0.007533336380589753
1772003699271081000,5.2530810546875,-0.00851063871383667,-0.001170578149333596,0.0022894443777389823
1772003699291046000,5.2730458984375,-0.021955226698517797,-0.0092669369738549,-0.011779924441780894
1772003699311009800,5.293009765625,0.009472761744260788,0.005482815325260162,-0.01862381725348532
1772003699330974000,5.312973876953125,-0.012840776872634886,0.010322291245684028,-0.002993263531848788
1772003699350935000,5.33293505859375,-0.0002665419816970825,0.0002728255920112133,0.006166468474175781
1772003699370899000,5.35289892578125,-0.017476619979739188,0.011148001480102539,-0.03953085007332265
1772003699390862800,5.37286279296875,-0.010441314515471457,-0.004243921180069447,-0.0005002046070992946
1772003699410827000,5.392826904296875,-0.013879472270607948,-0.0034342852976173162,0.0005696348478086293
1772003699430791000,5.412791015625,-0.000263034850358963,-0.001250292322039604,0.011432480977289378
1772003699450755800,5.432755859375,-0.024798341169953345,-0.014966829115897416,0.0037761575378477573
1772003699470719700,5.4527197265625,-0.01492635097503662,0.0002794014632701874,-0.006018876697029918
1772003699490684000,5.472683837890625,0.002270283019542694,-0.006957856313884258,0.000007945844437927008
1772003699510648000,5.49264794921875,-0.020011106893420217,-0.0030847412075847387,-0.014718279448617248
1772003699530612000,5.512612060546875,-0.007446808874607086,-0.02267813414558768,0.005226045818906277
1772003699550575900,5.532575927734375,-0.023737433940172192,0.0019008651852607725,0.00031898455498740073
1772003699570540000,5.5525400390625,-0.016071429356932638,-0.008447218088805676,-0.000471873561758548
1772003699590504000,5.57250390625,0.007714519900083541,0.006470584253594279,0.007547437971178442
1772003699610467800,5.5924677734375,-0.011899696630239485,-0.011587781136855482,0.010648472726438193
1772003699630432000,5.612431884765625,-0.0383943203240633,0.000034779052436351776,0.0006830138280987739
1772003699650396000,5.63239599609375,-0.012836100697517394,0.0004667407289147377,-0.0015396123911254108
1772003699670359800,5.65235986328125,-0.005654664760828018,-0.007300532271713018,-0.011558372379280627
1772003699690323700,5.67232373046875,-0.018524083206057546,0.0009690642278641462,0.002390201338473707
1772003699710288000,5.692287841796875,-0.015385200658440588,-0.01301686409190297,0.006157919841539114
1772003699730251800,5.712251708984375,-0.018079846569895742,-0.0004945055186748505,0.01312534770136699
1772003699750216000,5.7322158203125,-0.030201076996326445,-0.010957008952647448,-0.001999905112944543
1772003699770180000,5.75218017578125,-0.013868950876593589,0.0033421500347554684,0.008419252369645983
1772003699790144000,5.77214404296875,0.0075397478550672525,0.0005139408715069294,-0.00012881401143968103
1772003699810108000,5.79210791015625,-0.025679800179600715,0.0015102584324777125,-0.02020885795522481
1772003699830071800,5.81207177734375,-0.0021989713490009307,0.004604205859825015,-0.007738357433397323
1772003699850036000,5.832035888671875,-0.009382160851359367,-0.005432984834164381,-0.0006549385110847652
1772003699869999900,5.851999755859375,-0.005635960060358047,-0.0021681378193199635,0.0008612564718350768
1772003699889963800,5.8719638671875,-0.013262217155098914,-0.0031498423330485817,0.0007514576881192624
1772003699909928000,5.891927978515625,-0.019988895061612128,0.0009247136294841766,0.001152019579336047
1772003699929891800,5.911891845703125,-0.01084989531636238,-0.0011786153253167868,-0.010922412563301622
1772003699949855700,5.931855712890625,-0.024459318473935125,-0.007280000940337776,0.007407463244907557
1772003699969820000,5.95181982421875,-0.009352350234985351,-0.007826455841958522,-0.010452201235666871
1772003699989784000,5.9717841796875,-0.012055763974785805,-0.000881166748702526,0.010139719486702232
1772003700009748200,5.991748291015625,-0.02117781258523464,-0.009461509697884321,0.01514088877486065
1772003700029712100,6.011712158203125,-0.010565233156085013,-0.01011829310618341,-0.0020112484908662736
1772003700049676300,6.03167626953125,-0.012079144850373267,0.0013177315350621937,0.004092676141113042
1772003700069640200,6.05164013671875,-0.019394436299800873,0.00318608269020915,0.008746018372289836
1772003700089604000,6.07160400390625,-0.025517303094267845,-0.0032166239589452744,-0.019961879190523175
1772003700109568300,6.091568359375,-0.006960486662387848,-0.003897518895193934,0.0029994558106176553
1772003700129532400,6.111532470703125,-0.006513911938667297,-0.004994739547371864,-0.02298077035397291
1772003700149496300,6.131496337890625,-0.024622400081157684,0.00595050590224564,-0.007534742886386812
1772003700169460200,6.151460205078125,-0.02208499055802822,-0.009484963638707995,0.014661635624244808
1772003700189424400,6.17142431640625,-0.02210018812716007,-0.014447262221202253,-0.005958360415138304
1772003700209388300,6.19138818359375,-0.039918168890476224,0.007914426386356354,-0.005862663222011178
1772003700229352200,6.211352294921875,0.0025771570116281508,-0.002275178390368819,0.008944975010491907
1772003700249316000,6.231316162109375,-0.009541735327243804,0.004097717642411589,0.003229045049101114
1772003700269280300,6.2512802734375,-0.005501520025730133,-0.00536371899023652,-0.0029369485010392964
1772003700289244200,6.271244140625,-0.006250877088308334,0.0004139876283705234,0.01902697296058759
1772003700309208000,6.2912080078125,-0.02944704375863075,-0.0019460195012390613,-0.0014932707650586962
1772003700329172200,6.311172119140625,-0.01360357793867588,-0.008993819120898843,-0.003105199473723769
1772003700349136400,6.331136474609375,-0.029333646512031554,0.0009474369179457426,0.0029506664991378784
1772003700369100300,6.351100341796875,0.00821603968143463,-0.0006991612453013658,0.012126418058201669
1772003700389064200,6.371064208984375,-0.02860357867181301,0.010893953653797507,0.02691741568315774
1772003700409028400,6.3910283203125,-0.0013724573969841002,0.000967895184084773,-0.00839128665048629
1772003700428993300,6.4109931640625,-0.02006897456049919,0.003600727905705571,0.015565489128790794
1772003700448957200,6.430957275390625,0.002221183180809021,-0.002359787933900952,-0.017940036240406333
1772003700468921000,6.450921142578125,-0.010660510224103926,0.0007888853553682565,-0.0002518924018368125
1772003700488885200,6.47088525390625,-0.01139759232699871,0.00609963204935193,-0.006306991189718246
1772003700508849200,6.49084912109375,-0.014387421792745589,-0.0017417291007936,0.0034964455473236737
1772003700528813000,6.51081298828125,-0.02307107898592949,-0.0036336072620004414,-0.012806052619125693
1772003700548777200,6.530777099609375,0.008209025418758393,0.0015688567519187926,-0.006349515157192945
1772003700568741400,6.550741455078125,-0.02081540901362896,0.0012234773803502322,0.014072327961586415
1772003700588705300,6.570705322265625,-0.013598901763558387,-0.00613338818848133,-0.0039606107266619795
1772003700608669200,6.590669189453125,-0.026036943054199218,-0.006820932061225175,0.00015424071364104747
1772003700628633300,6.61063330078125,-0.01556640244424343,0.004156973548978567,0.004626070631761104
1772003700648597200,6.63059716796875,-0.01197276186645031,-0.0012538725186139344,0.0026603783156722784
1772003700668561200,6.65056103515625,-0.022307108876109122,-0.0005390022475272417,-0.009901307620946317
1772003700688525300,6.670525390625,-0.003158171769976616,0.007384045836701989,-0.001501655000913888
1772003700708489200,6.6904892578125,-0.036678164055943485,-0.007252163085341453,-0.01605732776634395
1772003700728453000,6.710453125,-0.005243745872378349,-0.0034950755741447207,-0.007232928661908954
1772003700748417000,6.7304169921875,-0.019178163200616834,0.0016459405761212109,0.004980236097984016
1772003700768381400,6.75038134765625,-0.030416765573620795,0.017704583516716957,0.0013309015438891948
1772003700788345300,6.770345458984375,-0.011871055057644844,-0.00844224965274334,-0.0018415362134575842
1772003700808309200,6.790309326171875,-0.024739304459095,-0.0035813656181097027,0.016136694879177956
1772003700828273400,6.8102734375,-0.027274960416555402,0.012556406973302363,0.004344404146168381
1772003700848237300,6.8302373046875,-0.014088731107115745,-0.005900456215441227,0.009698642922006546
1772003700868201200,6.850201171875,-0.03893558759391308,0.005903817216306924,-0.0010830825289711355
1772003700888165000,6.8701650390625,-0.005118073666095733,0.001740048600360751,0.006474968167766928
1772003700908129300,6.89012939453125,-0.028621698850393295,-0.0036183366276323794,-0.0002494447164237499
1772003700928093200,6.91009326171875,-0.02608428932726383,-0.008526420804858208,-0.024971688442863522
1772003700948057000,6.93005712890625,-0.01890343791246414,0.00397255689278245,0.010577836909331381
1772003700968021200,6.950021240234375,-0.029670915642380714,-0.006622413814440369,0.004495503054652363
1772003700987985200,6.969985107421875,-0.020980244186520575,0.0004258972618728876,0.0056383712131530045
1772003701007950300,6.989950439453125,-0.017851298511028287,-0.007395078687369823,0.012298651086259632
1772003701027914200,7.009914306640625,-0.028761399582028387,-0.01556640244424343,0.009259374721907078
1772003701047878100,7.029878173828125,-0.009460486784577369,-0.0008899345770478248,0.020692020095977932
1772003701067842600,7.049842529296875,-0.012450316250324249,0.003972045436128974,0.004945383980311453
1772003701087806500,7.069806396484375,-0.018567922347784042,-0.008431362932547926,-0.01586147640068084
1772003701107770400,7.089770263671875,-0.012264438289403915,0.006212079447880387,0.006631400838494301
1772003701127734500,7.109734619140625,-0.008351648759841918,0.012518193854764104,0.006906454920209944
1772003701147698400,7.129698486328125,-0.02809387558400631,-0.0025090602114796637,-0.00005269830161705613
1772003701167662300,7.149662353515625,-0.013894669839739799,-0.004727320782840252,-0.006944467109348625
1772003701187626200,7.169626220703125,-0.0466553681910038,0.004053659304976463,0.024342925552651284
1772003701207590400,7.18959033203125,-0.007287234398722648,-0.005360577185079455,-0.02096332958433777
1772003701227554300,7.20955419921875,-0.015539514437317848,0.000029956746846437452,-0.015809125158935785
1772003701247518200,7.229518310546875,-0.004782558101415634,-0.0012345832962542772,0.008376216945517807
1772003701267482400,7.249482421875,-0.009736965638399124,0.00108925654143095,-0.007403736917860806
1772003701287446300,7.2694462890625,-0.037276129949092865,0.007355185068398714,-0.0234755316009745
1772003701307410400,7.289410400390625,0.008510054191946982,-0.008818316423520446,-0.004441288649383932
1772003701327374300,7.309374267578125,-0.00914016878902912,-0.004658054938912391,0.009570504764001815
1772003701347338500,7.32933837890625,-0.035462943047285075,-0.015211451526731251,0.009842818899359554
1772003701367302400,7.349302490234375,-0.006131634622812271,0.0020090748000890016,-0.02464386299429461
1772003701387266300,7.369266357421875,-0.0017892215043306349,0.015304171311482786,-0.00944050344247371
1772003701407230500,7.38923046875,-0.014960837766528129,0.007807020489126444,-0.013941121063660829
1772003701427194400,7.4091943359375,-0.0010498013138771057,-0.0020521102242171763,0.018846611425001172
1772003701447158300,7.429158203125,-0.03455693411827087,0.002210077264904976,-0.014313991230353712
1772003701467122400,7.449122314453125,-0.004320785808563233,-0.0013397241711616515,-0.002543638334516436
1772003701487086300,7.46908642578125,-0.014504326170682907,-0.00950505657866597,0.021551541268453
1772003701507050200,7.48905029296875,-0.01061024134159088,0.0012263999897986649,-0.015415888057649135
1772003701527014100,7.50901416015625,-0.009870236629247665,-0.012322817413136362,0.0019126652209088206
1772003701546978600,7.528978515625,-0.03574760520756244,0.00270049113035202,-0.0009110869629308581
1772003701566942500,7.5489423828125,-0.010150807136297225,-0.012262173267081379,0.009475264228601009
1772003701586906400,7.56890625,-0.016875146955251694,-0.022615590303391216,-0.008595248257368803
1772003701606870500,7.58887060546875,0.0019815292060375213,0.0011906710892915725,-0.020421130732726306
1772003701626834400,7.60883447265625,-0.02450666474699974,-0.01039528341665864,-0.0054857927336357535
1772003701646798300,7.62879833984375,-0.004890110129117965,0.0019449235226958988,-0.011128967986069618
1772003701666762200,7.64876220703125,-0.037220015847682954,-0.0033660423669964073,-0.011643475113157182
1772003701686726400,7.668726318359375,0.00467383702993393,-0.001405629014223814,-0.0026572547768242655
1772003701706690300,7.688690185546875,-0.017771219012141227,0.0010764701250940562,-0.004194730009790509
1772003701726654200,7.708654296875,-0.006841244196891784,-0.002570069683715701,0.003059003978129476
1772003701746618400,7.728618408203125,-0.012799860340356826,-0.007794453268498182,0.014226239881664514
1772003701766582300,7.748582275390625,-0.011131634867191313,0.002841287840530276,0.0031715427082031965
1772003701786545200,7.768545166015625,-0.00931669439971447,-0.0032123861752450466,-0.0006837262141518295
1772003701806510300,7.78851025390625,-0.007358546069264412,0.0009505056578665972,0.005490048783645033
1772003701826473500,7.808473388671875,-0.015870353826880453,-0.006590995762869715,-0.006672774028498679
1772003701846437400,7.828437255859375,-0.00987958897948265,0.0009349427625536918,-0.006074479341786354
1772003701866401500,7.848401611328125,-0.021531448328495024,-0.007206278117001056,-0.0029625030674040316
1772003701886365400,7.868365478515625,-0.032006080591678615,-0.0014567016143351792,-0.018950327527802437
1772003701906329300,7.888329345703125,-0.02631049929857254,-0.012514832853898405,0.0020360358722507953
1772003701926293200,7.908293212890625,0.001201192483305931,-0.00859152193032205,0.006355031582526862
1772003701946257400,7.92825732421875,-0.027546178573369978,-0.00848499281592667,-0.023930106968060135
1772003701966221300,7.94822119140625,0.021067922469973563,-0.014139365315809845,0.005623411106038838
1772003701986185200,7.968185302734375,-0.03789046245515346,-0.0006337678588926791,0.01989845856549218
1772003702006149400,7.9881494140625,0.008050619986653327,-0.005881459254026412,-0.006501472582202405
1772003702026112000,8.008112060546875,-0.04131517620682716,0.0015581892274320124,-0.025479181307274848
1772003702046076200,8.028076171875,-0.005098784443736076,0.008543591135367751,-0.01560549234561622
1772003702066040000,8.0480400390625,-0.010946341428160667,0.002529226216673851,0.005726341757550836
1772003702086004000,8.06800390625,-0.02200140392780304,-0.0152671272367239,-0.021305585417058317
1772003702105967900,8.0879677734375,-0.002097264540195465,-0.009372516240179539,0.0034572460480965673
1772003702125932000,8.10793212890625,-0.027823826470971105,-0.0012543839752674102,-0.008699548882059753
1772003702145896000,8.12789599609375,-0.006571195083856582,-0.0001736760664731264,0.005009060333669185
1772003702165859800,8.14785986328125,-0.012988660910725593,-0.0021310206793248654,0.020442210053373128
1772003702185824000,8.167823974609375,-0.025997780087590214,0.0009407149162143468,0.0002992569412104785
1772003702205788200,8.1877880859375,-0.012830840000510215,-0.0007815788317471742,0.00031931334855034944
1772003702225752000,8.207751953125,-0.01028349360525608,-0.005315349803864956,0.015735365802980957
1772003702245716000,8.227716064453125,-0.00831716196835041,-0.0048412294860929244,-0.009693893681652844
1772003702265680100,8.24768017578125,-0.0035351883888244625,0.004949366035684943,-0.011257124410383403
1772003702285644000,8.26764404296875,-0.019708909076452254,-0.004671572007611394,0.030087661483418196
1772003702305608000,8.28760791015625,-0.03226443926692009,-0.007396466926857828,-0.028119083090499042
1772003702325572000,8.307572021484376,0.013091536763310431,-0.01671352665275335,-0.00406450949255377
1772003702345536000,8.327535888671875,-0.010548282021284102,-0.0029064620312303302,0.015047675799764692
1772003702365500000,8.3475,-0.017125322324037552,0.008669190276414156,-0.014863313942495732
1772003702385464000,8.367464111328125,-0.007685878327488899,0.0007913695733994245,-0.004379146665986627
1772003702405428000,8.387427978515625,-0.03103402068912983,-0.013420038065314293,0.005931856000702828
1772003702425391900,8.407391845703126,-0.009189853149652481,0.0041496670253574845,-0.002013769241515547
1772003702445356000,8.42735595703125,-0.0018710545688867567,0.00516132828593254,0.013601440780516713
1772003702465320200,8.4473203125,-0.03674947572648525,0.0005059036955237388,-0.01974082031836733
1772003702485284000,8.4672841796875,-0.011321604481339453,0.005010229377448558,0.013816343906521797
1772003702505248000,8.487248046875,-0.012536240968108176,-0.01040149396173656,0.013044373153336345
1772003702525212200,8.507212158203124,-0.00654079994559288,-0.011301219280436633,0.002481039693392813
1772003702545176000,8.527176025390625,-0.005951601880788803,-0.002760696884989738,0.03483059996049851
1772003702565140000,8.547139892578125,-0.03677227208018303,0.007849471391364932,0.005404617256205529
1772003702585104000,8.567103759765626,-0.006671732848882675,-0.015169512081146239,0.009211717921588569
1772003702605068000,8.587068115234375,-0.040643560555577274,0.004163987811654806,-0.014058007175289093
1772003702625032000,8.607031982421875,-0.008002689191699027,-0.006741656279936432,-0.009323069341573864
1772003702644995800,8.626995849609376,-0.023262802165746686,0.010196545974165201,0.009905234877392649
1772003702664960300,8.646960205078125,0.002621580675244331,0.00619987755343318,-0.019368004950601606
1772003702684924200,8.666924072265624,-0.01669043803811073,-0.010448036517202854,0.021774572901986537
1772003702704888000,8.68688818359375,-0.027155133429169653,0.0015082856711000202,-0.015491565376054495
1772003702724852000,8.70685205078125,0.01459258897602558,0.022681056755036115,0.020873368012253195
1772003702744816000,8.726816162109374,-0.03568681493103504,0.010659268115088343,-0.01607561234170571
1772003702764779000,8.746779052734375,-0.014160042777657507,0.0010896218676120042,-0.013361585876345634
1772003702784743200,8.7667431640625,-0.014005144476890562,-0.002751782926172018,0.007549410732556134
1772003702804707000,8.78670703125,-0.029403789138793945,0.0014843202736228704,0.0014474953945726155
1772003702824671000,8.8066708984375,-0.02700140417218208,0.003785802149027586,0.015169201553892344
1772003702844635100,8.82663525390625,-0.03402443467676639,0.011257964660599827,-0.0054230296957306565
1772003702864599000,8.84659912109375,-0.01232522856593132,-0.0082914430052042,-0.0017241021125577389
1772003702884563000,8.86656298828125,-0.010230886635184287,-0.01706577415652573,-0.01678938663424924
1772003702904526800,8.88652685546875,-0.0112847796022892,-0.002736073900386691,-0.003120415309164673
1772003702924491000,8.906490966796875,-0.00964344213604927,-0.009878566066175699,-0.011724760188441723
1772003702944455200,8.926455078125,-0.0036281273692846294,-0.005926029048115015,-0.0069317354919388886
1772003702964419000,8.946419189453126,-0.03550912027657032,-0.010283858931437134,0.001956321699544787
1772003702984383200,8.96638330078125,-0.016968670457601545,-0.004224631957709789,0.022489187444746494
1772003703004347100,8.98634716796875,-0.040754619714617725,0.004506809899955988,-0.013373623374011366
1772003703024310500,9.006310546875,0.012204232534766197,-0.004628098192065954,0.008091737448330968
1772003703044274700,9.026274658203125,-0.021916648253798483,-0.010542509867623447,-0.009356825480703265
1772003703064238600,9.046238525390624,0.006336801806092262,-0.006208133925125003,0.016155125585012135
1772003703084202800,9.06620263671875,-0.036603345254063606,0.004792714169248939,-0.024407606553006916
1772003703104166700,9.086166748046875,-0.01685118155777454,-0.0008596125040203332,0.004791051935125142
1772003703124130800,9.106130859375,-0.022526304584741592,-0.014982465076446532,-0.00012875921251252292
1772003703144094700,9.1260947265625,-0.008895254117250442,-0.018491203849762678,-0.001792326776869595
1772003703164058600,9.14605859375,-0.014718845704197884,0.010213058717548847,-0.007863079791609197
1772003703184022800,9.166022705078126,-0.023394904112815855,-0.0012320260129868984,0.00976867595091462
1772003703203986700,9.185986572265625,-0.023234160593152045,-0.007305719903483986,-0.016021105675492434
1772003703223950600,9.20595068359375,-0.004229015871882439,0.007650953144580125,0.011642872324958442
1772003703243914500,9.22591455078125,-0.028467969593405723,-0.017718685107305645,-0.004042644720617682
1772003703263878700,9.245878662109375,-0.013209610185027122,0.010490925810858606,-0.005763075305055826
1772003703283842600,9.265842529296876,-0.021748890471458435,-0.0012508768439292908,-0.012155662418995052
1772003703303806500,9.285806396484375,-0.012023615270853041,-0.007792261311411857,0.004644227342959493
1772003703323769600,9.30576953125,-0.0019996493846178055,-0.004547580301761627,-0.005948989798594266
1772003703343733500,9.3257333984375,-0.00722527507841587,-0.0035180180583149192,0.00023298677196726203
1772003703363697700,9.34569775390625,-0.041942368194460865,-0.012946136943250895,-0.0045070838945917785
1772003703383661800,9.365661865234374,-0.012617489510774611,-0.009897782223299146,0.002239906147588044
1772003703403625700,9.385625732421875,-0.01516074425280094,0.0017650369111448525,-0.0022684381223283707
1772003703423589600,9.405589599609375,-0.03551905714869499,-0.000048880643025040623,-0.0038662104414775964
1772003703443553800,9.4255537109375,0.017910335221886634,-0.0076535104278475045,0.0012654350922442971
1772003703463517700,9.445517578125,-0.02594400407373905,-0.004626636887341737,0.004513824162632227
1772003703483481600,9.465481689453124,-0.005151391413807869,-0.014022753198817371,-0.005439414574950933
1772003703503445500,9.485445556640625,0.0051630818516016,-0.023874285127595065,0.016328418058995157
1772003703523409700,9.50540966796875,-0.024596096596121785,-0.004431406576186419,-0.018200367677025497
1772003703543373600,9.52537353515625,-0.0043862522602081296,-0.013593275740370154,-0.006730294635705649
1772003703563337500,9.54533740234375,-0.021440262913703916,-0.0013815905515104532,-0.006582300999760628
1772003703583301600,9.565301513671875,0.003858428993821144,0.010888181500136852,0.0066598962806165216
1772003703603265800,9.585265869140626,-0.011403437545895576,-0.004082739268988371,0.0004954736330546438
1772003703623229700,9.605229736328125,-0.018895839127898214,-0.0002104278802871704,-0.0066748015888035295
1772003703643193600,9.625193603515624,-0.02219312710762024,-0.0032722266037017106,0.01766523788701743
1772003703663157800,9.64515771484375,-0.03267652719914913,-0.012708894121274352,-0.007576298739481717
1772003703683121700,9.66512158203125,-0.013818681994080543,-0.008901537727564572,0.015072737175785004
1772003703703085600,9.68508544921875,-0.0067787003546953195,-0.009734627550840378,0.0015243965556845068
1772003703723049700,9.7050498046875,-0.04719663546085357,-0.003930544381961226,0.011923461098317056
1772003703743013600,9.725013671875,0.0009942717343568801,-0.012878770795464515,-0.012998616049159318
1772003703762977500,9.7449775390625,-0.013972411251068115,0.0031388094823807475,-0.022150968466326592
1772003703782941700,9.764941650390625,-0.02100362506210804,-0.008011091693863272,-0.012153342597745358
1772003703802905600,9.784905517578125,-0.003930909708142281,-0.0209905463848263,0.0003166464674286544
1772003703822869500,9.804869384765626,-0.01217617548406124,0.005121069340780377,-0.012203520148713141
1772003703842833700,9.824833740234375,-0.0008183306455612182,0.002363660391420126,0.0020671981954947113
1772003703862797800,9.8447978515625,-0.024036124625802038,-0.0037768151249736545,-0.01331369161400944
1772003703882761700,9.86476171875,-0.02015431475639343,-0.01156717674024403,0.0009606251930817961
1772003703902725600,9.8847255859375,-0.004748655831813812,-0.01666194259598851,-0.0034924269593320785
1772003703922689800,9.904689697265624,-0.030791444104909894,-0.010581672834232449,-0.010741813565697521
1772003703942653700,9.92465380859375,-0.008641571617126465,-0.002758285732194781,0.00548482461925596
1772003703962617600,9.94461767578125,-0.03212941471040249,0.005440656683966517,0.004147347204107791
1772003703982581500,9.96458154296875,-0.03302373320162296,-0.007208616204559802,-0.024374855060875413
1772003704002545700,9.984545654296875,0.007519874110817909,-0.009977058004587888,-0.003462050087377429
1772003704022510300,10.00451025390625,-0.033033085551857945,0.0024842910964041945,-0.0249678342516534
1772003704042473200,10.02447314453125,-0.0007119476616382598,-0.007986687904968858,-0.0022171645928174256
1772003704062437400,10.044437255859375,-0.024058920979499816,-0.015849237973615527,0.0032591479264199733
1772003704082401300,10.0644013671875,-0.013281506377458572,-0.0029245091445744037,-0.016921123255137352
1772003704102365200,10.084365234375,-0.016428572231531144,-0.013894815970212221,-0.01639810402803123
1772003704122329600,10.10432958984375,0.006910217779874802,-0.006777750506624579,0.021210765006765723
1772003704142293500,10.12429345703125,-0.03843874398767948,-0.006713891490176319,-0.001144329463224858
1772003704162257400,10.14425732421875,-0.017936054185032843,-0.0027239450711756944,0.006561769668385386
1772003704182221300,10.16422119140625,-0.01821720921397209,-0.008003639039769769,-0.02784985596137121
1772003704202185500,10.184185546875,-0.03527940317392349,0.00015570201836526392,-0.001481671658810228
1772003704222149400,10.2041494140625,0.0027227029621601103,-0.0014276947155594825,0.035223435202986
1772003704242113300,10.22411328125,-0.022253917384147642,0.0029233401007950303,0.003721760469488799
1772003704262077400,10.244077392578125,-0.0005628945797681808,-0.0026139818906784056,-0.002870660065487027
1772003704282041300,10.264041259765625,-0.029151860204339027,-0.005944952944293618,-0.01263191989492625
1772003704302005200,10.284005126953126,-0.011029928058385848,-0.000026230419799685477,-0.015267821356467901
1772003704321969200,10.30396923828125,-0.035711364850401876,-0.01793400835841894,0.011165317941084503
1772003704341933300,10.323933349609375,-0.009654548051953316,-0.00611468348801136,-0.010267674981616437
1772003704361896200,10.343896240234375,-0.03388941012024879,0.01639269720055163,0.012029643152840434
1772003704381860400,10.3638603515625,-0.00364858563542366,-0.0003743132051080465,0.013765052110701798
1772003704401824500,10.383824462890624,-0.023699440017342567,-0.003963496803492308,0.0080463822029531
1772003704421788400,10.403788330078125,-0.010227379503846168,-0.022172230450063942,0.0038567484933882948
1772003704441752300,10.42375244140625,-0.0054500820994377135,0.0009412263728678226,-0.015871906463149933
1772003704461716500,10.443716552734376,-0.01025426751077175,-0.00821501676812768,-0.0019797756403684614
1772003704481680400,10.463680419921875,-0.015936404800415038,-0.0026386779405176636,0.0013071553421206772
1772003704501644300,10.483644287109374,-0.01282324121594429,-0.005252805961668491,-0.005912402381561696
1772003704521608400,10.5036083984375,-0.0035398645639419554,0.012738631672412156,-0.01100543293794617
1772003704541572400,10.523572265625,-0.001433247673511505,-0.006188552441820502,-0.0006682546503841877
1772003704561536300,10.543536376953124,-0.027317630514502523,0.001675605062022805,0.011648169554583728
1772003704581500400,10.56350048828125,-0.0143172791659832,-0.0009168956492096185,0.00026650544907897707
1772003704601464300,10.58346435546875,-0.02433013913631439,-0.006435659070685506,-0.004914970575738698
1772003704621428200,10.60342822265625,-0.212989255207777,0.026691826766356824,-0.06635072366613895
1772003704641392400,10.623392333984375,0.14532383221387862,-0.015847630538418887,0.12381804804960266
1772003704661355300,10.643355224609374,-0.09217968652546406,-0.014312164599448441,-0.05801630003573373
1772003704681319400,10.6633193359375,0.050212183889746666,-0.013246361998841166,0.034721915421634914
1772003704701283300,10.683283447265625,0.017033552387356758,0.0057262686923146245,0.06684820659318938
1772003704721247500,10.70324755859375,0.12390928826332091,-0.027672581432014703,0.02628236918263137
1772003704741211400,10.72321142578125,-0.21458090831339358,-0.004788257189840078,-0.03599915054952726
