time,seconds_elapsed,z,y,x
1771956726034731300,0.076731201171875,-0.2196644951879978,-0.03579009264241904,-0.019909390951460226
1771956726054694100,0.096694091796875,0.08273205922245978,-0.0439381816541776,0.06317859643604606
1771956726074657300,0.1166572265625,0.03390753029882908,-0.0012075126262381672,0.0068489343130029735
1771956726094620000,0.136619873046875,-0.013462123641371726,0.015445059353206305,-0.020935217734705656
1771956726114583000,0.1565830078125,0.11832359708547592,-0.0064546925647184245,-0.0007997629424091428
1771956726134547000,0.176546875,-0.025118074643611907,0.015581673078611493,-0.03871973461983725
1771956726154510000,0.196510009765625,-0.20584815128147602,-0.07444836113229393,0.0640030006293673
1771956726174473000,0.216472900390625,0.033365678507089616,-0.1815840631186962,0.1516861155210994
1771956726194436000,0.23643603515625,-0.11921440844535827,0.03222279208227992,-0.05526983260549605
1771956726214399000,0.25639892578125,-0.02371756019592285,-0.01894110304173082,0.03202390850931406
1771956726234363100,0.276363037109375,0.102390699416399,-0.011848331769183278,-0.0246810805989895
1771956726254326000,0.296325927734375,0.03889057940840721,0.09044617726374417,0.016391930015571415
1771956726274289200,0.3162890625,-0.03580781096220016,-0.007477532806433737,-0.026784354754863304
1771956726294252000,0.336251953125,0.02438333062827587,-0.0348109819445759,0.047215011367760594
1771956726314215200,0.356215087890625,-0.044323710373044015,0.026847857578285037,0.02602551747788675
1771956726334178000,0.376177978515625,-0.010354805275797843,-0.016071246693842113,-0.01754440625263378
1771956726354142200,0.39614208984375,0.026489362996816635,0.016162541706487534,0.010481847455259412
1771956726374105000,0.41610498046875,0.03204641260206699,0.0016666911032050848,-0.010900292063038795
1771956726394068000,0.43606787109375,0.012199556359648703,-0.00933938115555793,-0.00536334453090094
1771956726414031000,0.456031005859375,-0.1099497364938259,-0.042606238930672405,0.025452850422775373
1771956726433994000,0.475993896484375,-0.035088849037885665,-0.08003175075519829,0.06555552730099298
1771956726453958100,0.495958251953125,-0.10506722514927387,-0.007270867785811424,-0.04024963846770115
1771956726473921000,0.515921142578125,0.022133505874872207,-0.002909384640678763,0.02504361203475855
1771956726493884200,0.53588427734375,0.014924012887477875,-0.0212457267222926,-0.021170369064295664
1771956726513847300,0.555847412109375,-0.0032552024036645887,0.023296156446076927,-0.006126794050913304
1771956726533810200,0.57581005859375,0.0004395604610443115,0.027762890063971278,-0.021046587421000004
1771956726553774300,0.5957744140625,-0.007905658558011055,-0.003517871927842498,-0.024863698023743927
1771956726573737200,0.6157373046875,-0.027387773141264914,0.017722484499588607,-0.002160292439581826
1771956726593700000,0.6357001953125,-0.0018915128350257872,-0.017992825873568652,-0.004270014602551236
1771956726613663200,0.655663330078125,-0.017512860336899756,-0.014334047637693583,0.011460638492694124
1771956726633626000,0.675626220703125,0.00390869787633419,0.01983903826214373,0.022626769284531473
1771956726653590300,0.69559033203125,0.01578326006531715,-0.016537402900867162,0.009435662870574742
1771956726673553200,0.71555322265625,-0.04251753773391247,0.00443513290323317,0.02027714655161835
1771956726693516300,0.735516357421875,-0.05030570739209651,-0.047309776979126035,0.026995358023885637
1771956726713479200,0.755479248046875,-0.05820902786254883,-0.04889748456198722,0.035222220493433994
1771956726733442300,0.7754423828125,-0.04606207847297191,-0.008994768968969584,0.001296076825680211
1771956726753406200,0.79540625,0.019939795222878455,-0.009531761922501027,-0.0034996969503350555
1771956726773369300,0.815369384765625,0.0036281273692846294,0.0029309754179790612,0.005268925979407504
1771956726793332200,0.835332275390625,-0.0017740239351987839,-0.005434373073652386,0.017193976246612147
1771956726813295400,0.85529541015625,0.0007698153287172317,-0.004745294830948114,0.011166897976817563
1771956726833258200,0.87525830078125,-0.02765373060107231,0.016027224889025093,0.007757692321529611
1771956726853222100,0.89522216796875,-0.009391513201594353,-0.01423047766536474,0.0014958919804077594
1771956726873185300,0.915185302734375,0.0024468086302280425,-0.007768588174879551,-0.007992186063993722
1771956726893148200,0.935148193359375,-0.002957096239924431,0.008950491435825825,-0.001111514039011672
1771956726913111300,0.955111328125,0.012695230922102927,0.0004658639460802078,-0.0018007201458793132
1771956726933074200,0.97507421875,-0.023109072908759114,-0.018116854112036524,0.0061110576256643975
1771956726953038300,0.995038330078125,-0.04111410067677498,-0.019017310083098708,0.011061364376265556
1771956726973001200,1.015001220703125,-0.04363806619644165,-0.023322058072313665,0.023403544076997785
1771956726992964400,1.03496435546875,-0.034631752920150756,-0.02409559972807765,0.026024677227670327
1771956727012927200,1.05492724609375,0.014603110370039939,0.006688610918447375,0.02221522934157401
1771956727032890400,1.074890380859375,0.008478490009903908,-0.0106420977845788,0.006429731653397903
1771956727052853200,1.094853271484375,-0.0014145429730415343,-0.009803381938114761,-0.0008766458372119814
1771956727072817400,1.1148173828125,-0.00022679449319839477,-0.0004349573511630296,0.002535080568725243
1771956727092780300,1.1347802734375,-0.01907645639181137,0.011251863713376224,0.008269121575541794
1771956727112743200,1.1547431640625,-0.015776245802640913,0.0027068112732842563,0.02110959705407731
1771956727132706000,1.1747060546875,-0.024608371555805204,0.0006694602267816662,0.009851120936824009
1771956727152669200,1.194669189453125,-0.01159457620382309,-0.008059424347616731,0.003127667033858597
1771956727172633000,1.214633056640625,-0.0026110592812299727,-0.016707389172911643,-0.006895860460959374
1771956727192596200,1.23459619140625,-0.022058687072992324,-0.010749430616572499,-0.002153789633559063
1771956727212559000,1.25455908203125,-0.02626958276629448,-0.010604651851020754,0.009604818025557323
1771956727232522200,1.274522216796875,-0.020289339312911034,-0.0064680269703269,0.01761738015729934
1771956727252485400,1.2944853515625,-0.04991992294490337,-0.011821736023202538,0.021391409670142456
1771956727272449300,1.31444921875,-0.02385609188377857,-0.003158719759248197,0.002294202751247212
1771956727292412200,1.334412109375,-0.0008013795107603073,-0.005392689356394112,0.006188287580339237
1771956727312375300,1.354375244140625,0.0006833060890436172,0.01023245753776282,0.0057792044559493655
1771956727332338400,1.37433837890625,-0.018620529317855832,-0.005492642599530518,-0.012359898020513354
1771956727352301300,1.39430126953125,-0.002759527841210365,-0.007574746103212237,-0.0014810049385298042
1771956727372265200,1.41426513671875,-0.02879179472029209,0.00476315928120166,0.005069384819315746
1771956727392228400,1.434228271484375,-0.010377017107605933,-0.013255312490276991,-0.02448640741026029
1771956727412191200,1.454191162109375,-0.017718612042069433,-0.004770831131003797,-0.003362617434049025
1771956727432154000,1.474154052734375,-0.019976035580039023,-0.011410305678099393,0.0070576177607756104
1771956727452117200,1.4941171875,-0.012951836031675337,-0.0021219605900347233,-0.0035413898007478563
1771956727472081200,1.5140810546875,0.002590601015090942,0.0005013736508786679,0.00903471738686785
1771956727492044300,1.534044189453125,-0.03736848440766334,0.002206643198803067,-0.002568434849055484
1771956727512008200,1.55400830078125,-0.00490121604502201,-0.005585983438789844,0.006385801180126145
1771956727531971000,1.57397119140625,-0.014181670087575912,-0.003189261027984321,0.001124300455348566
1771956727551934000,1.593933837890625,0.008421206864714622,-0.015164689775556324,0.008366006078757345
1771956727571897900,1.61389794921875,-0.0035492169141769407,-0.010554382968507706,-0.005967301773419603
1771956727591861000,1.633861083984375,-0.010438976427912711,0.008794424091279507,0.017647145107900723
1771956727611824000,1.65382421875,-0.009539981761574745,0.013269267950393258,0.016705836536642163
1771956727631787000,1.673787109375,-0.013130699729919433,-0.0002570800336077809,0.0013935001850128173
1771956727651750100,1.693750244140625,-0.021824293795228003,0.0025259748136624693,-0.008208258233778179
1771956727671714000,1.713714111328125,-0.023619360518455503,-0.007984861274063587,0.00726078478321433
1771956727691677200,1.73367724609375,-0.010605565166473388,-0.009613996845856308,0.01613435679161921
1771956727711640000,1.75364013671875,-0.008215455159544945,-0.010913169810920952,-0.00036951829898171124
1771956727731603200,1.773603271484375,-0.010900748720765113,0.00873962516412139,0.006983456546021625
1771956727751566000,1.793566162109375,-0.014797756159305571,-0.006105477268248796,-0.0024757241974584757
1771956727771530200,1.8135302734375,-0.02631166834235191,0.009196757814474403,-0.0034164117142092437
1771956727791493000,1.8334931640625,-0.004316694155335426,0.0021992270773276684,-0.0072631685365457084
1771956727811456000,1.8534560546875,-0.004761515313386917,-0.0009031959174200892,0.008107738735061138
1771956727831419000,1.8734189453125,-0.0110451256275177,-0.011620806623622774,-0.014931355943717061
1771956727851382000,1.893382080078125,-0.004607786056399345,-0.0035755569318309424,0.016006282565696164
1771956727871346000,1.913345947265625,0.004515431597828865,-0.011531374774500726,0.015874655542662368
1771956727891309000,1.93330908203125,-0.005361234772205352,0.0035427871733903884,0.0021664116531144827
1771956727911272000,1.95327197265625,0.0009106851041316985,0.00462287402767688,-0.00150946384803392
1771956727931235000,1.973235107421875,0.0017979893326759337,-0.008367686579190193,0.006082936642877757
1771956727951198200,1.9931982421875,-0.010324994659423827,-0.006390066363289952,0.0011506404730025678
1771956727971162000,2.013162109375,-0.0076291797041893004,-0.0016403876181691885,0.013507972077094017
1771956727991125000,2.033125,-0.01660509784221649,-0.012480894051678479,0.0036047830263152714
1771956728011088100,2.053088134765625,-0.02050385884642601,0.020789251659065484,0.006406250313110649
1771956728031051300,2.07305126953125,-0.00014203881919384003,0.0076570540918037295,0.004308693511970341
1771956728051014100,2.09301416015625,-0.01226677637696266,0.011411986178532242,0.006588045753957703
1771956728070978000,2.11297802734375,-0.024988310784101485,-0.011480521370097994,0.0010892474082764237
1771956728090941200,2.132941162109375,-0.0032879356294870377,-0.009902020006999373,-0.002578097726544365
1771956728110904000,2.152904052734375,-0.008672551277279854,0.001986022718064487,0.0013835724460426718
1771956728130867000,2.172866943359375,-0.012117138773202895,0.01129241491947323,-0.001188689194759354
1771956728150830000,2.192830078125,-0.01376432145833969,0.009463007535226643,-0.0030418245144654063
1771956728170794000,2.2127939453125,-0.01571720909178257,-0.003063917615264654,0.002115777444420382
1771956728190757000,2.232757080078125,-0.020209844335913656,-0.0023824381571263074,0.00636838425444439
1771956728210720000,2.252719970703125,-0.0015115736067295073,-0.017781959601864218,0.0030258597603533416
1771956728230683100,2.27268310546875,-0.01571720909178257,-0.010633841412886976,0.006082671781396493
1771956728250646000,2.29264599609375,-0.02963350624144077,-0.0031330007961019872,-0.009211188198626041
1771956728270610200,2.312610107421875,0.0008954875349998473,0.00041091888844966884,-0.00019962335848249495
1771956728290573000,2.332572998046875,-0.008082184168696403,0.003750219378992915,0.01850636488627642
1771956728310536200,2.3525361328125,-0.0348649771541357,0.005790346904471516,-0.006084553211228922
1771956728330499000,2.3724990234375,-0.023036007672548292,0.003694324473291635,0.00045333325807005165
1771956728350462200,2.392462158203125,-0.012106617379188537,-0.00896167041696608,0.010130641131103037
1771956728370426000,2.412426025390625,-0.0026817864298820495,-0.004727613043785095,-0.008150554963480681
1771956728390389000,2.432388916015625,-0.015694412738084793,-0.003627214053831994,0.0003073489161208272
1771956728410351900,2.452351806640625,-0.007615151178836822,0.00695624887868762,0.0025182481649331746
1771956728430315000,2.47231494140625,-0.010164251139760017,0.0015995441511273383,-0.010275072836782783
1771956728450278100,2.492278076171875,-0.015406243446469306,0.015436054062843322,-0.004255821680417284
1771956728470242000,2.512241943359375,-0.007931377521157265,-0.00982489965017885,0.010931700981454923
1771956728490205000,2.532204833984375,-0.010920622465014457,-0.016503975555300712,0.005255573307489976
1771956728510167300,2.552167236328125,0.0013566753059625625,-0.005348046497069299,0.00871310248337686
1771956728530130400,2.57213037109375,-0.01569967343509197,0.0034535014547407627,0.0033479769873432813
1771956728550093300,2.59209326171875,-0.013452186769247055,-0.0033023294810205694,-0.007569768533995375
1771956728570057500,2.612057373046875,-0.009413140511512756,0.0028847251234576103,0.005409457828104496
1771956728590020400,2.632020263671875,-0.017490648505091667,-0.010878390758484601,0.00046234768158756194
1771956728609983500,2.6519833984375,0.005104629662632942,-0.015391739997081457,-0.015789342746231703
1771956728629946000,2.671946044921875,-0.011207038190960883,-0.008808452616631985,0.005404114932706579
1771956728649909200,2.6919091796875,-0.005074234524369239,-0.000271291222050786,0.005412946693133563
1771956728669873200,2.711873046875,0.004053659304976463,0.003719239718839526,-0.011296826233109458
1771956728689836300,2.731836181640625,-0.0064256491333246225,0.014315233339369297,-0.01605289818639867
1771956728709799200,2.751799072265625,-0.01869301003217697,-0.0016933233818039297,-0.0019110212530940769
1771956728729762300,2.77176220703125,-0.024830489873886107,-0.008611286076717078,-0.005082363031897693
1771956728749725400,2.791725341796875,-0.00732639736533165,-0.01350055595561862,0.013309563428163527
1771956728769689300,2.811689453125,-0.0016436755537986754,-0.003077763477526605,-0.011230455599166453
1771956728789652200,2.83165234375,-0.010015782579779624,-0.006868241801671684,0.00036441286560147997
1771956728809615400,2.851615478515625,-0.0013385551273822783,0.006864588539861142,-0.0024930863242130724
1771956728829578500,2.87157861328125,-0.023776596906781196,0.008094532193616033,-0.0034852665661834177
1771956728849541400,2.891541259765625,-0.007912672820687293,0.018283662046305833,0.0008991407968103885
1771956728869505300,2.91150537109375,-0.01523614757657051,-0.011540690592117608,0.011354346840316429
1771956728889468400,2.931468505859375,-0.007459083834290504,-0.009462130752392113,-0.003908149887062609
1771956728909431300,2.951431396484375,-0.012834347131848334,-0.008854301052354276,-0.004958910182164981
1771956728929394200,2.971394287109375,-0.01447276198863983,-0.004240852440148592,0.004019565239129588
1771956728949357300,2.991357421875,-0.020903087297081947,0.005713116949796676,-0.009709511375892908
1771956728969321200,3.0113212890625,-0.0007043488770723343,-0.0002297536352649331,-0.0014373758593574165
1771956728989284400,3.031284423828125,-0.02674129193127155,-0.007708930409513414,-0.007557365710148587
1771956729009247200,3.051247314453125,-0.02943359975516796,-0.009644465049356222,-0.0018159999134019016
1771956729029210400,3.07121044921875,-0.008939677780866623,-0.002294431080110371,0.01604480621148832
1771956729049173200,3.09117333984375,-0.021660043144226072,-0.0023809403197839855,0.00577491187332198
1771956729069137400,3.111137451171875,-0.005198737686872482,0.003221227068826556,0.00843455953663215
1771956729089100300,3.131100341796875,-0.012536240968108176,0.009532711770571767,0.009318055239738896
1771956729109063400,3.1510634765625,-0.018972411495447157,0.009305332755483686,0.005934303686115891
1771956729129026300,3.1710263671875,-0.014632336464524269,-0.004727722641639411,0.0012044347531627864
1771956729148989400,3.190989501953125,-0.021066753426194188,0.005508278560079634,0.0017846275276038794
1771956729168953300,3.210953369140625,-0.005645312410593032,-0.002782068466581404,-0.0037397253844421354
1771956729188916500,3.23091650390625,-0.02001812115609646,0.0029396701810881494,0.006698995315143838
1771956729208879400,3.25087939453125,-0.016271920365095137,0.0016839710315689443,-0.008218743095174431
1771956729228842200,3.27084228515625,-0.021355507239699364,-0.0023441519733518362,-0.006680473277764394
1771956729248805400,3.290805419921875,-0.012827917391061781,0.0076491995789110655,-0.007534934682631864
1771956729268769300,3.310769287109375,-0.020167174237966535,-0.0021119141200557348,-0.0014442257252521812
1771956729288732400,3.330732421875,-0.02016834328174591,-0.0066665452171117065,-0.015258112813206388
1771956729308695300,3.3506953125,-0.011497545570135116,-0.006837006413191556,-0.003862940772157162
1771956729328658400,3.370658447265625,-0.0011748889982700348,-0.0012910627238452434,-0.012862148454226553
1771956729348621300,3.390621337890625,-0.021082535517215728,0.005351553628407418,-0.0045749158332590014
1771956729368585500,3.41058544921875,-0.015245499926805496,0.008865078174695371,0.001965737981861457
1771956729388548400,3.43054833984375,-0.01853869625329971,-0.020890337413363158,0.0060380928541533645
1771956729408511500,3.450511474609375,-0.009420739296078682,-0.0028070202447474,-0.003389121848484501
1771956729428474400,3.470474365234375,-0.008372691547870636,-0.011997786709852515,0.008989636136125773
1771956729448438500,3.4904384765625,-0.014063012143969536,0.0009526610823348164,-0.0028473339888267215
1771956729468401400,3.5104013671875,-0.0010474632263183592,0.005313888499140739,0.006343624272523447
1771956729488364300,3.5303642578125,-0.021996143230795857,0.010686302252486348,0.008592645308328793
1771956729508327000,3.550326904296875,-0.03755903854370117,-0.0063001230575144285,-0.01099646418020129
1771956729528290000,3.5702900390625,0.0010404489636421203,-0.002632905786857009,0.004003655283944681
1771956729548254000,3.59025390625,-0.012276128727197647,-0.011190488914959131,0.006541064807074144
1771956729568217000,3.610217041015625,-0.004649287110567093,-0.009756839382648468,0.014583236625790596
1771956729588180000,3.630179931640625,-0.00794248343706131,0.010019435841590166,-0.005756335037015378
1771956729608143000,3.65014306640625,-0.013470891469717024,0.005051766964234411,0.005175822602165862
1771956729628106200,3.670106201171875,-0.018712299254536626,0.007889365010336042,0.00196052295062691
1771956729648070100,3.690070068359375,-0.017063363003730774,-0.005700549729168415,-0.010877815369749442
1771956729668032800,3.71003271484375,-0.013631634989380836,-0.00767933898884803,-0.0007764277325943112
1771956729687996000,3.729995849609375,0.002384264788031578,-0.010949592831172049,0.006830028683133423
1771956729707959000,3.749958984375,-0.023793548041582107,-0.006465652350150048,0.010531805810518562
1771956729727922000,3.769921875,-0.0058352820247411724,-0.0027928455889225006,0.005024394900118932
1771956729747885800,3.7898857421875,-0.01615676955282688,0.00930156989581883,-0.0008789565253071487
1771956729767849000,3.809848876953125,-0.014355857610702514,-0.010421659966930747,-0.004976939029200002
1771956729787812000,3.82981201171875,-0.006572948649525642,-0.008242525829561054,0.0019187296355143188
1771956729807775000,3.84977490234375,-0.017047580912709234,0.005218684496358037,-0.008849834939790888
1771956729827738000,3.869738037109375,-0.002375496959686279,0.0038920390024781227,-0.016943125024391336
1771956729847702000,3.889701904296875,-0.00492518144249916,0.00024568185675889254,0.01425587696810253
1771956729867665200,3.9096650390625,-0.004034954604506492,0.013451090790703892,-0.003318202903587371
1771956729887628000,3.9296279296875,-0.014513093999028205,0.014728490315377712,0.023241750244563444
1771956729907591200,3.949591064453125,-0.020051438903808592,-0.00003978402111679315,-0.0029409396895673126
1771956729927553800,3.9695537109375,-0.015866846695542336,-0.0030235125396400686,-0.0038349750529974697
1771956729947518200,3.989518310546875,0.00014905308187007903,-0.008736300695873797,-0.0013375413472298532
1771956729967480800,4.009480712890625,-0.007933131086826323,-0.010687069437466562,0.008973470452614127
1771956729987444000,4.02944384765625,-0.014518354696035385,0.007594729445315897,0.009023821533517912
1771956730007406800,4.04940673828125,-0.007637363010644912,0.010104374178685246,0.0013942217042203992
1771956730027370000,4.069369873046875,-0.008984101444482803,0.00168002550881356,0.001812282719509676
1771956730047334000,4.089333984375,-0.01452595348060131,-0.008217281790450216,0.0033757874428760257
1771956730067297000,4.109297119140625,-0.014673837518692015,0.00007584171518683434,-0.00999851178457029
1771956730087260000,4.129260009765625,-0.011072598156332969,0.0019636282231658697,0.0011417539136484266
1771956730107223000,4.14922314453125,0.0008966565787792205,-0.001850742433220148,0.01813063604221679
1771956730127187000,4.16918701171875,-0.00852934341430664,-0.00006451660357415676,-0.004519842911465093
1771956730147150000,4.189150146484375,-0.008382043898105622,0.017438443393819034,-0.0018406868300866336
1771956730167113000,4.209113037109375,-0.026492870128154752,0.002927102960459888,-0.001134237327473238
1771956730187076000,4.229076171875,-0.0178115510225296,-0.00531213493347168,0.0028841132021043448
1771956730207039200,4.249039306640625,-0.009590250644087792,-0.014459208387322724,0.014727202540589495
1771956730227003100,4.269003173828125,-0.01842471448481083,0.004096585131250322,-0.003458743885438889
1771956730246965800,4.2889658203125,-0.0004682020336389541,0.0003721577806398272,0.024490617794496936
1771956730266929000,4.308928955078125,-0.002264437800645828,0.0016003478687256574,0.005730396878160536
1771956730286892000,4.32889208984375,-0.025758126112818715,0.005967237841337919,0.0012129742526449262
1771956730306855000,4.34885498046875,-0.007647884404659271,-0.008412987025640905,0.001780499341757968
1771956730326818800,4.36881884765625,-0.021121113961935042,-0.00988850293830037,-0.001652361183753237
1771956730346782000,4.388781982421875,-0.006306991189718246,-0.014120916343666612,-0.01812853541667573
1771956730366745000,4.4087451171875,-0.0010778583645820617,-0.017940365033969282,0.0033049141637515275
1771956730386708000,4.4287080078125,-0.001974514943361282,-0.007616795146651566,-0.004119646346429363
1771956730406671000,4.448671142578125,-0.008110241219401359,0.010666647703945636,0.003046729018446058
1771956730426635000,4.468635009765625,-0.019179916766285894,-0.001896298607997596,0.007909996806411072
1771956730446598100,4.48859814453125,-0.01454465818107128,0.013808124067448078,0.000050378480367362496
1771956730466561000,4.50856103515625,-0.0013753800064325332,0.011061163446865975,0.009670467140292748
1771956730486524200,4.528524169921875,-0.0148357500821352,-0.013855981797166168,0.008702562823053449
1771956730506487600,4.548487548828125,-0.009745733466744422,-0.007608027318306267,-0.0017127313351724296
1771956730526451700,4.56845166015625,-0.021125790137052534,0.013068265485577284,-0.0014591858323663473
1771956730546414600,4.58841455078125,-0.033984687188267707,0.01616546431593597,-0.0064966776760760694
1771956730566377700,4.608377685546875,-0.007951835787296295,0.0037861309425905347,-0.007954867994599045
1771956730586340600,4.628340576171875,-0.01064472813308239,-0.007011668860353529,-0.0050785910390783095
1771956730606303700,4.6483037109375,-0.011547229930758476,-0.011745492449216544,0.005173995971260592
1771956730626267600,4.668267578125,-0.014241291320323942,0.002662424142286181,0.006438289419189095
1771956730646230800,4.688230712890625,-0.0099035543769598,0.010171922989562153,0.0015529467967338858
1771956730666193700,4.708193603515625,-0.017228782698512076,0.0038210926581174133,0.0012233312498778103
1771956730686156800,4.72815673828125,-0.01901975776851177,-0.000533083963394165,-0.011283482694346456
1771956730706120700,4.74812060546875,-0.015579261925816535,-0.008482216336950659,-0.0021956560139078647
1771956730726083800,4.768083740234375,-0.02620119370520115,0.001883146865479648,-0.006193749206745996
1771956730746046700,4.788046630859375,-0.023806407523155212,-0.023480061645619568,0.0011073584537021814
1771956730766009900,4.808009765625,0.002227612921595573,-0.0016514935340732335,-0.0037569413807243108
1771956730785972500,4.827972412109375,-0.005697334858775139,0.0026961802814155817,0.011724376595951616
1771956730805937000,4.84793701171875,-0.008691255977749824,-0.0077425769507884976,0.01110520351799205
1771956730825899500,4.8678994140625,-0.01348024381995201,-0.001887311583943665,-0.014342623669793829
1771956730845862700,4.887862548828125,-0.017814473631978033,0.011482603729330002,-0.00579644785169512
1771956730865825500,4.907825439453125,-0.005541267514228821,-0.00518036177996546,0.00037135406304150817
1771956730885788700,4.92778857421875,-0.016917232531309126,-0.008053396465629338,0.021310572119429706
1771956730905752600,4.947752685546875,-0.00374444722533226,-0.009995616574585437,0.010078609549766407
1771956730925715700,4.9677158203125,-0.015256021320819853,0.01604713516589254,-0.006935589683149009
1771956730945678600,4.9876787109375,-0.0107663086861372,-0.00445193790756166,0.01231152883414179
1771956730965641700,5.007641845703125,-0.04593114556968212,0.00889280643183738,0.016129278757702557
1771956730985604900,5.02760498046875,-0.03320785759687424,0.005319003065675496,-0.004632673902483657
1771956731005568800,5.04756884765625,-0.010609656819701194,-0.006234181681834161,0.001706584722176194
1771956731025531600,5.06753173828125,-0.0031190088033676146,-0.010320464614778757,0.002031158767733723
1771956731045494800,5.087494873046875,-0.0016255553752183914,-0.00523402819596231,-0.0011447587214875965
1771956731065458000,5.1074580078125,-0.02198036113977432,0.0026689269483089447,0.015634106518747283
1771956731085420500,5.127420654296875,-0.012851298266649245,0.011037453777715563,0.004181669598817825
1771956731105384700,5.147384765625,-0.00805529616177082,-0.002060512726381421,-0.004199561448534951
1771956731125347600,5.16734765625,-0.004460486540198326,0.004888868020102382,0.006392395317694172
1771956731145310700,5.187310791015625,-0.02166413479745388,0.0037730887979269025,-0.008454880805453285
1771956731165273600,5.207273681640625,-0.013725158491730689,-0.00552303773779422,0.002334114636527374
1771956731185236700,5.22723681640625,-0.008946107521653176,-0.007012034186534583,0.025885268756980075
1771956731205200600,5.24720068359375,-0.026143910560011863,0.011826046872138977,-0.004358724932465702
1771956731225163800,5.267163818359375,-0.015670447340607643,0.011582191646285354,0.0005168452146463096
1771956731245126700,5.287126708984375,-0.019711831685900686,0.005397328998893499,-0.009231765195773914
1771956731265089800,5.30708984375,-0.027492402559518812,-0.0023092998556792734,-0.003843103560525924
1771956731285052700,5.327052734375,-0.007286649876832961,-0.013247786770947277,0.01582868837593123
1771956731305016800,5.347016845703125,-0.020001170021295547,-0.003164674575999379,0.0020890629674308
1771956731324979700,5.366979736328125,-0.014314356556534766,0.012216361363977192,0.014537607385776936
1771956731344942800,5.38694287109375,-0.011023498317599295,0.004772584696672856,0.004074135837424546
1771956731364905500,5.406905517578125,-0.019851532417535782,0.005349580867029726,0.01231463410668075
1771956731384868600,5.42686865234375,0.0009410802423954009,-0.0009600041385740041,-0.014082821956137194
1771956731404832500,5.44683251953125,-0.01896656627655029,-0.0004610416404902935,0.009327544587291776
1771956731424795600,5.466795654296875,-0.016719664132595062,-0.018626009210571646,0.010338429529732093
1771956731444758500,5.486758544921875,-0.010135609567165374,-0.007023615026473999,0.02657299529281445
1771956731464721700,5.5067216796875,-0.006695113724470138,0.009924925958551467,-0.00783510493929498
1771956731484684800,5.526684814453125,-0.037220600369572636,0.008089234963990747,0.005247727927751839
1771956731504648400,5.5466484375,-0.032278467792272565,-0.0047635611400008195,-0.00581244913842529
1771956731524611600,5.566611572265625,-0.00908405468761921,-0.007409983995556831,0.011637712092651053
1771956731544574200,5.58657421875,-0.0005582184046506881,-0.010487199483811854,-0.004438859230279923
1771956731564537300,5.606537353515625,-0.009823474878072738,-0.007625891768559813,-0.011057912043854593
1771956731584501200,5.626501220703125,-0.017606968361139296,0.009257840351946652,0.006214791994774714
1771956731604464400,5.64646435546875,-0.015813655203580856,-0.008215857018344104,0.01933359122434631
1771956731624427300,5.66642724609375,-0.008627543091773986,0.013715148554369807,0.013834363620402291
1771956731644390400,5.686390380859375,-0.006828969237208366,-0.00865848621930927,0.011141900532878935
1771956731664353300,5.706353271484375,-0.007428104174137115,-0.013795483781583606,-0.009478095506504178
1771956731684317400,5.7263173828125,-0.008324760752916336,-0.007532952788099646,0.006026073622796684
1771956731704280300,5.7462802734375,-0.013111995029449462,0.00046060324907302855,0.0049679794046096504
1771956731724243500,5.766243408203125,-0.008326514318585396,-0.008078932765685021,-0.003852711639087647
1771956731744206300,5.786206298828125,-0.021346739411354065,-0.003257467425987124,-0.003355794967617839
1771956731764169500,5.80616943359375,-0.00578267505466938,0.014028781080804765,-0.0187151670650579
1771956731784133400,5.82613330078125,-0.0162561382740736,-0.02548285283539444,0.009515705836843698
1771956731804096500,5.846096435546875,-0.015353636476397514,-0.010958981714025139,-0.0004942497903481126
1771956731824059400,5.866059326171875,-0.011763503029942512,-0.009294592165760696,0.002388383840722963
1771956731844022300,5.886022216796875,-0.003385550785064697,-0.005185841672681272,0.003961469243187457
1771956731863985400,5.9059853515625,-0.007873509854078293,0.008701923502236605,0.010402745203906669
1771956731883949300,5.92594921875,-0.007116554006934166,-0.00016918255444616078,0.010230338645912706
1771956731903912200,5.945912109375,-0.022075053685903546,0.0005999751871451735,0.004623202821239829
1771956731923875300,5.965875244140625,-0.023265140253305432,-0.012629399144276975,0.005801872945483773
1771956731943838500,5.98583837890625,-0.020278233397006986,-0.015219598300568758,-0.002673758387053385
1771956731963801300,6.00580126953125,-0.010247253248095512,-0.018971790440939367,0.003750137180602178
1771956731983765200,6.02576513671875,-0.00815115775167942,0.0030082419052720067,0.003989197500329464
1771956732003728400,6.045728271484375,-0.024456395864486693,0.012981135191395878,0.0015132267076987773
1771956732023691500,6.06569140625,-0.018480244064331054,-0.004288089115358889,0.0024872685047797856
1771956732043654400,6.085654296875,-0.02372106732726097,-0.012114764153026043,0.006855281855398789
1771956732063617500,6.105617431640625,-0.01772971795797348,-0.014205635485053061,-0.022123221942875533
1771956732083581400,6.12558154296875,-0.016381225958466528,0.0061926806276664135,0.005988582023466005
1771956732103544600,6.145544677734375,-0.020269465568661688,-0.010643303360976278,0.002267031616531312
1771956732123507200,6.165507080078125,-0.008293781092762947,-0.002067892315238714,0.002176357658393681
1771956732143470300,6.18547021484375,-0.013387304839491843,0.0076464230999350544,0.010648536658519878
1771956732163433200,6.20543310546875,-0.015484569379687308,0.003818243113905191,0.00018839871156960724
1771956732183397400,6.2253974609375,-0.0264081144541502,-0.01701028110962361,-0.02590090471752919
1771956732203360300,6.2453603515625,-0.006956979531049728,-0.004667809147946536,-0.010266880397172645
1771956732223323400,6.265323486328125,-0.010848726272583008,-0.018153021403960884,0.011118565323064104
1771956732243286300,6.285286376953125,-0.019233108258247374,-0.0053434068545699116,0.023216487939143552
1771956732263249400,6.30524951171875,-0.012646131083369254,0.010865275548584758,-0.008076311550335958
1771956732283213300,6.32521337890625,-0.018472645279765127,0.005320099044218659,-0.009737376630352809
1771956732303176400,6.345176513671875,-0.0244604875177145,-0.0005591682527214288,0.0006181044988799839
1771956732323139300,6.365139404296875,-0.009495558097958564,-0.011388897563889623,-0.002633526841364801
1771956732343102500,6.3851025390625,-0.011297639083862304,-0.01948551211673766,0.0008079279825557023
1771956732363065600,6.405065673828125,0.004410802179574966,-0.014186200132220982,0.020525531822117044
1771956732383029500,6.425029541015625,-0.018483166673779486,-0.00539740206412971,0.024645780956745147
1771956732402992400,6.444992431640625,-0.018638064974546432,-0.008245192710682749,0.0035918596126604824
1771956732422955300,6.464955322265625,-0.01924246060848236,0.009951412106677889,0.004849102265294641
1771956732442918400,6.48491845703125,-0.01386193661391735,0.007739508210867643,-0.0030926322530955073
1771956732462881300,6.50488134765625,-0.009082301121950149,-0.021868059871718287,0.006511628650035709
1771956732482845200,6.52484521484375,-0.0129752169072628,-0.01663742920923978,0.010120576394814998
1771956732502808300,6.544808349609375,-0.020901918253302572,-0.0034670550560578703,0.012169974072137846
1771956732522771500,6.564771484375,-0.016713818913698195,0.020478651339933276,0.009424027231708168
1771956732542734000,6.584734130859375,0.002437456279993057,-0.013456497618183494,0.005959940450871363
1771956732562697200,6.604697265625,-0.012824410259723662,0.016991466811299323,-0.0007742266423534602
1771956732582661000,6.6246611328125,-0.02284486901462078,-0.015345489702560007,0.00508412573072128
1771956732602624300,6.644624267578125,-0.015510288342833517,-0.009383987482264638,-0.010586376408813521
1771956732622587100,6.664587158203125,-0.006984452059864998,-0.003316650267317891,0.0012980039212852716
1771956732642550300,6.68455029296875,-0.017309446719288826,0.002223046344332397,-0.0000706906160339713
1771956732662513200,6.70451318359375,-0.003242342922091484,-0.00410487803556025,-0.0003484755109529942
1771956732682477300,6.724477294921875,-0.026737784799933433,0.002838876687735319,-0.007969307511905208
1771956732702440200,6.744440185546875,-0.014017419436573982,0.000517813329026103,-0.0008242763291578739
1771956732722403300,6.7644033203125,-0.028085692277550697,0.007888999684154987,0.006769211007142439
1771956732742366200,6.7843662109375,0.0028916297882795334,-0.015769377670437096,-0.0015476130344904957
1771956732762329300,6.804329345703125,-0.014018003958463667,0.006834376064687967,-0.00018216990018263458
1771956732782293200,6.824293212890625,-0.019097499179840088,0.0039747488498687745,0.01140738306865096
1771956732802256400,6.84425634765625,-0.008325929796695709,0.02008910403307527,0.014920971547020599
1771956732822219000,6.864218994140625,-0.011771101814508437,-0.0032033626185730096,0.004882346947770565
1771956732842182100,6.88418212890625,-0.013114917638897895,-0.003323043475486338,0.00613864888548851
1771956732862145300,6.904145263671875,-0.01999707836806774,-0.004092128151841462,-0.005101853183656931
1771956732882109200,6.924109130859375,-0.003682487905025482,-0.01621449108943343,0.010880692313425241
1771956732902072000,6.944072021484375,-0.01894260087907314,0.003999481432326138,-0.0057578328743577
1771956732922035200,6.96403515625,-0.01683949111998081,-0.006511464253254234,0.00696175617086701
1771956732941998300,6.983998291015625,-0.014736965882778168,0.01049121807180345,0.002571759317303076
1771956732961961200,7.003961181640625,-0.008150573229789734,0.005803717842698097,-0.0009247684284113347
1771956732981925400,7.02392529296875,-0.024603695380687712,-0.0015442337673157453,-0.014802459733886643
1771956733001888300,7.04388818359375,-0.028046529310941693,0.0005591317201033235,0.005335671072686091
1771956733021851400,7.063851318359375,-0.004855623337626457,-0.0037718466889113188,-0.005980480915401131
1771956733041814300,7.083814208984375,-0.014881342789530754,-0.022164339404553174,0.00040903745861724017
1771956733061777400,7.10377734375,-0.000668108519911766,0.008296667169593274,0.0152040171389468
1771956733081741300,7.1237412109375,-0.011586977419257164,0.0026589535435661673,0.009841631589271128
1771956733101704400,7.143704345703125,-0.0020019874721765515,-0.008045870746299625,-0.005437606210354716
1771956733121667000,7.1636669921875,0.0006909048736095428,-0.015811134452931582,0.0008195362219586968
1771956733141630200,7.183630126953125,-0.005446574968099594,0.0008866831740364432,0.003882887581642717
1771956733161593000,7.203593017578125,0.003677811729907989,0.0003702215518802404,0.008268546186806634
1771956733181557200,7.22355712890625,-0.020266542959213256,0.004717639639042317,0.019733550327364353
1771956733201520000,7.24352001953125,-0.006343231546878814,0.0050645168479532,-0.0008383687865920364
1771956733221483300,7.263483154296875,-0.023095628905296324,0.006886836904287338,-0.005998665026063099
1771956733241446100,7.283446044921875,-0.007527472895383834,-0.0009186492148786782,-0.0023833788720425218
1771956733261409300,7.3034091796875,-0.0030360066950321195,-0.0009507248535752296,0.004225262145372107
1771956733281373200,7.323373291015625,-0.0063327101528644555,-0.007854622490517795,0.008740255351783707
1771956733301336300,7.34333642578125,0.00533259319961071,-0.00613777210265398,-0.0032843736992217596
1771956733321299200,7.36329931640625,-0.017410569006204604,-0.00030347645860165357,0.0025568814085796475
1771956733341262300,7.383262451171875,-0.022345687320828436,0.010602898285351693,-0.009719037256063892
1771956733361225500,7.4032255859375,-0.025344284614920616,0.01873904113098979,-0.000109168596053496
1771956733381189400,7.423189453125,-0.01950900259017944,0.01059767412096262,-0.006771969219809397
1771956733401152300,7.44315234375,0.0035281741261482236,-0.010189275983162223,-0.0003445573876611888
1771956733421115100,7.463115234375,-0.016523849299550055,-0.0018469065083190797,0.004268251903727651
1771956733441078300,7.483078369140625,-0.010244330638647079,-0.00026135434992611406,0.00016135544101707636
1771956733461041200,7.503041259765625,-0.03178688488304615,0.01707333640847355,0.022065938797686247
1771956733481005300,7.52300537109375,-0.03417816393375397,-0.005255728571116924,-0.0009833667478524148
1771956733500968200,7.54296826171875,-0.011886252626776695,-0.007784845189936458,-0.02742326457975432
1771956733520931800,7.562931884765625,-0.024758593681454655,-0.0036938860818743705,0.0032217567917890845
1771956733540894700,7.582894775390625,-0.007253916651010513,-0.00979209335912019,0.009720991751132533
1771956733560857900,7.60285791015625,-0.016831892335414884,-0.00921988296173513,0.0103015224522911
1771956733580821800,7.62282177734375,-0.003808160111308098,-0.0003872822845354676,-0.0010870737174991517
1771956733600785000,7.642784912109375,-0.021163784059882163,0.012983838605135679,0.0003463200864847749
1771956733620747800,7.662747802734375,-0.019821137279272077,-0.0014220686923712492,-0.011730769804120062
1771956733640711000,7.6827109375,-0.016243278792500496,-0.015094218355230987,-0.0035148853863123802
1771956733660673800,7.702673828125,-0.0030716625303030013,-0.0012075491588562726,-0.003412292661517858
1771956733680638000,7.722637939453125,-0.002176174995303154,-0.007662168658338487,-0.0015953246337361633
1771956733700600800,7.742600830078125,-0.015501520514488219,-0.014067578721232711,0.03250093317022547
1771956733720564000,7.76256396484375,-0.000986088427901268,0.015365947968699037,0.005778373338887467
1771956733740526800,7.78252685546875,-0.010105798950791358,0.00590655716266483,0.003342049570055678
1771956733760490000,7.802489990234375,-0.027016017219424246,-0.0037611060991883274,0.01123020900399424
1771956733780454000,7.822453857421875,-0.027166823866963386,0.0017824995025992392,-0.017144565880624577
1771956733800417000,7.8424169921875,-0.02537234166562557,-0.01888392949439585,-0.011746761957695707
1771956733820379600,7.862379638671875,-0.006518003591895103,-0.000018960428796708584,0.013186265842057763
1771956733840342800,7.8823427734375,-0.01653846234679222,-0.012616137803904711,-0.005761367405159399
1771956733860305700,7.9023056640625,-0.022971125742793082,-0.007760733661986887,-0.00268729372206144
1771956733880268800,7.922268798828125,-0.009957330390810966,-0.000415193204768002,-0.013216058192122727
1771956733900232700,7.942232666015625,-0.02985971621274948,0.002002170135267079,0.0051621320035308595
1771956733920195800,7.96219580078125,-0.019400281518697736,-0.013474142872728407,0.004907116062846034
1771956733940158700,7.98215869140625,0.004687281033396721,-0.01064973310176283,0.012207045546360313
1771956733960121900,8.002121826171875,0.0012497078001499175,-0.013604491254128515,-0.002783392773987725
1771956733980085000,8.0220849609375,-0.02089607303440571,-0.004580094331875443,0.0034977059226483104
1771956734000049000,8.042048828125,-0.027483634731173514,0.0029916926292702555,0.010420947580877691
1771956734020011800,8.06201171875,-0.019108020573854446,0.0004329845897853374,0.00019615275976248085
1771956734039975000,8.081974853515625,-0.01372165136039257,-0.0003714636608958244,0.00997690274096094
1771956734059937800,8.101937744140624,-0.011032850667834281,-0.0006020940789952874,-0.01108829804896377
1771956734079900700,8.121900634765625,-0.013434651112556456,-0.010253061934374271,-0.006285729205980897
1771956734099864800,8.14186474609375,-0.014780805024504661,0.0010035510193556548,0.005692375555867329
1771956734119827700,8.16182763671875,-0.005658171892166137,0.00494684528503567,0.003007730448618531
1771956734139790800,8.181790771484375,-0.022272037562727928,0.0025502690047025677,0.02194592914720997
1771956734159753700,8.201753662109375,-0.023916297638416288,-0.013633205891959368,0.008556861608894541
1771956734179716900,8.221716796875,-0.01883154172003269,-0.009787015325203537,0.009430420439876616
1771956734199680800,8.2416806640625,-0.011647183173894881,-0.015137728703394531,0.002705094240233302
1771956734219644000,8.261643798828125,-0.015986089161038396,-0.008448642860911786,-0.007280959921563044
1771956734239606800,8.281606689453126,-0.013144728255271911,0.007660159364342689,0.009516692217532544
1771956734259570000,8.30156982421875,-0.020777999612689016,0.010336685097217559,0.011125113794859498
1771956734279532800,8.32153271484375,-0.021680501410365104,-0.009474844103492796,0.005264697328861803
1771956734299497000,8.3414970703125,-0.013158172258734703,0.0025275822488591074,0.008163651907071471
1771956734319459800,8.3614599609375,-0.012413491371273993,0.0005924129351973533,0.005604980400204658
1771956734339423000,8.381423095703125,0.00001052139401435852,-0.0023410101681947708,-0.007475075987866148
1771956734359385900,8.4013857421875,-0.013905775755643843,-0.005887888994812965,0.010881285968469455
1771956734379348700,8.4213486328125,-0.01630932976603508,0.0013546294793486595,-0.007920061542699114
1771956734399312600,8.441312744140625,-0.006731354081630707,0.0011458090342581272,-0.009055869772750883
1771956734419275800,8.46127587890625,-0.011510989573597908,0.01046016534641385,0.013225501873902975
1771956734439239000,8.481239013671875,-0.009268179082870483,0.006303849384561181,-0.004236276729730889
1771956734459201800,8.501201904296876,-0.0038841479569673536,-0.015588358547724782,0.009811318649398163
1771956734479165000,8.5211650390625,-0.007175006195902824,-0.010124028727225958,0.002705021174997091
1771956734499128800,8.54112890625,-0.007025368592143058,-0.0008828107165172696,-0.005730771337496116
1771956734519091200,8.56109130859375,-0.014359364742040633,0.004325461983680725,0.022322105515841392
1771956734539054000,8.58105419921875,-0.013465630772709845,0.004693345448002219,-0.004192729848949238
1771956734559017200,8.601017333984375,-0.03127309014201164,0.006400880018249153,0.010807042555324733
1771956734578980000,8.62097998046875,-0.028575521621108053,-0.0037508769661188123,0.002768944123527035
1771956734598943000,8.64094287109375,-0.011521510967612265,-0.018693996412865815,-0.00017281754994764924
1771956734618907000,8.660906982421874,-0.020649404796957968,-0.002075344969332218,-0.0093189228894189
1771956734638870000,8.6808701171875,-0.012862404182553291,0.002872961620427668,0.0069203373150900005
1771956734658833200,8.700833251953124,-0.01765080750286579,0.006483407202549279,0.004908988359523937
1771956734678796000,8.720796142578125,-0.008967734831571579,-0.0031075375612825153,-0.003767490174202248
1771956734698759200,8.74075927734375,-0.013598317241668701,-0.007841324617527425,-0.012125075484486296
1771956734718723000,8.76072314453125,-0.01195522620975971,0.006143690386787057,-0.012371624990925192
1771956734738686200,8.780686279296875,-0.005669277808070182,-0.00019851824678480625,0.004134597320389002
1771956734758649000,8.800649169921876,-0.02092646817266941,0.004254990563355386,0.006265910260658711
1771956734778612200,8.8206123046875,-0.026318098083138463,0.009517514201439916,-0.0051770555780269205
1771956734798575000,8.8405751953125,-0.013145897299051284,0.007782251374050975,0.028669109055539592
1771956734818539300,8.860539306640625,-0.028856092128157613,0.010716441662423313,-0.006890691095497459
1771956734838502100,8.880502197265624,-0.0213800571590662,-0.00489628414157778,-0.007767802723590284
1771956734858465300,8.90046533203125,-0.018683657681941985,-0.006285363879799843,0.005115790377464145
1771956734878428000,8.920427978515624,-0.024819968479871748,-0.007545994932763278,0.010978389667393638
1771956734898391000,8.94039111328125,-0.010603811600804328,0.008735570043511689,0.013271012382907793
1771956734918355000,8.96035498046875,-0.01838847412765026,-0.008909574903547763,-0.0018710363025777042
1771956734938318000,8.980318115234375,-0.011650690305233,0.010498743791133166,-0.0011592256382573396
1771956734958281000,9.000281005859375,-0.023625790259242056,0.0044701676839962595,0.004890603319462388
1771956734978244000,9.020244140625,-0.014948562806844711,0.009989771355688572,-0.002420404680492356
1771956734998207000,9.04020703125,-0.018998714980483052,-0.011262677368335425,-0.016124127658549696
1771956735018170000,9.060170166015626,-0.0044815293282270425,-0.009896649712137877,0.0023807850561570376
1771956735038134000,9.080134033203125,-0.008977087181806565,0.0005673880917951464,0.012681896516494453
1771956735058097200,9.10009716796875,-0.017509353205561635,0.002323803305067122,0.008111181934317573
1771956735078060000,9.12006005859375,-0.015411504143476485,0.01737754351943731,0.009548247266421095
1771956735098023200,9.140023193359376,-0.02842939114868641,-0.006536452564038336,0.010642362646060064
1771956735117986300,9.159986328125,-0.011823124262690544,-0.01943721599560231,-0.000927599706314504
1771956735137950200,9.1799501953125,-0.0052472530037164684,-0.010144048601947724,-0.001920419269101694
1771956735157913000,9.1999130859375,-0.013631050467491149,0.005753302829712629,0.01834058899846859
1771956735177876000,9.2198759765625,-0.0048024318456649775,0.010542108008824288,-0.0027537100217770783
1771956735197839000,9.239839111328125,-0.0264952082157135,-0.014276764492504299,-0.008897665270045398
1771956735217802000,9.259802001953124,-0.029939211189746854,-0.0031316856218501924,-0.006807378459908068
1771956735237766100,9.27976611328125,-0.021413374906778335,-0.009086538905650378,-0.0050817237110808485
1771956735257729000,9.29972900390625,-0.01827566140294075,-0.009014934974163771,0.00450169533342123
1771956735277692200,9.319692138671876,0.005526654466986656,-0.0014464724812656641,-0.0007631846585310995
1771956735297655000,9.339655029296875,-0.013476152166724204,-0.005927198091894388,-0.0037170568949077276
1771956735317618200,9.3596181640625,-0.019760347002744674,0.006702018389292061,0.016434910640772432
1771956735337581000,9.3795810546875,-0.04744213465452194,0.006225852244906127,0.007251861691242084
1771956735357545200,9.399545166015624,-0.02859130371212959,0.007791640256904066,-0.006282295139878988
1771956735377508000,9.419508056640625,-0.03412555696368217,-0.018207162743993102,-0.01182864068802446
1771956735397471200,9.43947119140625,-0.017066285613179206,-0.008056976662203669,0.02334476309446618
1771956735417433900,9.459433837890625,-0.005243745872378349,0.0037325010592117905,0.0022266082745976746
1771956735437397000,9.47939697265625,-0.022300094613432884,0.008533215871825813,0.004740865251002833
1771956735457361000,9.49936083984375,-0.014222002097964285,-0.005649732857383787,-0.009388955918326973
1771956735477324000,9.519323974609375,-0.011678747355937958,0.007365596864558756,-0.00031140403673052784
1771956735497287000,9.539286865234375,-0.003005611556768417,-0.003108049017935991,0.002579202838242054
1771956735517250300,9.559250244140625,-0.01587327643632889,0.0013285451900213955,-0.0005178681279532612
1771956735537213400,9.57921337890625,-0.012883446970582007,-0.027579021397046745,0.01163721890230663
1771956735557177300,9.59917724609375,-0.011985621348023414,0.0021634616442024707,-0.008174392496794462
1771956735577140200,9.61914013671875,-0.01962064627110958,-0.007920271605253219,0.014597192085906862
1771956735597103400,9.639103271484375,-0.00959200420975685,0.008759425843134522,0.006477653315197676
1771956735617066500,9.65906640625,-0.039976621079444885,-0.00617598522119224,-0.01729170100004412
1771956735637029400,9.679029296875,-0.01783902355134487,0.005854352051392197,-0.01340479483040981
1771956735656992500,9.698992431640624,-0.019772621962428093,-0.014637706759385763,0.02054537816690281
1771956735676956400,9.718956298828125,-0.023513562056422233,-0.006141498429700732,0.009570860957028344
1771956735696919600,9.73891943359375,0.0007253916651010513,-0.007894114250689744,-0.0021786500801797954
1771956735716882400,9.75888232421875,-0.017530980515480042,0.016643676286935805,0.0017578399853780864
1771956735736845600,9.778845458984375,-0.016029343780875206,0.014645122880861162,0.0015169621679000556
1771956735756808200,9.79880810546875,-0.011987374913692474,-0.0049907574919983745,-0.01546227534948848
1771956735776772400,9.8187724609375,-0.020366496202349663,0.004011062272265553,0.0017517847039271145
1771956735796735200,9.8387353515625,-0.011987374913692474,-0.0066908759407699105,0.00018226123172789812
1771956735816698400,9.858698486328125,-0.013341712132096289,-0.02308883383832872,-0.005003406911017373
1771956735836661200,9.8786611328125,-0.011393500673770905,0.01035356316678226,-0.00010510434228926897
1771956735856624400,9.898624267578125,-0.022912089031934736,0.0015576777707785366,-0.005740224152430892
1771956735876587300,9.918587158203126,-0.014994155514240264,0.007164996258541941,-0.005883030156604945
1771956735896551400,9.938551513671875,-0.02742109088897705,0.0016210253305733203,0.013889463941659777
1771956735916514300,9.958514404296874,-0.026826047605276106,0.00020268296524882315,0.013790707141766324
1771956735936477400,9.9784775390625,-0.01859188774526119,-0.006615837943181395,-0.0003368398720864206
1771956735956440600,9.998440673828124,-0.013657353952527046,-0.0030308190632611512,0.008833660123124719
1771956735976403500,10.018403564453125,-0.015303952115774153,0.009403167106769979,0.02635013718921691
1771956735996367400,10.038367431640625,-0.017543255475163458,0.0012401727868244052,-0.012308980684028938
1771956736016330500,10.05833056640625,-0.01904547673165798,0.004213452976569533,-0.0012923048328608274
1771956736036293400,10.07829345703125,-0.02741933732330799,-0.013462306304462253,0.00005635156342759728
1771956736056256300,10.09825634765625,-0.014698971959948539,-0.005419358167611062,-0.00397758926092647
1771956736076219400,10.118219482421875,-0.0022819734573364257,-0.008689904270879924,-0.004035794854722917
1771956736096183300,10.138183349609376,-0.015149053815007208,-0.007565832144394516,0.001556782721634954
1771956736116146400,10.158146484375,0.0014560440272092818,-0.006223221896402537,-0.007896141810994595
1771956736136109300,10.178109375,-0.022189035454392433,-0.0005372486818581819,0.00875662196469493
1771956736156072400,10.198072509765625,-0.025636545559763906,0.01467500656247139,-0.003921456893207505
1771956736176035300,10.218035400390624,-0.016517419558763503,0.006247077696025371,0.011112108182813971
1771956736195998500,10.23799853515625,-0.016221066960692403,-0.013562405678071082,0.021157619180576875
1771956736215962400,10.25796240234375,-0.008444587740302085,0.004460340409725904,-0.0006780179925728589
1771956736235925500,10.277925537109375,0.0038233576804399486,0.005270962672866881,0.012831470188172534
1771956736255888400,10.297888427734375,-0.017719196563959122,-0.007560059990733861,-0.0007730393322650343
1771956736275851500,10.3178515625,-0.01906593499779701,0.01051423362120986,0.005878564044041559
1771956736295814400,10.337814453125,-0.026851766568422315,-0.0006739172061905265,-0.014626664775563403
1771956736315778600,10.357778564453126,-0.003214285871386528,-0.010590075336396694,0.0007587002796586602
1771956736335741200,10.3777412109375,-0.02731295433938503,-0.010002630837261677,0.027268311480060217
1771956736355704300,10.397704345703126,-0.010703764843940734,0.0019316256497055291,0.002040401520114392
1771956736375667500,10.41766748046875,-0.01998188079893589,0.0031337314484640956,0.007134875114914029
1771956736395630300,10.43763037109375,-0.00995499230325222,-0.000009936872124671935,-0.008932992311753332
1771956736415593500,10.457593505859375,-0.030154315245151518,0.009132752667553722,0.0037558728016447275
1771956736435557400,10.477557373046874,-0.012950082466006279,-0.004410619516484439,0.016601974303368478
1771956736455520500,10.4975205078125,-0.024024434188008308,-0.0011708704102784395,0.00304404387101531
1771956736475483400,10.5174833984375,-0.013398995277285575,0.012292933731526135,0.010092729406664147
1771956736495446500,10.537446533203125,-0.09679799397587775,0.03227919844463467,-0.032716777011146767
1771956736515409200,10.5574091796875,0.6351514222055673,0.1614926209980622,-0.06407379171010107
1771956736535373600,10.57737353515625,-0.7015016709476709,-0.17303042551334946,0.1051074749612715
1771956736555336200,10.597336181640625,0.5080237564176321,-0.18565602526534347,0.2372110203324817
1771956736575299300,10.61729931640625,-0.3892541691303253,0.1383891741124913,-0.1585588691011071
