time,seconds_elapsed,z,y,x
1772003694080420000,0.062420166015625,0.00100512127391994,-0.009489188902080059,0.0012795084621757269
1772003694100384000,0.082384033203125,-0.00007389811798930168,0.008763355202972889,0.0009573325514793396
1772003694120348000,0.102347900390625,-0.0006200415082275867,-0.0002678059972822666,-0.00033242866629734635
1772003694140312000,0.12231201171875,-0.0014551710337400436,0.002601862885057926,-0.001270241686142981
1772003694160276000,0.14227587890625,0.0013553996104747057,0.0011962102726101875,-0.002546177711337805
1772003694180240000,0.162239990234375,0.002707301639020443,-0.0006717699579894543,-0.0008443785482086241
1772003694200203800,0.182203857421875,-0.00030559441074728966,0.005152410827577114,0.0005905246362090111
1772003694220169000,0.2021689453125,-0.0007891543209552765,0.001330127939581871,0.004617232363671064
1772003694240133000,0.222133056640625,-0.0015589753165841103,-0.0030865343287587166,0.000229537021368742
1772003694260097000,0.242096923828125,0.00028599752113223076,0.004155593924224377,-0.0005792409647256136
1772003694280061000,0.26206103515625,0.0003022691234946251,0.0006092861294746399,-0.00025211519096046686
1772003694300025000,0.282025146484375,-0.0000963844358921051,-0.0038600615225732327,0.0018129911040887237
1772003694319989000,0.301989013671875,-0.00047374097630381584,0.0030395351350307465,0.0019265033770352602
1772003694339953000,0.321952880859375,0.0027112322859466076,0.0010008085519075394,-0.0025767728220671415
1772003694359916800,0.341916748046875,0.0005303309299051762,0.0026009874418377876,-0.0014123250730335712
1772003694379882000,0.361882080078125,0.000654539093375206,-0.0015246081165969372,0.0002297393511980772
1772003694399846100,0.38184619140625,0.0015720552764832973,0.0016226181760430336,0.0025785588659346104
1772003694419810000,0.40181005859375,-0.0021749758161604404,0.001202835701406002,-0.0008836322231218219
1772003694439774000,0.42177392578125,-0.000017588958144187927,0.003292420879006386,-0.0015594610013067722
1772003694459738000,0.441738037109375,0.00138961523771286,-0.0005750218406319618,0.00045868253801018
1772003694479702000,0.461701904296875,-0.000490112230181694,0.002560165710747242,0.0009223312372341752
1772003694499666000,0.481666015625,0.0024992553517222404,-0.0007938584312796593,-0.002044552005827427
1772003694519630000,0.501630126953125,0.00001619197428226471,-0.000042693689465522766,-0.00018645671661943197
1772003694539595000,0.521594970703125,0.001120740082114935,-0.003743649460375309,0.000693201320245862
1772003694559559200,0.54155908203125,0.0003459902945905924,0.0010395385324954987,0.0002437732182443142
1772003694579523000,0.561523193359375,0.001886966871097684,-0.00169715890660882,-0.00013808428775519133
1772003694599487000,0.581487060546875,-0.0025651869364082813,0.001140780746936798,0.0003278906224295497
1772003694619451100,0.601451171875,0.000355676980689168,0.0013241535052657127,-0.00044905219692736864
1772003694639415000,0.6214150390625,-0.0030812262557446957,0.0010724607855081558,-0.0008949301554821432
1772003694659379000,0.64137890625,0.00045448471792042255,0.0016960101202130318,0.0008279654430225492
1772003694679343000,0.661343017578125,-0.001084555871784687,-0.00021667173132300377,-0.00004022510256618261
1772003694699308000,0.68130810546875,0.000612771138548851,0.0021350104361772537,0.00111328752245754
1772003694719272000,0.70127197265625,-0.0000333394855260849,-0.0011185305193066597,-0.0002862932742573321
1772003694739235800,0.72123583984375,-0.00137324258685112,0.0005194256082177162,-0.00037684867857024074
1772003694759200000,0.741199951171875,0.0015200837515294552,-0.0020825080573558807,-0.00013659079559147358
1772003694779164200,0.7611640625,-0.000012930482625961304,-0.0026132212951779366,-0.001171912532299757
1772003694799128000,0.781128173828125,-0.00007312651723623276,0.0009792475029826164,-0.00010690651834011078
1772003694819092000,0.801092041015625,0.0013550932053476572,-0.0008784299716353416,-0.0014705988578498363
1772003694839056100,0.82105615234375,0.0008337122853845358,-0.0041946182027459145,-0.00020315905567258596
1772003694859021000,0.84102099609375,-0.0005208374932408333,0.0011402461677789688,-0.0000657812925055623
1772003694878985000,0.86098486328125,0.000019331928342580795,0.00031050294637680054,0.001924762618727982
1772003694898948900,0.880948974609375,0.00045980652794241905,0.0005650380626320839,0.00022193288896232843
1772003694918912800,0.900912841796875,-0.0026315776631236076,-0.002158349845558405,-0.0008451954927295446
1772003694938877200,0.920877197265625,0.0003579587209969759,0.00042914506047964096,-0.0013393935514613986
1772003694958841000,0.940841064453125,-0.0008805044926702976,-0.0013230652548372746,-0.000992743531242013
1772003694978805000,0.960804931640625,0.0011662696488201618,-0.001108985859900713,0.00034448050428181887
1772003694998768600,0.9807685546875,-0.00052266800776124,0.0009275516495108604,0.0011637529823929071
1772003695018733800,1.00073388671875,-0.001581248827278614,0.0032633719965815544,0.00145158136729151
1772003695038697700,1.02069775390625,-0.0021041259169578552,0.0003142375499010086,-0.003778150537982583
1772003695058661600,1.04066162109375,-0.0028539407067000866,-0.001038295216858387,0.0006636035395786166
1772003695078625800,1.060625732421875,-0.001027034129947424,-0.0014186855405569077,0.0008620177395641804
1772003695098589700,1.080589599609375,-0.00013426225632429123,-0.003124962095171213,0.00041720515582710505
1772003695118553600,1.1005537109375,0.0010093965101987123,0.00023871846497058868,-0.0005654660635627806
1772003695138517500,1.120517578125,0.002266312949359417,-0.0029397844336926937,-0.0016254284419119358
1772003695158481700,1.140481689453125,0.00019567040726542473,0.00521574541926384,-0.0027433899231255054
1772003695178445600,1.160445556640625,0.002304778201505542,-0.0015648799017071724,-0.0007467364193871617
1772003695198410800,1.18041064453125,0.0004936980549246073,-0.0023967167362570763,-0.001245221821591258
1772003695218374700,1.200374755859375,-0.002105888444930315,0.000654204748570919,0.0018648150144144893
1772003695238338800,1.2203388671875,-0.0016121594235301018,0.0009033810347318649,0.0006302539259195328
1772003695258302700,1.240302734375,-0.0010382398031651974,0.003105991519987583,-0.0007909976411610842
1772003695278266600,1.2602666015625,0.0010822624899446964,-0.002578907646238804,0.0010264529846608639
1772003695298230500,1.28023046875,-0.0011116485111415386,0.000049326568841934204,0.0005428795702755451
1772003695318194700,1.300194580078125,0.0006891363300383091,-0.00283500412479043,-0.00040813174564391375
1772003695338158600,1.32015869140625,-0.0006748470477759838,-0.000043468549847602844,0.0013921443605795503
1772003695358122500,1.34012255859375,0.00025507528334856033,0.002570193260908127,-0.0013989448780193925
1772003695378087700,1.360087646484375,0.001269170781597495,-0.0047800675965845585,-0.0024224845692515373
1772003695398051800,1.3800517578125,-0.0019087428227066994,-0.0019891387782990932,0.0006817828398197889
1772003695418015700,1.400015625,-0.0013930881395936012,0.0014976272359490395,-0.000268957344815135
1772003695437979600,1.419979736328125,0.0013663407880812883,0.0006375722587108612,-0.000361051585059613
1772003695457943600,1.439943603515625,-0.0005629532970488071,-0.0013924762606620789,0.00012404739391058683
1772003695477907700,1.45990771484375,-0.00022033508867025375,-0.001774956937879324,-0.0002754439483396709
1772003695497871600,1.47987158203125,0.0003612691070884466,0.0019511189311742783,0.0004921574145555496
1772003695517835500,1.49983544921875,0.0005713594146072865,-0.0024657663889229298,0.00034156825859099627
1772003695537799700,1.519799560546875,-0.0002513253130018711,0.0004658093675971031,0.00047274131793528795
1772003695557763600,1.539763671875,-0.000914751086384058,-0.0013180994428694248,0.003460121341049671
1772003695577728800,1.559728759765625,-0.0008471515029668808,0.0012866593897342682,0.00012392178177833557
1772003695597692700,1.579692626953125,-0.001639342401176691,-0.0024202726781368256,0.0002119352575391531
1772003695617656800,1.59965673828125,0.0020039218943566084,0.001958719454705715,0.00032996817026287317
1772003695637620700,1.619620849609375,-0.001558857038617134,-0.00005356781184673309,0.000004158820956945419
1772003695657584600,1.639584716796875,-0.0003451881930232048,0.0003593768924474716,0.0005381308728829026
1772003695677548500,1.659548583984375,-0.000512401107698679,0.0034149447456002235,0.0015036807162687182
1772003695697512700,1.6795126953125,-0.0013338364660739899,-0.0028449418023228645,0.00026151014026254416
1772003695717476600,1.6994765625,0.0016338631976395845,0.004534722305834293,-0.0007831653347238898
1772003695737440500,1.7194404296875,0.002460140734910965,0.002860615961253643,0.0023190132342278957
1772003695757404700,1.73940478515625,0.0005839627701789141,-0.001145168673247099,-0.000006521469913423061
1772003695777369900,1.759369873046875,-0.0013918830081820488,0.0007586311548948288,-0.0016607968136668205
1772003695797333800,1.779333740234375,-0.0012257788330316544,-0.005330475978553295,-0.0002665746142156422
1772003695817297700,1.799297607421875,0.0006366318557411432,0.002256963402032852,0.00010671676136553288
1772003695837261600,1.819261474609375,-0.0004792972467839718,-0.0021669184789061546,-0.00009686988778412342
1772003695857225700,1.839225830078125,0.00001149764284491539,0.0010530874133110046,-0.00021264475071802735
1772003695877189600,1.859189697265625,0.0006977126467972994,0.00035493168979883194,-0.0006431614747270942
1772003695897153500,1.879153564453125,0.00025946367532014847,-0.0006083366461098194,-0.0002656708238646388
1772003695917117700,1.89911767578125,-0.0005249497480690479,-0.00387637410312891,-0.0011464543640613556
1772003695937081600,1.91908154296875,-0.00047359708696603775,-0.0016617109067738056,0.0009492577519267797
1772003695957045500,1.93904541015625,0.0007837808225303888,-0.0010988875292241573,0.0005848257569596171
1772003695977010700,1.9590107421875,0.0010333072859793901,0.0012118006125092506,-0.0007474094163626432
1772003695996974600,1.978974609375,0.0014263165649026632,0.004794520325958729,-0.00034791528014466166
1772003696016939000,1.99893896484375,0.001597799127921462,0.0005121063441038132,-0.0026071276515722275
1772003696036903000,2.01890283203125,-0.0002290029078722,-0.001656568143516779,0.003644783515483141
1772003696056866800,2.03886669921875,-0.001168636605143547,0.0018092207610607147,-0.001248549553565681
1772003696076831000,2.0588310546875,0.0016088834963738918,0.00041555799543857574,-0.0011161883594468236
1772003696096795000,2.078794921875,0.00030429521575570107,0.0052507491782307625,-0.0012078974395990372
1772003696116758800,2.0987587890625,0.00041237776167690754,-0.0008680629543960094,-0.0009024082683026791
1772003696136722700,2.11872265625,-0.0015745782293379307,0.00007904507219791412,0.0013664491707459092
1772003696156686800,2.138686767578125,-0.0011237943544983864,0.000797010026872158,-0.000531956204213202
1772003696176652000,2.158652099609375,-0.002087392844259739,-0.0008702767081558704,-0.00010358914732933044
1772003696196616000,2.178615966796875,-0.0006878487765789032,0.002024814486503601,-0.0019028210081160069
1772003696216579800,2.198579833984375,0.00022504525259137154,-0.00048365024849772453,-0.0009620553464628756
1772003696236544000,2.2185439453125,-0.0010500205680727959,0.0014773309230804443,-0.0007466166280210018
1772003696256508000,2.2385078125,0.00034030061215162277,0.00015670433640480042,-0.000131203792989254
1772003696276471800,2.258471923828125,0.0011593853123486042,-0.000058368779718875885,0.0018352590268477798
1772003696296435700,2.278435791015625,0.00006597628816962242,0.0021306071430444717,-0.0023346333764493465
1772003696316399900,2.29839990234375,-0.002666318789124489,-0.0036618667654693127,0.0014360803179442883
1772003696336363800,2.31836376953125,0.002646255074068904,-0.001734909601509571,-0.0007580331293866038
1772003696356327700,2.33832763671875,0.0032025373075157404,-0.00012297090142965317,-0.00003061140887439251
1772003696376291800,2.358291748046875,0.001869529951363802,-0.005086498335003853,0.000677112489938736
1772003696396257000,2.378257080078125,0.0025546355172991753,-0.0006674733012914658,0.00014870392624288797
1772003696416221000,2.398220947265625,-0.000288497656583786,0.0023267343640327454,-0.0021239486522972584
1772003696436184800,2.418184814453125,-0.0007661054842174053,0.000566825270652771,0.0011269771493971348
1772003696456148700,2.438148681640625,-0.0007075117900967598,0.0016622012481093407,-0.0024484945461153984
1772003696476113000,2.45811279296875,-0.0014774897135794163,0.001491587609052658,0.002613572869449854
1772003696496076800,2.478076904296875,0.0022507894318550825,-0.0012294366024434566,0.0026126704178750515
1772003696516040700,2.498040771484375,-0.0009294492192566395,0.00037971697747707367,-0.0016307455953210592
1772003696536004900,2.5180048828125,-0.0016143829561769962,-0.0030674953013658524,-0.0010846179211512208
1772003696555968800,2.53796875,0.00011390913277864456,-0.00125481141731143,0.0001505271065980196
1772003696575933000,2.557932861328125,-0.0018319878727197647,0.0013541476801037788,-0.001877649687230587
1772003696595896800,2.577896728515625,0.0012531126849353313,-0.0021960153244435787,-0.0007845897343941033
1772003696615862000,2.597862060546875,0.0003726340364664793,0.0004289019852876663,0.0005976795218884945
1772003696635826000,2.617825927734375,0.0012794050853699446,0.00012014992535114288,-0.0014312714338302612
1772003696655789800,2.637789794921875,0.00026502879336476326,-0.001600559800863266,-0.0010354205733165145
1772003696675753700,2.657753662109375,0.0005535816308110952,-0.0032059899531304836,0.0016657498199492693
1772003696695718000,2.6777177734375,-0.0018956423737108707,0.000378953292965889,-0.0003556624287739396
1772003696715681800,2.697681884765625,-0.0005634212866425514,0.000960267148911953,-0.0013336169067770243
1772003696735645700,2.717645751953125,-0.0009427759796380997,-0.0009221052750945091,-0.002447109203785658
1772003696755609900,2.73760986328125,0.000988307874649763,-0.002513619139790535,0.0000216607004404068
1772003696775574000,2.757573974609375,-0.003348533995449543,0.0009143734350800514,0.0007366713834926486
1772003696795538000,2.777537841796875,-0.0004457365721464157,-0.0009355535730719566,0.001078993664123118
1772003696815501800,2.797501708984375,0.0003402994479984045,-0.0006061275489628315,-0.0010260676499456167
1772003696835466000,2.817466064453125,0.0023854533210396767,-0.00034711649641394615,0.00015588989481329918
1772003696855430000,2.837429931640625,-0.0021958034485578537,-0.0027136951684951782,-0.00024162890622392297
1772003696875394800,2.857394775390625,0.0003438720013946295,0.0003672875463962555,0.0007702372968196869
1772003696895358700,2.877358642578125,-0.0011947578750550747,-0.0016260282136499882,0.0011515086516737938
1772003696915323000,2.897322998046875,0.002254529856145382,-0.0011815689504146576,0.0000027677742764353752
1772003696935286800,2.917286865234375,0.0014597037807106972,0.00031085778027772903,0.002113134367391467
1772003696955251000,2.9372509765625,0.0013657987583428621,0.00015121512115001678,0.0012271275045350194
1772003696975214800,2.95721484375,-0.001065930351614952,-0.0016818325966596603,0.000299835461191833
1772003696995179000,2.977178955078125,-0.00020590750500559807,0.0011924700811505318,0.00011757109314203262
1772003697015143000,2.997142822265625,0.001619707327336073,-0.0027815187349915504,0.0005156390834599733
1772003697035107000,3.017107177734375,0.0005134406965225935,0.0013960697688162327,0.0010607517324388027
1772003697055071200,3.0370712890625,-0.001748089212924242,0.0013930094428360462,-0.001432610210031271
1772003697075035100,3.05703515625,-0.0024399016983807087,-0.0010398277081549168,0.00041537778452038765
1772003697094999000,3.0769990234375,-0.002297104336321354,0.0014206776395440102,0.001733155339024961
1772003697114964000,3.0969638671875,0.00015342049300670624,0.0030860472470521927,0.0005061824340373278
1772003697134928000,3.116927978515625,-0.0004162285476922989,0.0032380279153585434,0.00021350965835154057
1772003697154892000,3.13689208984375,-0.002825144212692976,0.0033930926583707333,-0.0009635435417294502
1772003697174856000,3.15685595703125,-0.0011255145072937012,-0.0012408345937728882,0.00011776527389883995
1772003697194819800,3.17681982421875,0.0011495316866785288,-0.0004341909661889076,0.0001368410885334015
1772003697214784300,3.1967841796875,0.0008721926715224981,0.001599661074578762,-0.0010718436678871512
1772003697234748200,3.216748046875,-0.0001863841898739338,-0.0008220206946134567,-0.000021794578060507774
1772003697254712000,3.236712158203125,-0.0013716942630708218,-0.00376695953309536,0.0012082948815077543
1772003697274676000,3.256676025390625,-0.0015682377852499485,-0.0010367492213845253,0.0016693087527528405
1772003697294640000,3.27664013671875,0.00008087418973445892,0.0006156065501272678,-0.001469443435780704
1772003697314604000,3.29660400390625,0.0008285900112241507,0.0011511938646435738,0.0007614158093929291
1772003697334568000,3.31656787109375,0.002866070717573166,0.0009993254207074642,-0.0010322417365387082
1772003697354532000,3.336531982421875,0.0024285814724862576,-0.0017628269270062447,0.0007615191861987114
1772003697374496000,3.35649609375,-0.0016321651637554169,0.00006768852472305298,0.0032072607427835464
1772003697394461000,3.3764609375,0.0003573596477508545,-0.00047752587124705315,0.0005115821259096265
1772003697414425000,3.396425048828125,0.0007438578177243471,0.000979145523160696,-0.0018136975122615695
1772003697434389000,3.416388916015625,0.00030432408675551414,0.0019775391556322575,0.001277984119951725
1772003697454353200,3.436353271484375,-0.0022075646556913853,0.0020227665081620216,-0.0006553689017891884
1772003697474317000,3.456317138671875,0.0009836982935667038,-0.00005847122520208359,0.001209261710755527
1772003697494281000,3.476281005859375,-0.000443996861577034,0.0024791681207716465,0.001549601904116571
1772003697514245000,3.4962451171875,-0.000777736771851778,0.0026430762372910976,0.00015407719183713198
1772003697534209000,3.516208984375,-0.000824442133307457,0.001843801699578762,0.0010076359612867236
1772003697554173000,3.5361728515625,-0.0005436665378510952,-0.0013042008504271507,-0.00046835822286084294
1772003697574137000,3.55613720703125,0.000997366150841117,-0.0029912712052464485,-0.0006208003032952547
1772003697594101000,3.57610107421875,-0.0021287547424435616,0.0003224192187190056,0.0025958330370485783
1772003697614065000,3.59606494140625,0.0008629306685179472,0.00043529411777853966,0.000050617032684385777
1772003697634029000,3.616029052734375,0.0020918480586260557,-0.00044061942026019096,-0.0008483095443807542
1772003697653993200,3.6359931640625,-0.00006652949377894402,-0.0010490445420145988,-0.00039246847154572606
1772003697673958100,3.655958251953125,-0.002384902909398079,0.0015524961054325104,-0.0005240726168267429
1772003697693922000,3.675922119140625,0.0023676049895584583,-0.0008737477473914623,0.00011721521150320768
1772003697713886000,3.695885986328125,-0.0012249480932950974,0.0007186150178313255,-0.0010841061593964696
1772003697733850000,3.71585009765625,0.002037761267274618,0.0022721104323863983,-0.0009276497876271605
1772003697753814000,3.73581396484375,0.0014072544872760773,-0.001392302569001913,0.00171385717112571
1772003697773778000,3.75577783203125,0.0006940616294741631,0.0034148693084716797,-0.0012376384111121297
1772003697793741800,3.775741943359375,-0.000036005862057209015,0.00026539433747529984,-0.0007540953229181468
1772003697813706000,3.7957060546875,-0.0016878312453627586,-0.002328289672732353,-0.0013577124336734414
1772003697833670100,3.815670166015625,-0.0015253294259309769,0.001641381997615099,0.00004191824700683355
1772003697853634000,3.835634033203125,0.0009469797369092703,-0.0008662771433591843,-0.0004515091422945261
1772003697873598200,3.85559814453125,0.0013696332462131977,0.0006147399544715881,-0.00019701634300872684
1772003697893562000,3.87556201171875,0.002507059834897518,0.00038271909579634666,0.000043843756429851055
1772003697913526000,3.895526123046875,-0.0012501636520028114,-0.0018238010816276073,0.001029908424243331
1772003697933490000,3.915489990234375,-0.00015667127445340157,-0.001476510427892208,0.00005659495946019888
1772003697953454000,3.9354541015625,-0.0014783362857997417,0.00042088190093636513,0.00022991921287029982
1772003697973418000,3.95541796875,-0.0007981429807841778,-0.00043686293065547943,-0.002683840459212661
1772003697993383000,3.9753828125,-0.0011709216050803661,-0.00043207406997680664,0.0005443177651613951
1772003698013347300,3.995347412109375,0.0009867518674582243,-0.0003898022696375847,0.0005566796753555536
1772003698033311500,4.0153115234375,0.0017234589904546738,-0.000032953452318906784,0.0009067594073712826
1772003698053275400,4.035275390625,-0.0020316741429269314,0.006124843377619982,-0.0004994424525648355
1772003698073239300,4.0552392578125,0.0004945455584675074,-0.0003253687173128128,-0.0013515655882656574
1772003698093203200,4.075203125,-0.00015158625319600105,0.0037482772022485733,0.0016228981548920274
1772003698113167400,4.09516748046875,-0.0009080842137336731,-0.0038498793728649616,-0.00019478827016428113
1772003698133131300,4.11513134765625,0.0009814207442104816,-0.0008924202993512154,-9.89297404885292e-7
1772003698153095200,4.13509521484375,0.0002243807539343834,0.005123160779476166,-0.0002969325869344175
1772003698173059600,4.1550595703125,0.00016392022371292114,-0.0017615444958209991,0.0013583882246166468
1772003698193023500,4.1750234375,-0.0015081306919455528,0.0006496659480035305,-0.0008960546692833304
1772003698212987400,4.1949873046875,0.0002420677337795496,0.0026922523975372314,0.0022530066780745983
1772003698232951300,4.214951416015625,-0.0014628330245614052,-0.0013690064661204815,-0.0006850240752100945
1772003698252915500,4.23491552734375,-0.0001504160463809967,0.004118683747947216,0.0002652460243552923
1772003698272879400,4.25487939453125,-0.0013211010955274105,-0.0005518868565559387,-0.00033310812432318926
1772003698292843300,4.27484326171875,-0.001736932434141636,0.0014447509311139584,0.00019496132154017687
1772003698312807400,4.294807373046875,-0.0016543203964829445,0.0039084781892597675,0.0009883393067866564
1772003698332771300,4.314771240234375,0.0002710691187530756,0.0019633350893855095,-0.0006324962596409023
1772003698352735200,4.3347353515625,0.00019339844584465027,-0.001751887146383524,0.000926528824493289
1772003698372700400,4.354700439453125,-0.0004990929737687111,0.004908761475235224,0.0011402767850086093
1772003698392664300,4.374664306640625,-0.00010360311716794968,-0.00135098397731781,-0.0008306085364893079
1772003698412628500,4.39462841796875,0.0000016121193766593933,0.0005203220061957836,-0.0003064866759814322
1772003698432592400,4.41459228515625,0.0007680689450353384,-0.0007424359209835529,-0.0004684206796810031
1772003698452556300,4.434556396484375,-0.000011301599442958832,-0.003941764123737812,-0.0020325533114373684
1772003698472520400,4.4545205078125,-0.0005355896428227425,0.0001936354674398899,0.0016292640939354897
1772003698492484400,4.474484375,0.0002711343113332987,0.002245797775685787,0.0025137816555798054
1772003698512448300,4.4944482421875,-0.00033860141411423683,0.003362012095749378,-0.002807370852679014
1772003698532412400,4.514412353515625,-0.0014364905655384064,-0.001286153681576252,-0.0021472275257110596
1772003698552376300,4.534376220703125,-0.002421627752482891,-0.0016479589976370335,-0.0027250642888247967
1772003698572340200,4.55434033203125,0.00044019147753715515,-0.0005611679516732693,0.0019931485876441
1772003698592304400,4.574304443359375,0.0013194354251027107,-0.0000672987662255764,-0.0008197196293622255
1772003698612268500,4.5942685546875,0.0008234495762735605,0.0004932871088385582,0.000112339504994452
1772003698632232400,4.614232421875,0.0004531953018158674,-0.00014458643272519112,0.0008106472669169307
1772003698652196400,4.6341962890625,0.0008212185930460691,0.00046045752242207527,-0.00137505610473454
1772003698672160500,4.654160400390625,0.000055233947932720184,-0.000866930466145277,0.0016395373968407512
1772003698692124400,4.67412451171875,0.002326258923858404,-0.000041283201426267624,-0.0008857735665515065
1772003698712088300,4.69408837890625,0.001306268386542797,0.0004417579621076584,-0.0036605079658329487
1772003698732052200,4.71405224609375,-0.00008462369441986084,0.0005358508788049221,-0.001098916050978005
1772003698752016400,4.734016357421875,-0.002110554836690426,0.0012394199147820473,-0.0001329542719759047
1772003698771981600,4.753981689453125,-0.00047549186274409294,-0.001002979464828968,0.0026593655347824097
1772003698791945500,4.773945556640625,-0.0005339453928172588,-0.0012694853357970715,0.0025607552379369736
1772003698811909400,4.793909423828125,-0.0006877114064991474,-0.0016698152758181095,-0.000533497950527817
1772003698831873500,4.81387353515625,0.002713852096349001,-0.002134098205715418,-0.0012346343137323856
1772003698851837400,4.83383740234375,0.00009817490354180336,-0.0066257258877158165,0.0017451124731451273
1772003698871801300,4.85380126953125,0.0022108852863311768,0.00017055775970220566,0.0013667646562680602
1772003698891765200,4.87376513671875,-0.0007299617864191532,0.001142643392086029,-0.0009044087491929531
1772003698911729400,4.8937294921875,-0.00006318790838122368,0.004555186256766319,-0.0008242180338129401
1772003698931693300,4.913693359375,-0.0017405287362635136,-0.003175223246216774,-0.0018968405202031136
1772003698951657200,4.9336572265625,0.001267715822905302,0.0003495928831398487,0.0015574668068438768
1772003698971621400,4.953621337890625,-0.003617360722273588,-0.0013655219227075577,-0.0006474137189798057
1772003698991585300,4.973585205078125,-0.0011922861449420452,-0.002829994075000286,-0.00001411407720297575
1772003699011549000,4.993548828125,-0.00037035252898931503,0.00297734746709466,0.0010478559415787458
1772003699031513000,5.01351318359375,-0.002449155319482088,-0.0018145758658647537,-0.0005795918405056
1772003699051477000,5.03347705078125,-0.0012722830288112164,-0.002575046382844448,-0.0026840611826628447
1772003699071441000,5.05344091796875,-0.00003090221434831619,-0.0019574053585529327,0.00023572996724396944
1772003699091404800,5.07340478515625,0.00016559334471821785,-0.0021632863208651543,-0.0006710931193083525
1772003699111369000,5.093368896484375,0.0013251325581222773,-0.002594694960862398,0.0024575197603553534
1772003699131332900,5.113332763671875,-0.0023643076419830322,-0.0008251089602708817,-0.001939231064170599
1772003699151296800,5.133296875,-0.000498542096465826,-0.0021868115290999413,-0.0012246666010469198
1772003699171261000,5.153260986328125,-0.00007070228457450867,0.0009942562319338322,0.0009401497663930058
1772003699191224800,5.173224853515625,-0.003138262778520584,0.002080068923532963,0.0024600904434919357
1772003699211188700,5.193188720703125,0.0012695954646915197,0.000538799911737442,0.0007066752295941114
1772003699231153000,5.21315283203125,-0.0009429878555238247,-0.0022120317444205284,0.0006152305286377668
1772003699251117000,5.233116943359375,-0.00011753058061003685,0.0007685087621212006,0.00011000887025147676
1772003699271081000,5.2530810546875,0.0009114928543567657,-0.002670557238161564,-0.0021858620457351208
1772003699291046000,5.2730458984375,0.00009392434731125832,0.002258014865219593,-0.0023877699859440327
1772003699311009800,5.293009765625,-0.0009741331450641155,0.0006140675395727158,0.00017120165284723043
1772003699330974000,5.312973876953125,-0.0008876752108335495,0.0013843327760696411,0.0012607158860191703
1772003699350935000,5.33293505859375,0.0007790760137140751,0.0008083488792181015,0.00017158384434878826
1772003699370899000,5.35289892578125,0.00026510516181588173,0.002169535495340824,0.0036489577032625675
1772003699390862800,5.37286279296875,-0.002594835590571165,0.0010112631134688854,-0.0015584020875394344
1772003699410827000,5.392826904296875,-0.0005837045609951019,-0.00332717876881361,0.001678550848737359
1772003699430791000,5.412791015625,-0.0008047078736126423,-0.0020201848819851875,-0.0009739111992530525
1772003699450755800,5.432755859375,-0.0004909299314022064,-0.0037743966095149517,0.0007739418651908636
1772003699470719700,5.4527197265625,0.0013493504375219345,0.0029109548777341843,0.0037280055694282055
1772003699490684000,5.472683837890625,-0.0003774692304432392,-0.00010425085201859474,0.0004959228681400418
1772003699510648000,5.49264794921875,-0.0026771617121994495,0.000947664026170969,-0.0013833396369591355
1772003699530612000,5.512612060546875,0.0008124618325382471,-0.00045341160148382187,0.00127739820163697
1772003699550575900,5.532575927734375,0.0008930570911616087,-0.002410647924989462,-0.001554931397549808
1772003699570540000,5.5525400390625,0.0000916067510843277,0.001622120849788189,-0.0015428895130753517
1772003699590504000,5.57250390625,-0.0004560714587569237,-0.0005698692984879017,0.00048299937043339014
1772003699610467800,5.5924677734375,0.0009599586483091116,-0.0015518981963396072,0.0008364182431250811
1772003699630432000,5.612431884765625,-0.0004829815588891506,-0.0027611027471721172,-0.00019349076319485903
1772003699650396000,5.63239599609375,0.0005957752000540495,0.00016531487926840782,0.002263693604618311
1772003699670359800,5.65235986328125,0.001875703688710928,0.0011151917278766632,-0.0003422114532440901
1772003699690323700,5.67232373046875,-0.0013295356184244156,-0.0005738097243010998,0.0006802754942327738
1772003699710288000,5.692287841796875,-0.0014667334035038948,0.00002365047112107277,0.0018393531208857894
1772003699730251800,5.712251708984375,-0.0010351529344916344,-0.0005536475218832493,0.00016332592349499464
1772003699750216000,5.7322158203125,-0.00010564969852566719,-0.00023657269775867462,-0.0023591420613229275
1772003699770180000,5.75218017578125,-0.0013008369132876396,0.004388363100588322,-0.0024437473621219397
1772003699790144000,5.77214404296875,0.001095751067623496,0.0013954690657556057,0.0010666213929653168
1772003699810108000,5.79210791015625,-0.000294290017336607,0.0010442440398037434,-0.00011412764433771372
1772003699830071800,5.81207177734375,0.0014172294177114964,0.003352393861860037,0.0002002486726269126
1772003699850036000,5.832035888671875,0.0013573835603892803,-0.0028094369918107986,-0.0009161311900243163
1772003699869999900,5.851999755859375,-0.002367998007684946,0.0011486872099339962,-0.0025372696109116077
1772003699889963800,5.8719638671875,0.0012447854969650507,-0.0007726866751909256,0.0009533253032714128
1772003699909928000,5.891927978515625,-0.0011201705783605576,-0.00016534747555851936,0.0010659004328772426
1772003699929891800,5.911891845703125,-0.0006748465821146965,0.00022721150889992714,-0.0017771725542843342
1772003699949855700,5.931855712890625,0.00235541770234704,-0.0028875451534986496,0.0006503195036202669
1772003699969820000,5.95181982421875,0.0018688247073441744,-0.0004092617891728878,-0.00024641852360218763
1772003699989784000,5.9717841796875,0.00034061679616570473,-0.0025099851191043854,0.0006798597751185298
1772003700009748200,5.991748291015625,-0.0019097542390227318,-0.003699086606502533,0.0010114234173670411
1772003700029712100,6.011712158203125,0.000015935394912958145,-0.0016844812780618668,0.0012654234888032079
1772003700049676300,6.03167626953125,0.0018632218707352877,-0.00038066087290644646,-0.0006836446118541062
1772003700069640200,6.05164013671875,0.0022990992292761803,-0.003149948548525572,-0.002061779610812664
1772003700089604000,6.07160400390625,-0.0012418869882822037,-0.0016486127860844135,0.0009455770486965775
1772003700109568300,6.091568359375,-0.0011662370525300503,0.0023361705243587494,-0.0026450036093592644
1772003700129532400,6.111532470703125,0.0012401489075273275,-0.0026830979622900486,-0.0003421208239160478
1772003700149496300,6.131496337890625,0.000006143003702163696,0.00023777177557349205,0.0022633778862655163
1772003700169460200,6.151460205078125,0.0013317351695150137,-0.0045452965423464775,0.00037297920789569616
1772003700189424400,6.17142431640625,-0.001668006181716919,-0.000619521364569664,-0.000496425200253725
1772003700209388300,6.19138818359375,-0.0006200084462761879,-0.00023601530119776726,0.0024257125332951546
1772003700229352200,6.211352294921875,-0.0012235245667397976,0.0007751765660941601,-0.00043250928865745664
1772003700249316000,6.231316162109375,0.0004148520529270172,-0.0013731960207223892,-0.0015323949046432972
1772003700269280300,6.2512802734375,-0.001516910269856453,-0.000007081776857376099,-0.0014366211835294962
1772003700289244200,6.271244140625,0.00014715222641825676,-0.0031450078822672367,-0.0006022322340868413
1772003700309208000,6.2912080078125,0.0013619628734886646,-0.0018845396116375923,0.0022667422890663147
1772003700329172200,6.311172119140625,-0.00018783286213874817,-0.0009695920161902905,0.0017921739490702748
1772003700349136400,6.331136474609375,0.0010254899971187115,0.0007647727616131306,0.001442702952772379
1772003700369100300,6.351100341796875,-0.001167114358395338,-0.001966542564332485,-0.003510721493512392
1772003700389064200,6.371064208984375,-0.002304691821336746,-0.0015188655816018581,0.00039981049485504627
1772003700409028400,6.3910283203125,0.00017057545483112335,-0.0008142734877765179,-0.0014341616770252585
1772003700428993300,6.4109931640625,0.0008719419129192829,0.00013088854029774666,0.0025742468424141407
1772003700448957200,6.430957275390625,-0.0003345911391079426,0.0007164487615227699,0.0017045199638232589
1772003700468921000,6.450921142578125,0.001255786046385765,-0.0015822290442883968,0.000981290708296001
1772003700488885200,6.47088525390625,-0.00013944460079073906,0.0002461457625031471,0.0023334412835538387
1772003700508849200,6.49084912109375,-0.0003653145395219326,0.0007992973551154137,-0.0011103019351139665
1772003700528813000,6.51081298828125,-0.00009298557415604591,0.0016519934870302677,0.0013701359275728464
1772003700548777200,6.530777099609375,0.00007679546251893044,0.0006858883425593376,-0.0027649998664855957
1772003700568741400,6.550741455078125,0.0009214624296873808,0.001225398387759924,-0.0005265226936899126
1772003700588705300,6.570705322265625,-0.00023635895922780037,0.0006629489362239838,0.0018196256132796407
1772003700608669200,6.590669189453125,-0.0013606804423034191,-0.0023850840516388416,0.0009780278196558356
1772003700628633300,6.61063330078125,0.0026330393739044666,0.00238159392029047,0.0002227249788120389
1772003700648597200,6.63059716796875,0.0013579621445387602,-0.00037220586091279984,-0.00029487948631867766
1772003700668561200,6.65056103515625,0.00007417052984237671,0.003932352643460035,0.0009771595941856503
1772003700688525300,6.670525390625,-0.0015306626446545124,0.0008204765617847443,-0.0011240681633353233
1772003700708489200,6.6904892578125,0.001302315853536129,-0.001960138790309429,0.0007962123490869999
1772003700728453000,6.710453125,-0.00040960032492876053,0.003711241763085127,0.00013688544277101755
1772003700748417000,6.7304169921875,0.00007214723154902458,-0.000026767607778310776,-0.0006660310318693519
1772003700768381400,6.75038134765625,-0.0007657264359295368,-0.00009100278839468956,0.0025321729481220245
1772003700788345300,6.770345458984375,0.0004259338602423668,-0.00035394029691815376,0.0014515214134007692
1772003700808309200,6.790309326171875,-0.0003761677071452141,-0.0023036818020045757,-0.0009931143140420318
1772003700828273400,6.8102734375,0.0012187217362225056,0.0008582649752497673,0.0003536682343110442
1772003700848237300,6.8302373046875,0.0011379418428987265,-0.0037882847245782614,-0.0013872957788407803
1772003700868201200,6.850201171875,0.00008268188685178757,0.0009662536904215813,0.0007393353153020144
1772003700888165000,6.8701650390625,-0.000964662991464138,0.0009227478876709938,0.0014722737250849605
1772003700908129300,6.89012939453125,-0.0016361563466489315,0.0012148553505539894,0.0023160302080214024
1772003700928093200,6.91009326171875,0.0004937220364809036,0.0023109354078769684,0.0015183765208348632
1772003700948057000,6.93005712890625,-0.0015287725254893303,-0.000010301824659109116,0.0014659641310572624
1772003700968021200,6.950021240234375,0.0005793760064989328,-0.0024453401565551758,0.0007919784402474761
1772003700987985200,6.969985107421875,0.0011174918618053198,0.002134918700903654,0.0011051594046875834
1772003701007950300,6.989950439453125,0.0010523698292672634,-0.0007933159358799458,-0.0007693595252931118
1772003701027914200,7.009914306640625,-0.0025619547814130783,-0.0011364552192389965,-0.0005124475574120879
1772003701047878100,7.029878173828125,0.000918152742087841,0.0001043262891471386,0.0011217249557375908
1772003701067842600,7.049842529296875,-0.0012505813501775265,-0.0013996236957609653,-0.001351026352494955
1772003701087806500,7.069806396484375,-0.0015365579165518284,0.0013457993045449257,-0.002471460495144129
1772003701107770400,7.089770263671875,0.001875437330454588,0.0015479633584618568,-0.0014011082239449024
1772003701127734500,7.109734619140625,0.0009643244557082653,-0.001205457840114832,-0.0020128204487264156
1772003701147698400,7.129698486328125,0.0033780739177018404,0.00335880508646369,0.0008344569941982627
1772003701167662300,7.149662353515625,-0.000534027349203825,-0.0002918848767876625,-0.0004760890151374042
1772003701187626200,7.169626220703125,0.0013988192658871412,-0.0009944392368197441,0.00122457230463624
1772003701207590400,7.18959033203125,0.0004886302631348372,0.001502427738159895,0.0013944697566330433
1772003701227554300,7.20955419921875,-0.0004917611368000507,-0.001808839850127697,-0.00013640354154631495
1772003701247518200,7.229518310546875,-0.0006894245743751526,-0.00038302596658468246,-0.000815122970379889
1772003701267482400,7.249482421875,-0.00022028572857379913,-0.0014915317296981812,0.004804189316928387
1772003701287446300,7.2694462890625,-0.00013388460502028465,-0.0008118767291307449,-0.0004506377736106515
1772003701307410400,7.289410400390625,-0.002035523299127817,0.0021215477026998997,-0.0014641822781413794
1772003701327374300,7.309374267578125,0.0008667202200740576,-0.003982920199632645,0.0008701006881892681
1772003701347338500,7.32933837890625,0.00013199495151638985,0.0012453286908566952,-0.0020535148214548826
1772003701367302400,7.349302490234375,0.00045053125359117985,-0.002822001464664936,0.00013151962775737047
1772003701387266300,7.369266357421875,-0.000511441845446825,-0.0005969349294900894,-0.0021916211117058992
1772003701407230500,7.38923046875,-0.0007287566550076008,0.002768460661172867,0.0007159217493608594
1772003701427194400,7.4091943359375,-0.0000022854655981063843,0.0011330540291965008,-0.0019272328354418278
1772003701447158300,7.429158203125,-0.003512854687869549,-0.0007111057639122009,-0.0015626855893060565
1772003701467122400,7.449122314453125,-0.0014310674741864204,0.0012511154636740685,-0.0007396608125418425
1772003701487086300,7.46908642578125,-0.000033694785088300705,-0.000815732404589653,0.0008119451813399792
1772003701507050200,7.48905029296875,-0.001954116392880678,0.0009887441992759705,-0.0010835467837750912
1772003701527014100,7.50901416015625,0.000026253052055835724,-0.0009453124366700649,0.00032209616620093584
1772003701546978600,7.528978515625,0.002010487485677004,-0.00026850681751966476,-0.001210495363920927
1772003701566942500,7.5489423828125,0.002184426411986351,0.0000654933974146843,0.0004329141229391098
1772003701586906400,7.56890625,-0.00010172789916396141,0.0017538424581289291,0.0004405924119055271
1772003701606870500,7.58887060546875,-0.0001038992777466774,0.00286471052095294,-0.0036657219752669334
1772003701626834400,7.60883447265625,-0.0000939713791012764,0.001675494946539402,0.000921589438803494
1772003701646798300,7.62879833984375,-0.00038569699972867966,-0.0007873116992413998,-0.003242212813347578
1772003701666762200,7.64876220703125,-0.00031007733196020126,0.0008330787532031536,0.0024115017149597406
1772003701686726400,7.668726318359375,-0.0007030637934803963,0.00023138755932450294,-0.0013433907879516482
1772003701706690300,7.688690185546875,-0.00209347577765584,0.0014984733425080776,-0.001434186939150095
1772003701726654200,7.708654296875,-0.0012552649714052677,0.0010602585971355438,0.0007835216820240021
1772003701746618400,7.728618408203125,-0.0006529605016112328,0.0015763579867780209,-0.002207893878221512
1772003701766582300,7.748582275390625,0.0013003216590732336,-0.0006930124945938587,-0.001510242815129459
1772003701786545200,7.768545166015625,0.0014254841953516006,0.00017574988305568695,-0.002616124227643013
1772003701806510300,7.78851025390625,-0.00041357986629009247,0.00018397439271211624,0.0003095505526289344
1772003701826473500,7.808473388671875,0.0023544663563370705,-0.00176240224391222,-0.0007934602908790112
1772003701846437400,7.828437255859375,0.0001616440713405609,-0.0016455892473459244,-0.002144798869267106
1772003701866401500,7.848401611328125,-0.0003062034957110882,0.001969114877283573,-0.0005676515283994377
1772003701886365400,7.868365478515625,0.0002540377900004387,0.000663259532302618,0.0001499574864283204
1772003701906329300,7.888329345703125,-0.0013234498910605907,0.0007057222537696362,0.0015352867776528
1772003701926293200,7.908293212890625,0.0013438588939607143,-0.002876151353120804,0.0012428038753569126
1772003701946257400,7.92825732421875,-0.0005316315218806267,0.004412895999848843,0.0022737672552466393
1772003701966221300,7.94822119140625,0.0016214281786233187,0.0004944866523146629,-0.000688787316903472
1772003701986185200,7.968185302734375,0.002030575880780816,0.0024631256237626076,0.004016825929284096
1772003702006149400,7.9881494140625,0.0006604050286114216,-0.0036039166152477264,-0.002060862258076668
1772003702026112000,8.008112060546875,0.00013060355558991432,-0.001737318467348814,0.0018783477135002613
1772003702046076200,8.028076171875,0.0029612064827233553,-0.0024668811820447445,-0.0006229505524970591
1772003702066040000,8.0480400390625,0.0012380369007587433,-0.003385426476597786,-0.0025801626034080982
1772003702086004000,8.06800390625,0.0013598711229860783,0.0031113531440496445,-0.001153495628386736
1772003702105967900,8.0879677734375,0.0008001064416021109,-0.0008271774277091026,-0.002004845067858696
1772003702125932000,8.10793212890625,0.0007254562806338072,-0.006717129610478878,-0.0001662366557866335
1772003702145896000,8.12789599609375,0.0013703349977731705,-0.0005749417468905449,-0.0019497898174449801
1772003702165859800,8.14785986328125,0.0016584517434239388,-0.0041895401664078236,-0.003196916077286005
1772003702185824000,8.167823974609375,-0.0014978833496570587,-0.002055071759968996,-0.0020548284519463778
1772003702205788200,8.1877880859375,-0.0008741244673728943,-0.00036115339025855064,0.000856968923471868
1772003702225752000,8.207751953125,0.00027964962646365166,-0.0026291762478649616,-0.00027851108461618423
1772003702245716000,8.227716064453125,0.001587804639711976,0.0006289011798799038,-0.0011522724526003003
1772003702265680100,8.24768017578125,0.003267597872763872,-0.0027405419386923313,-0.0001161779509857297
1772003702285644000,8.26764404296875,0.002630793023854494,-0.0035155252553522587,-0.0019953325390815735
1772003702305608000,8.28760791015625,0.0015132257249206305,0.0029673175886273384,0.0012229918502271175
1772003702325572000,8.307572021484376,-0.0002095676027238369,-0.0010724300518631935,-0.0003182967775501311
1772003702345536000,8.327535888671875,-0.0008657234720885754,-0.0011483137495815754,0.00017681322060525417
1772003702365500000,8.3475,-0.0007521174848079681,0.004644859582185745,-0.0005483949789777398
1772003702385464000,8.367464111328125,-0.000381269957870245,-0.0023963842540979385,-0.00046923442278057337
1772003702405428000,8.387427978515625,0.00212654797360301,-0.0013444270007312298,0.002779464703053236
1772003702425391900,8.407391845703126,-0.0008158711716532707,0.0006774985231459141,0.001389394048601389
1772003702445356000,8.42735595703125,0.0013454537838697433,-0.004625660367310047,0.0008277114247903228
1772003702465320200,8.4473203125,0.0004315553233027458,-0.0013814815320074558,0.0028405110351741314
1772003702485284000,8.4672841796875,0.0014259724412113428,0.004445332568138838,0.0027870279736816883
1772003702505248000,8.487248046875,-0.001033536158502102,-0.0010049152188003063,0.0021655093878507614
1772003702525212200,8.507212158203124,-0.002181288320571184,0.002253372687846422,-0.0036941817961633205
1772003702545176000,8.527176025390625,0.0011208574287593365,-0.008251023478806019,-0.0037714235950261354
1772003702565140000,8.547139892578125,0.0010068702977150679,0.00086924247443676,0.0005780479405075312
1772003702585104000,8.567103759765626,0.00003848923370242119,-0.004077582620084286,-0.002865416929125786
1772003702605068000,8.587068115234375,-0.0005216244608163834,-0.00043650809675455093,-0.0023469605948776007
1772003702625032000,8.607031982421875,0.0023016566410660744,-0.0003171986900269985,-0.0026484853588044643
1772003702644995800,8.626995849609376,-0.002513507381081581,-0.002943253144621849,0.0018153333803638816
1772003702664960300,8.646960205078125,-0.00022608181461691856,0.0005880985409021378,0.00011681206524372101
1772003702684924200,8.666924072265624,0.0015510322991758585,-0.004982610233128071,-0.002546141156926751
1772003702704888000,8.68688818359375,0.0013498193584382534,-0.00031400425359606743,0.002146370243281126
1772003702724852000,8.70685205078125,-0.0009069875814020634,-0.0028437403962016106,-0.0013549972791224718
1772003702744816000,8.726816162109374,0.003315218025818467,0.0026653637178242207,0.0006192430155351758
1772003702764779000,8.746779052734375,0.002087427070364356,0.004225443582981825,0.0015619299374520779
1772003702784743200,8.7667431640625,0.0005667433142662048,-0.003055635839700699,-0.0006844369927421212
1772003702804707000,8.78670703125,0.002217163098976016,0.0037585017271339893,-0.0010341122979298234
1772003702824671000,8.8066708984375,-0.0015725037083029747,-0.0019768704660236835,0.00014178745914250612
1772003702844635100,8.82663525390625,0.0013938318006694317,-0.0007160468958318233,0.0016936837928369641
1772003702864599000,8.84659912109375,0.002251886762678623,-0.0008844533003866673,-0.0008214621338993311
1772003702884563000,8.86656298828125,0.0013918466866016388,-0.0008044689893722534,-0.0023308033123612404
1772003702904526800,8.88652685546875,0.001191148767247796,-0.0019064852967858315,-0.004127086140215397
1772003702924491000,8.906490966796875,-0.0006474950350821018,0.0006679929792881012,-0.0009379733237437904
1772003702944455200,8.926455078125,0.0012290386948734522,-0.0002598497085273266,-0.0014859626535326242
1772003702964419000,8.946419189453126,0.0018592423293739557,-0.0013408171944320202,-0.00020386831602081656
1772003702984383200,8.96638330078125,-0.0008115707896649837,-0.0031043626368045807,-0.001295914757065475
1772003703004347100,8.98634716796875,-0.0008874498307704926,0.002256580628454685,0.0031743161380290985
1772003703024310500,9.006310546875,0.0014093611389398575,0.0005252505652606487,-0.000028484035283327103
1772003703044274700,9.026274658203125,0.0003635918255895376,0.000886374618858099,0.0037024845369160175
1772003703064238600,9.046238525390624,0.0021223551593720913,-0.0023071058094501495,-0.0010639666579663754
1772003703084202800,9.06620263671875,0.00009824754670262337,0.0009301397949457169,0.0001670544734224677
1772003703104166700,9.086166748046875,0.0022144466638565063,-0.0009267930872738361,-0.0011793997837230563
1772003703124130800,9.106130859375,0.00047277635894715786,0.00045590754598379135,-0.0004258268163539469
1772003703144094700,9.1260947265625,0.0014488878659904003,-0.00014755874872207642,-0.0016170821618288755
1772003703164058600,9.14605859375,0.00009801285341382027,-0.000305927824229002,0.0009618098847568035
1772003703184022800,9.166022705078126,-0.0004033064469695091,-0.002517928369343281,-0.0012825299054384232
1772003703203986700,9.185986572265625,-0.0002004043199121952,-0.0005502114072442055,-0.0014913332415744662
1772003703223950600,9.20595068359375,0.0002088756300508976,-0.0007680081762373447,0.00008524802979081869
1772003703243914500,9.22591455078125,-0.00045089516788721085,0.001452611293643713,0.0005345013923943043
1772003703263878700,9.245878662109375,-0.0007865699008107185,-0.0012379856780171394,-0.0016994443722069263
1772003703283842600,9.265842529296876,0.0016163333784788847,-0.0026073670014739037,0.0024353954941034317
1772003703303806500,9.285806396484375,-0.00013322476297616959,0.0002213669940829277,-0.0004414752474986017
1772003703323769600,9.30576953125,0.0004472623113542795,0.0018920446746051311,0.00028983294032514095
1772003703343733500,9.3257333984375,0.00020637642592191696,-0.0027374308556318283,0.0007986907148733735
1772003703363697700,9.34569775390625,0.00045406026765704155,0.000771951861679554,0.0003211013972759247
1772003703383661800,9.365661865234374,0.0005185792688280344,0.0013615917414426804,-0.000619188416749239
1772003703403625700,9.385625732421875,0.0011597794946283102,-0.0032889526337385178,0.0021191509440541267
1772003703423589600,9.405589599609375,-0.00042953575029969215,0.0003987913951277733,0.0007906754035502672
1772003703443553800,9.4255537109375,0.0004866232629865408,0.0021395469084382057,-0.0032710889354348183
1772003703463517700,9.445517578125,-0.0009377365931868553,-0.001510328147560358,0.0004524107789620757
1772003703483481600,9.465481689453124,-0.00006253831088542938,0.0013165408745408058,0.0010689743794500828
1772003703503445500,9.485445556640625,0.0015416420064866543,-0.00011428538709878922,-0.0012251818552613258
1772003703523409700,9.50540966796875,-0.003089857753366232,0.0034980522468686104,-0.0015290278242900968
1772003703543373600,9.52537353515625,0.002401716075837612,-0.0029503190889954567,-0.0011040191166102886
1772003703563337500,9.54533740234375,0.0002421368844807148,-0.0026089041493833065,-0.0013603662373498082
1772003703583301600,9.565301513671875,0.0001919497735798359,0.0010034055449068546,-0.0008156051044352353
1772003703603265800,9.585265869140626,-0.000012135598808526993,-0.0016247071325778961,-0.0009888840140774846
1772003703623229700,9.605229736328125,0.0006662136875092983,-0.0021609370596706867,-0.00012224097736179829
1772003703643193600,9.625193603515624,-0.0016048559918999672,-0.0017291754484176636,0.0008849425939843059
1772003703663157800,9.64515771484375,0.00012840982526540756,0.0011539091356098652,-0.0010315675754100084
1772003703683121700,9.66512158203125,0.0015048023778945208,-0.0013048737309873104,0.0006147198146209121
1772003703703085600,9.68508544921875,0.0012139545287936926,-0.0023499871604144573,-0.0009401130955666304
1772003703723049700,9.7050498046875,0.0003604500088840723,0.0011596190743148327,-0.0011424075346440077
1772003703743013600,9.725013671875,-0.0004314952529966831,-0.0008344096131622791,0.002177811460569501
1772003703762977500,9.7449775390625,0.00038667977787554264,0.0000668838620185852,0.0003068713704124093
1772003703782941700,9.764941650390625,-0.0010783392935991287,0.0008766269311308861,-0.0002934887888841331
1772003703802905600,9.784905517578125,-0.0003680232912302017,0.00040663592517375946,0.0009609564440324903
1772003703822869500,9.804869384765626,0.001434355042874813,0.0020262664183974266,-0.0010891016572713852
1772003703842833700,9.824833740234375,0.00023474451154470444,0.00014340784400701523,0.00035757338628172874
1772003703862797800,9.8447978515625,0.0005674248095601797,-0.000781516544520855,0.004768682178109884
1772003703882761700,9.86476171875,-0.0003758189268410206,0.0013464163057506084,0.00045351474545896053
1772003703902725600,9.8847255859375,0.000023392029106616974,-0.002374894917011261,0.00003982230555266142
1772003703922689800,9.904689697265624,-0.0001279846765100956,-0.0008897488005459309,0.0017383627127856016
1772003703942653700,9.92465380859375,0.001249463064596057,0.0037987809628248215,-0.0010056865867227316
1772003703962617600,9.94461767578125,-0.000686293002218008,-0.0014448491856455803,-0.0011594465468078852
1772003703982581500,9.96458154296875,0.00047005596570670605,0.004404973238706589,0.003955583553761244
1772003704002545700,9.984545654296875,0.000623723492026329,0.0012581069022417068,-0.0016443488420918584
1772003704022510300,10.00451025390625,-0.0022576595656573772,-0.001233380287885666,-0.00034954375587403774
1772003704042473200,10.02447314453125,-0.0004260432906448841,0.002650665119290352,0.002579806372523308
1772003704062437400,10.044437255859375,0.002484631258994341,-0.00043549714609980583,-0.0026702224276959896
1772003704082401300,10.0644013671875,0.002361596329137683,-0.0019264095462858677,-0.00008386361878365278
1772003704102365200,10.084365234375,0.0007919319905340672,0.0023324452340602875,-0.0009287212160415947
1772003704122329600,10.10432958984375,0.00023862719535827637,-0.0024784994311630726,-0.0007201284170150757
1772003704142293500,10.12429345703125,-0.0010148105211555958,0.0022779321298003197,-0.00032313051633536816
1772003704162257400,10.14425732421875,0.000760398106649518,-0.002785187680274248,0.0007090986473485827
1772003704182221300,10.16422119140625,0.0004838528111577034,0.001992955803871155,-0.002602299675345421
1772003704202185500,10.184185546875,0.0005995358806103468,0.00023285811766982079,0.0003870629006996751
1772003704222149400,10.2041494140625,0.0005378122441470623,-0.002580739092081785,0.0004872693680226803
1772003704242113300,10.22411328125,-0.002048383466899395,0.0028835348784923553,-0.00097746925894171
1772003704262077400,10.244077392578125,0.00013055885210633278,0.0004889587871730328,-0.0016905339434742928
1772003704282041300,10.264041259765625,0.001977322157472372,-0.00018328242003917694,0.0011327806860208511
1772003704302005200,10.284005126953126,0.00015661166980862617,-0.00010915473103523254,-0.002273187041282654
1772003704321969200,10.30396923828125,-0.0024665016680955887,-0.001977225299924612,-0.00015537842409685254
1772003704341933300,10.323933349609375,0.0012393963988870382,0.0005384967662394047,-0.00014070718316361308
1772003704361896200,10.343896240234375,0.0008069707546383142,-0.0018509565852582455,-0.00030103488825261593
1772003704381860400,10.3638603515625,-0.0026059276424348354,0.0008213762193918228,-0.0011048614978790283
1772003704401824500,10.383824462890624,0.00047567300498485565,-0.0002860059030354023,-0.0012016035616397858
1772003704421788400,10.403788330078125,-0.000188478734344244,-0.0002934667281806469,0.000943194143474102
1772003704441752300,10.42375244140625,-0.0009480472654104233,0.003555410075932741,-0.0014228606596589088
1772003704461716500,10.443716552734376,0.0007146866992115974,-0.0011984133161604404,-0.00010845111683011055
1772003704481680400,10.463680419921875,-0.0014961869455873966,0.003280933015048504,-0.0014551469357684255
1772003704501644300,10.483644287109374,-0.0012635746970772743,0.00042351754382252693,0.0021834997460246086
1772003704521608400,10.5036083984375,-0.0018670782446861267,0.0024356506764888763,0.00001330242957919836
1772003704541572400,10.523572265625,-0.0015494809485971928,0.0005075731314718723,-0.0012839286355301738
1772003704561536300,10.543536376953124,-0.0017015822231769562,0.0010524298995733261,0.0007701502181589603
1772003704581500400,10.56350048828125,-0.00040902430191636086,0.0002915910445153713,-0.0014803899684920907
1772003704601464300,10.58346435546875,-0.0026490725576877594,-0.005938956514000893,-0.0018597550224512815
1772003704621428200,10.60342822265625,-0.004280835390090942,0.05882319435477257,0.01823023334145546
1772003704641392400,10.623392333984375,-0.002217744942754507,0.018452556803822517,0.023605888709425926
1772003704661355300,10.643355224609374,-0.0008080783300101757,0.009728489443659782,0.013650736771523952
1772003704681319400,10.6633193359375,0.0010473423171788454,0.007399865426123142,-0.012031233869493008
1772003704701283300,10.683283447265625,0.002250388963147998,-0.022631671279668808,-0.009472298435866833
1772003704721247500,10.70324755859375,0.0005859748926013708,-0.09126875549554825,-0.033706992864608765
1772003704741211400,10.72321142578125,-0.0037480024620890617,0.05020847171545029,0.01477277372032404
