time,seconds_elapsed,z,y,x
1772025740040718000,0.076718017578125,0.8470001816749573,-0.18460460007190704,0.24771548807621002
1772025740050716000,0.0867158203125,0.8876118659973145,-0.2565707862377167,0.27293044328689575
1772025740060713000,0.096712890625,0.8990248441696167,-0.31441596150398254,0.27808791399002075
1772025740070710800,0.106710693359375,0.8641950488090515,-0.3391142189502716,0.25277823209762573
1772025740080708000,0.1167080078125,0.8228667974472046,-0.34751835465431213,0.228252112865448
1772025740090705000,0.126704833984375,0.8127301931381226,-0.3311922550201416,0.21152199804782867
1772025740100703000,0.136702880859375,0.8242105841636658,-0.29595276713371277,0.21093051135540009
1772025740110699800,0.14669970703125,0.8411850333213806,-0.25519701838493347,0.20661285519599915
1772025740120697900,0.15669775390625,0.8492895364761353,-0.20464065670967102,0.20405197143554688
1772025740130695000,0.16669482421875,0.8582203984260559,-0.15411823987960815,0.21361763775348663
1772025740140692000,0.17669189453125,0.8697050213813782,-0.10778403282165527,0.23667316138744354
1772025740150690000,0.18668994140625,0.8860206007957458,-0.06602207571268082,0.25743284821510315
1772025740160686800,0.196686767578125,0.8956351280212402,-0.05187642574310303,0.27202296257019043
1772025740170685000,0.206684814453125,0.891941487789154,-0.0787346363067627,0.2666395604610443
1772025740180682000,0.216681884765625,0.8545482754707336,-0.12566059827804565,0.2521139085292816
1772025740190679000,0.226678955078125,0.7916129231452942,-0.168734610080719,0.23705491423606873
1772025740200676900,0.2366767578125,0.7161080837249756,-0.1915629655122757,0.2337142378091812
1772025740210674000,0.246673828125,0.659930408000946,-0.19861777126789093,0.24445503950119019
1772025740220671000,0.2566708984375,0.6119034886360168,-0.17571485042572021,0.2592691481113434
1772025740230669000,0.2666689453125,0.573474645614624,-0.12615971267223358,0.26746416091918945
1772025740240665900,0.276665771484375,0.5504423379898071,-0.035678815096616745,0.27044957876205444
1772025740250664000,0.286663818359375,0.5447337031364441,0.08044120669364929,0.2783753275871277
1772025740260661000,0.296660888671875,0.5620219111442566,0.1975334733724594,0.2865158021450043
1772025740270658000,0.306657958984375,0.586353063583374,0.29693731665611267,0.2995786666870117
1772025740280656000,0.31665576171875,0.5989471077919006,0.37987402081489563,0.30870211124420166
1772025740290653000,0.32665283203125,0.5882153511047363,0.4434211850166321,0.3042396903038025
1772025740300650000,0.33664990234375,0.5673260688781738,0.48228150606155396,0.2893472909927368
1772025740310648000,0.34664794921875,0.5391258597373962,0.49830934405326843,0.26286932826042175
1772025740320644900,0.356644775390625,0.49571558833122253,0.505249559879303,0.22288039326667786
1772025740330643000,0.366642822265625,0.4442813992500305,0.502794086933136,0.1830381602048874
1772025740340640000,0.376639892578125,0.3985956609249115,0.5161583423614502,0.14485855400562286
1772025740350637000,0.386636962890625,0.37060216069221497,0.5523952841758728,0.10770764946937561
1772025740360635100,0.39663525390625,0.3624425232410431,0.5901356935501099,0.06304962933063507
1772025740370632000,0.4066318359375,0.36512941122055054,0.6124285459518433,-0.004356570076197386
1772025740380630000,0.416630126953125,0.36858537793159485,0.6128014326095581,-0.09139692783355713
1772025740390626800,0.426626708984375,0.36749792098999023,0.6009698510169983,-0.19481007754802704
1772025740400624000,0.4366240234375,0.37507620453834534,0.571559727191925,-0.30790600180625916
1772025740410622000,0.4466220703125,0.39692652225494385,0.5516871809959412,-0.408985435962677
1772025740420619000,0.456618896484375,0.4365959167480469,0.5386536717414856,-0.49997150897979736
1772025740430615800,0.46661572265625,0.49233224987983704,0.5378382205963135,-0.5665221214294434
1772025740440614000,0.47661376953125,0.5678560137748718,0.5306662917137146,-0.6122198104858398
1772025740450611000,0.48661083984375,0.6517671942710876,0.5204772353172302,-0.6166546940803528
1772025740460608300,0.496608154296875,0.7231577634811401,0.5019016861915588,-0.6094849109649658
1772025740470605000,0.50660498046875,0.7847427725791931,0.474287748336792,-0.5819265842437744
1772025740480602400,0.516602294921875,0.8378302454948425,0.43286919593811035,-0.5419456362724304
1772025740490600200,0.52660009765625,0.8909069299697876,0.3904562294483185,-0.4843914806842804
1772025740500597200,0.53659716796875,0.9320900440216064,0.35983121395111084,-0.4175000488758087
1772025740510595300,0.54659521484375,0.9606342911720276,0.3318645656108856,-0.3528735935688019
1772025740520592100,0.556592041015625,0.9687986969947815,0.2934226393699646,-0.30010998249053955
1772025740530589200,0.566589111328125,0.9635774493217468,0.2485991269350052,-0.26260021328926086
1772025740540587300,0.576587158203125,0.9487758874893188,0.20337919890880585,-0.23850449919700623
1772025740550584300,0.586584228515625,0.9141790866851807,0.18387538194656372,-0.23099391162395477
1772025740560582100,0.59658203125,0.8787283897399902,0.18482665717601776,-0.2280881404876709
1772025740570579200,0.6065791015625,0.8437492847442627,0.19987165927886963,-0.22315561771392822
1772025740580576300,0.616576171875,0.8263404965400696,0.23404507339000702,-0.22246240079402924
1772025740590574300,0.62657421875,0.8173519372940063,0.272264301776886,-0.2258295714855194
1772025740600571100,0.636571044921875,0.8151229023933411,0.31918734312057495,-0.2426477074623108
1772025740610568200,0.646568115234375,0.80765700340271,0.36729463934898376,-0.2765665352344513
1772025740620566000,0.65656591796875,0.8093550205230713,0.4185706377029419,-0.3155253827571869
1772025740630563300,0.666563232421875,0.8216066956520081,0.4668159782886505,-0.35567688941955566
1772025740640561200,0.67656103515625,0.8399572372436523,0.4984956383705139,-0.3811417818069458
1772025740650558200,0.68655810546875,0.8615996241569519,0.5150513648986816,-0.3892604410648346
1772025740660555000,0.696554931640625,0.8845589756965637,0.523542582988739,-0.378730833530426
1772025740670553000,0.706552978515625,0.9176757335662842,0.5123109221458435,-0.35560381412506104
1772025740680550100,0.716550048828125,0.9462178945541382,0.4800523519515991,-0.32729095220565796
1772025740690547200,0.726547119140625,0.9645405411720276,0.45032617449760437,-0.2940761148929596
1772025740700545300,0.736545166015625,0.9744629263877869,0.4345932900905609,-0.2530149817466736
1772025740710542000,0.7465419921875,0.9779936075210571,0.43076828122138977,-0.2170983850955963
1772025740720540200,0.7565400390625,0.9683340787887573,0.4446292519569397,-0.17532724142074585
1772025740730537200,0.766537109375,0.9625325798988342,0.46720027923583984,-0.1390981376171112
1772025740740534300,0.7765341796875,0.9635171890258789,0.4899071753025055,-0.10678254067897797
1772025740750532000,0.786531982421875,0.9705614447593689,0.5141390562057495,-0.08324665576219559
1772025740760529200,0.796529052734375,0.9844130873680115,0.5223962068557739,-0.07410721480846405
1772025740770526200,0.806526123046875,1.0060065984725952,0.523521900177002,-0.06973450630903244
1772025740780524300,0.816524169921875,1.0264277458190918,0.5289390087127686,-0.06446171551942825
1772025740790521000,0.82652099609375,1.038146734237671,0.5412619709968567,-0.06023913994431496
1772025740800519200,0.836519287109375,1.040385127067566,0.5608410239219666,-0.047775015234947205
1772025740810516200,0.84651611328125,1.031518578529358,0.5829211473464966,-0.0419309064745903
1772025740820513300,0.85651318359375,1.024824619293213,0.5936949253082275,-0.031019939109683037
1772025740830511000,0.866510986328125,1.0131502151489258,0.6018232703208923,-0.010300809517502785
1772025740840508200,0.876508056640625,1.0029596090316772,0.6122093200683594,0.012437526136636734
1772025740850506200,0.88650634765625,1.0011779069900513,0.6244900822639465,0.0454707108438015
1772025740860503300,0.89650341796875,0.9949970245361328,0.6243755221366882,0.08024147897958755
1772025740870500400,0.906500244140625,0.9952161908149719,0.6198890805244446,0.10902505367994308
1772025740880498200,0.916498291015625,0.9982452392578125,0.6326994299888611,0.14414627850055695
1772025740890495200,0.9264951171875,1.0175484418869019,0.6587058901786804,0.1759975552558899
1772025740900492300,0.9364921875,1.0484105348587036,0.6525859236717224,0.192093163728714
1772025740910490400,0.946490478515625,1.0616670846939087,0.6066499352455139,0.18949739634990692
1772025740920487200,0.956487060546875,1.0439238548278809,0.551578938961029,0.1665947437286377
1772025740930485200,0.9664853515625,1.0152422189712524,0.5013693571090698,0.1522013545036316
1772025740940482000,0.97648193359375,0.9981492757797241,0.4775322377681732,0.17209570109844208
1772025740950479400,0.986479248046875,1.0001018047332764,0.493734210729599,0.21600216627120972
1772025740960477200,0.996477294921875,1.0089269876480103,0.5046813488006592,0.2705053687095642
1772025740970474200,1.00647412109375,1.0144673585891724,0.4897991120815277,0.32582831382751465
1772025740980471000,1.016470947265625,1.0107426643371582,0.479014128446579,0.3679523468017578
1772025740990469000,1.02646923828125,1.0010621547698975,0.4636588990688324,0.39631256461143494
1772025741000466200,1.036466064453125,0.9760569930076599,0.4379729628562927,0.3921159505844116
1772025741010464300,1.04646435546875,0.9304517507553101,0.39337435364723206,0.3556574285030365
1772025741020461300,1.05646142578125,0.8618021011352539,0.35047614574432373,0.3002902865409851
1772025741030458000,1.0664580078125,0.7826970815658569,0.3297021687030792,0.2354101538658142
1772025741040456200,1.076456298828125,0.7044065594673157,0.3224756717681885,0.17489834129810333
1772025741050453200,1.086453369140625,0.6448122262954712,0.3262555003166199,0.1220083013176918
1772025741060450300,1.0964501953125,0.6108211874961853,0.33337146043777466,0.08407077193260193
1772025741070448000,1.1064482421875,0.5985502004623413,0.34214097261428833,0.053134024143218994
1772025741080445200,1.116445068359375,0.6054163575172424,0.35331931710243225,0.03379841148853302
1772025741090443000,1.126443115234375,0.6397281885147095,0.3758242428302765,0.0230982918292284
1772025741100440300,1.1364404296875,0.6945594549179077,0.39417076110839844,0.027073059231042862
1772025741110437000,1.14643701171875,0.752042829990387,0.41758131980895996,0.037099260836839676
1772025741120435200,1.156435302734375,0.7986300587654114,0.4341789186000824,0.048227548599243164
1772025741130432300,1.166432373046875,0.8316895961761475,0.43723687529563904,0.05502373352646828
1772025741140430300,1.176430419921875,0.8582391738891602,0.43376463651657104,0.046659279614686966
1772025741150427100,1.18642724609375,0.8821048140525818,0.4318765103816986,0.04013559967279434
1772025741160424200,1.196424072265625,0.9051363468170166,0.4191170334815979,0.036554448306560516
1772025741170422300,1.20642236328125,0.9403276443481445,0.3993937075138092,0.02510485053062439
1772025741180419300,1.21641943359375,0.9689563512802124,0.36849650740623474,0.01229344867169857
1772025741190416100,1.226416015625,0.9912640452384949,0.32690513134002686,0.0012716904748231173
1772025741200414200,1.236414306640625,1.0076237916946411,0.2925570011138916,0.0029888967983424664
1772025741210411300,1.246411376953125,1.0198369026184082,0.28601011633872986,0.012304234318435192
1772025741220409000,1.2564091796875,1.017628788948059,0.30789995193481445,0.015792177990078926
1772025741230406400,1.266406494140625,1.0165411233901978,0.3089573383331299,0.003128779586404562
1772025741240403200,1.2764033203125,1.0197166204452515,0.293256938457489,-0.022894032299518585
1772025741250401300,1.2864013671875,1.015771746635437,0.27099719643592834,-0.06029573455452919
1772025741260398000,1.296398193359375,1.0083321332931519,0.25404855608940125,-0.11055225133895874
1772025741270395400,1.3063955078125,0.9823836088180542,0.21780303120613098,-0.17798414826393127
1772025741280393200,1.316393310546875,0.9284894466400146,0.17778238654136658,-0.26237836480140686
1772025741290390300,1.326390380859375,0.843574583530426,0.13016177713871002,-0.36520397663116455
1772025741300388000,1.33638818359375,0.726638674736023,0.0883120745420456,-0.4845428764820099
1772025741310385200,1.34638525390625,0.5896233916282654,0.04991903528571129,-0.6072924733161926
1772025741320382200,1.35638232421875,0.4650399088859558,0.029322680085897446,-0.7197950482368469
1772025741330380300,1.36638037109375,0.3776118755340576,0.041703518480062485,-0.7990312576293945
1772025741340377000,1.376377197265625,0.3231680691242218,0.1029847264289856,-0.8382737636566162
1772025741350374100,1.3863740234375,0.29669544100761414,0.19261561334133148,-0.8305738568305969
1772025741360372200,1.396372314453125,0.31990301609039307,0.2696020007133484,-0.7867430448532104
1772025741370369300,1.406369384765625,0.39745306968688965,0.3313099443912506,-0.7128505110740662
1772025741380367400,1.416367431640625,0.5114850997924805,0.3769959509372711,-0.6103105545043945
1772025741390364200,1.4263642578125,0.6428167223930359,0.4081052243709564,-0.49121078848838806
1772025741400361200,1.436361328125,0.7718556523323059,0.4245308041572571,-0.3706023395061493
1772025741410359000,1.446359130859375,0.8689174652099609,0.41916990280151367,-0.2638263404369354
1772025741420356400,1.4563564453125,0.9223133325576782,0.38838669657707214,-0.18066994845867157
1772025741430353200,1.466353271484375,0.9415930509567261,0.3503710925579071,-0.12490575015544891
1772025741440351200,1.476351318359375,0.9445645809173584,0.3152032494544983,-0.08883669227361679
1772025741450348000,1.48634814453125,0.9307527542114258,0.2942391335964203,-0.07126889377832413
1772025741460346600,1.4963466796875,0.8896966576576233,0.28776633739471436,-0.07471102476119995
1772025741470344000,1.506343994140625,0.8293995261192322,0.24626007676124573,-0.10003788024187088
1772025741480340700,1.5163408203125,0.7620161771774292,0.18697704374790192,-0.1325463056564331
1772025741490338800,1.5263388671875,0.7041655778884888,0.12165351212024689,-0.1560460925102234
1772025741500335600,1.536335693359375,0.6570595502853394,0.04505300521850586,-0.1657637059688568
1772025741510333000,1.5463330078125,0.6275357007980347,-0.014499576762318611,-0.15611585974693298
1772025741520330800,1.556330810546875,0.5989634394645691,-0.053923413157463074,-0.1255883127450943
1772025741530327800,1.566327880859375,0.5711207389831543,-0.08123967051506042,-0.0970337763428688
1772025741540325600,1.57632568359375,0.5491405725479126,-0.07435939460992813,-0.057732440531253815
1772025741550322700,1.58632275390625,0.5476739406585693,-0.039043720811605453,-0.013035142794251442
1772025741560319700,1.59631982421875,0.5572871565818787,-0.0032542976550757885,0.02074519172310829
1772025741570317800,1.60631787109375,0.5627589225769043,0.03168101608753204,0.0394713394343853
1772025741580314600,1.616314697265625,0.5574904084205627,0.046244245022535324,0.04314810037612915
1772025741590311700,1.626311767578125,0.5556105971336365,0.04120169207453728,0.04639948904514313
1772025741600309500,1.6363095703125,0.558862566947937,0.03339836373925209,0.05375433713197708
1772025741610306800,1.646306884765625,0.5648079514503479,0.03129265457391739,0.06437176465988159
1772025741620305000,1.656304931640625,0.5889666080474854,0.033261530101299286,0.08274251222610474
1772025741630301700,1.6663017578125,0.6083433032035828,0.03505543991923332,0.1078069731593132
1772025741640298500,1.676298583984375,0.6302083730697632,0.03647463768720627,0.14059261977672577
1772025741650296600,1.686296630859375,0.6535692811012268,0.051184870302677155,0.1847333163022995
1772025741660294000,1.6962939453125,0.6809588074684143,0.05940711498260498,0.2328587770462036
1772025741670290700,1.706290771484375,0.7113738656044006,0.06684939563274384,0.27120450139045715
1772025741680288800,1.716288818359375,0.7432695031166077,0.07001402974128723,0.31399163603782654
1772025741690285600,1.72628564453125,0.7914091944694519,0.08354834467172623,0.3622116446495056
1772025741700283600,1.73628369140625,0.8274747729301453,0.06974278390407562,0.3913988173007965
1772025741710280700,1.74628076171875,0.8246876001358032,0.026129549369215965,0.3807133436203003
1772025741720277800,1.75627783203125,0.7678160071372986,-0.025544030591845512,0.3306315243244171
1772025741730275600,1.766275634765625,0.6924617290496826,-0.06328167021274567,0.2702564001083374
1772025741740272600,1.776272705078125,0.6314306259155273,-0.08288386464118958,0.22736035287380219
1772025741750269700,1.786269775390625,0.5942172408103943,-0.08308890461921692,0.20876729488372803
1772025741760267800,1.796267822265625,0.5696756839752197,-0.07354599982500076,0.19559742510318756
1772025741770264600,1.8062646484375,0.5726644992828369,-0.04890620335936546,0.20259861648082733
1772025741780262700,1.8162626953125,0.6185848712921143,-0.02842915803194046,0.23270538449287415
1772025741790259700,1.826259765625,0.6932884454727173,-0.02584763616323471,0.2776201367378235
1772025741800256800,1.8362568359375,0.7763415575027466,-0.05202331766486168,0.3114830255508423
1772025741810254800,1.8462548828125,0.8238930106163025,-0.0834721177816391,0.324529230594635
1772025741820251600,1.856251708984375,0.8329195380210876,-0.10405568778514862,0.3125061094760895
1772025741830248700,1.866248779296875,0.818236231803894,-0.12589921057224274,0.288677841424942
1772025741840246800,1.876246826171875,0.7908533215522766,-0.10000423341989517,0.27307385206222534
1772025741850243800,1.886243896484375,0.7522232532501221,-0.06369751691818237,0.27117615938186646
1772025741860241700,1.89624169921875,0.7175784111022949,-0.018875185400247574,0.2843734323978424
1772025741870238700,1.90623876953125,0.6873199939727783,0.030678601935505867,0.3197043240070343
1772025741880235800,1.91623583984375,0.6752758622169495,0.06647921353578568,0.37412282824516296
1772025741890233900,1.92623388671875,0.6771110892295837,0.11465096473693848,0.43340399861335754
1772025741900230700,1.936230712890625,0.6889477372169495,0.1674870103597641,0.48495346307754517
1772025741910227700,1.946227783203125,0.7048909068107605,0.21547789871692657,0.5155090689659119
1772025741920225500,1.9562255859375,0.7248584628105164,0.26434797048568726,0.530978798866272
1772025741930222800,1.966222900390625,0.7395430207252502,0.339128702878952,0.5308747887611389
1772025741940220700,1.976220703125,0.731702983379364,0.43021759390830994,0.5125325322151184
1772025741950217700,1.9862177734375,0.7060855031013489,0.5130826830863953,0.47074753046035767
1772025741960214500,1.996214599609375,0.6669750809669495,0.5704426169395447,0.41847577691078186
1772025741970212600,2.006212646484375,0.6353262662887573,0.6192150712013245,0.36591315269470215
1772025741980210000,2.0162099609375,0.6041083931922913,0.6665064096450806,0.30989035964012146
1772025741990206700,2.026206787109375,0.5653482675552368,0.6889646649360657,0.23641623556613922
1772025742000204800,2.036204833984375,0.5206178426742554,0.6731113791465759,0.15529261529445648
1772025742010201600,2.04620166015625,0.4699285626411438,0.6469135880470276,0.06441384553909302
1772025742020199700,2.05619970703125,0.4173247516155243,0.6024683713912964,-0.044825829565525055
1772025742030196700,2.06619677734375,0.35532042384147644,0.5206702947616577,-0.17211127281188965
1772025742040193800,2.07619384765625,0.3037360608577728,0.4314413070678711,-0.2934552729129791
1772025742050191600,2.086191650390625,0.28485631942749023,0.37294697761535645,-0.3909757137298584
1772025742060188700,2.096188720703125,0.30035164952278137,0.3498952090740204,-0.45942747592926025
1772025742070185700,2.106185791015625,0.33894988894462585,0.33605584502220154,-0.5065836310386658
1772025742080183800,2.116183837890625,0.3860771954059601,0.3129039406776428,-0.5325403809547424
1772025742090180600,2.1261806640625,0.44008004665374756,0.28680023550987244,-0.5316276550292969
1772025742100178700,2.1361787109375,0.5036481618881226,0.2790411114692688,-0.4995083212852478
1772025742110175500,2.146175537109375,0.5755547881126404,0.28237953782081604,-0.4355965852737427
1772025742120172800,2.1561728515625,0.6332039833068848,0.2936042249202728,-0.3583361506462097
1772025742130171000,2.1661708984375,0.6682241559028625,0.2845372259616852,-0.28196513652801514
1772025742140167700,2.176167724609375,0.6783063411712646,0.2877122461795807,-0.2036122977733612
1772025742150164500,2.18616455078125,0.6659010052680969,0.2912607491016388,-0.13640262186527252
1772025742160162600,2.19616259765625,0.6369298100471497,0.29067564010620117,-0.08977333456277847
1772025742170159900,2.206159912109375,0.5958219170570374,0.27876928448677063,-0.07592908293008804
1772025742180157700,2.21615771484375,0.5456415414810181,0.2590097188949585,-0.08947765082120895
1772025742190154800,2.22615478515625,0.48952409625053406,0.2386818528175354,-0.12006918340921402
1772025742200151800,2.23615185546875,0.43736663460731506,0.23284980654716492,-0.16053777933120728
1772025742210150000,2.24614990234375,0.3920140266418457,0.24452438950538635,-0.20848487317562103
1772025742220146700,2.256146728515625,0.3731894791126251,0.2642222046852112,-0.2593419551849365
1772025742230143700,2.266143798828125,0.38288041949272156,0.29213228821754456,-0.2926144003868103
1772025742240141600,2.2761416015625,0.4062744081020355,0.32320070266723633,-0.32129397988319397
1772025742250139000,2.286138916015625,0.43112483620643616,0.3378901481628418,-0.34726178646087646
1772025742260136700,2.29613671875,0.4598137438297272,0.347177118062973,-0.3587128520011902
1772025742270133800,2.3061337890625,0.49038925766944885,0.350083589553833,-0.3560042977333069
1772025742280130600,2.316130615234375,0.5164083242416382,0.34158891439437866,-0.33966606855392456
1772025742290128600,2.326128662109375,0.5369223356246948,0.32398489117622375,-0.3023909330368042
1772025742300125700,2.336125732421875,0.5623062252998352,0.31382226943969727,-0.2509858012199402
1772025742310122800,2.346122802734375,0.5868914127349854,0.3053724765777588,-0.19642414152622223
1772025742320120800,2.356120849609375,0.6235410571098328,0.2906225621700287,-0.143914595246315
1772025742330117600,2.36611767578125,0.6657057404518127,0.27475932240486145,-0.10438576340675354
1772025742340115700,2.37611572265625,0.7008845210075378,0.2635982930660248,-0.08137152343988419
1772025742350112800,2.38611279296875,0.7364798188209534,0.24881817400455475,-0.07403990626335144
1772025742360109800,2.39610986328125,0.7508553266525269,0.24584846198558807,-0.07525590807199478
1772025742370107600,2.406107666015625,0.7549329996109009,0.2572391629219055,-0.07811647653579712
1772025742380104700,2.416104736328125,0.7502000331878662,0.2756567597389221,-0.08032290637493134
1772025742390101800,2.426101806640625,0.7373727560043335,0.30266273021698,-0.07542821019887924
1772025742400099800,2.436099853515625,0.72858065366745,0.33693069219589233,-0.06266980618238449
1772025742410096600,2.4460966796875,0.71629798412323,0.3600371479988098,-0.04358161240816116
1772025742420094700,2.4560947265625,0.6963440179824829,0.3615836501121521,-0.014937452971935272
1772025742430091500,2.466091552734375,0.6637693643569946,0.3687596321105957,0.017164504155516624
1772025742440088800,2.4760888671875,0.6288046836853027,0.3693908154964447,0.043702635914087296
1772025742450086700,2.486086669921875,0.5915372371673584,0.36475664377212524,0.06697666645050049
1772025742460087000,2.496087158203125,0.5698401927947998,0.3629843294620514,0.08859807252883911
1772025742470084000,2.506083984375,0.5553265810012817,0.3681420087814331,0.10891491174697876
1772025742480082000,2.51608203125,0.5434885621070862,0.3857308626174927,0.12135187536478043
1772025742490079200,2.526079345703125,0.5405488610267639,0.41683077812194824,0.1332831233739853
1772025742500076000,2.536075927734375,0.5585837960243225,0.4521717131137848,0.13700994849205017
1772025742510074000,2.54607421875,0.591185986995697,0.47009798884391785,0.13698691129684448
1772025742520071000,2.55607080078125,0.6094112992286682,0.4648294746875763,0.12574490904808044
1772025742530069000,2.566069091796875,0.6083070039749146,0.4344469904899597,0.10830007493495941
1772025742540066000,2.576066162109375,0.5877596139907837,0.3840778172016144,0.08502297848463058
1772025742550063000,2.58606298828125,0.5541491508483887,0.33259615302085876,0.06484413892030716
1772025742560061000,2.59606103515625,0.503102719783783,0.29851752519607544,0.054528381675481796
1772025742570058000,2.60605810546875,0.43944573402404785,0.27178409695625305,0.040585268288850784
1772025742580055000,2.616054931640625,0.38545680046081543,0.24353887140750885,0.028541920706629753
1772025742590053000,2.62605322265625,0.34283220767974854,0.23064479231834412,0.015623794868588448
1772025742600050000,2.6360498046875,0.31488338112831116,0.24194937944412231,0.004056354984641075
1772025742610048000,2.646048095703125,0.29859063029289246,0.27465054392814636,-0.010923256166279316
1772025742620045300,2.65604541015625,0.2898136377334595,0.30196499824523926,-0.024686738848686218
1772025742630042000,2.6660419921875,0.29577749967575073,0.31868380308151245,-0.03865562379360199
1772025742640040200,2.676040283203125,0.3099484443664551,0.32820990681648254,-0.04670156538486481
1772025742650037000,2.686037109375,0.33463144302368164,0.32758307456970215,-0.0457707941532135
1772025742660034300,2.696034423828125,0.35828110575675964,0.31466755270957947,-0.03407232463359833
1772025742670032100,2.7060322265625,0.3845832943916321,0.2861861288547516,-0.018603414297103882
1772025742680029200,2.716029296875,0.423699289560318,0.2529168725013733,0.01531460601836443
1772025742690027000,2.726027099609375,0.4645642638206482,0.2182476669549942,0.052828554064035416
1772025742700024000,2.736024169921875,0.4970974326133728,0.18372884392738342,0.09148913621902466
1772025742710021000,2.746021240234375,0.5228277444839478,0.15081794559955597,0.1158420592546463
1772025742720019200,2.756019287109375,0.54709792137146,0.1216675266623497,0.13483867049217224
1772025742730016000,2.76601611328125,0.564142644405365,0.10726298391819,0.14634005725383759
1772025742740013000,2.776012939453125,0.5646454691886902,0.09661965817213058,0.14368516206741333
1772025742750011000,2.786010986328125,0.553032636642456,0.0909612625837326,0.13258804380893707
1772025742760008200,2.79600830078125,0.5298988223075867,0.08299468457698822,0.10954289883375168
1772025742770006300,2.80600634765625,0.5109249353408813,0.08156967163085938,0.08900953084230423
1772025742780003000,2.816003173828125,0.5005066394805908,0.09177277982234955,0.0745815858244896
1772025742790000000,2.826000244140625,0.5048998594284058,0.12355470657348633,0.07954871654510498
1772025742799998000,2.835998046875,0.5287543535232544,0.1605396270751953,0.10897078365087509
1772025742809995300,2.845995361328125,0.5599561333656311,0.19404806196689606,0.1460668295621872
1772025742819992000,2.855991943359375,0.5852532386779785,0.20139437913894653,0.16854576766490936
1772025742829990100,2.865990234375,0.5923288464546204,0.18056504428386688,0.16490288078784943
1772025742839987000,2.875987060546875,0.5847625732421875,0.1473812460899353,0.14626501500606537
1772025742849985000,2.885985107421875,0.5622408390045166,0.1269444078207016,0.116196408867836
1772025742859982000,2.895982177734375,0.536431074142456,0.11738153547048569,0.08494741469621658
1772025742869979100,2.905979248046875,0.5102914571762085,0.10506779700517654,0.05167660862207413
1772025742879977000,2.91597705078125,0.4863957166671753,0.09204068034887314,0.01170335989445448
1772025742889974000,2.92597412109375,0.45309877395629883,0.06520649045705795,-0.03531288728117943
1772025742899971000,2.93597119140625,0.40031516551971436,0.02407449670135975,-0.10173212736845016
1772025742909969200,2.94596923828125,0.3236410915851593,-0.009960966184735298,-0.18754896521568298
1772025742919966000,2.955966064453125,0.24481123685836792,-0.039181970059871674,-0.2952466607093811
1772025742929963000,2.965962890625,0.1747766137123108,-0.05809794366359711,-0.42161545157432556
1772025742939961000,2.975961181640625,0.13434423506259918,-0.04596990719437599,-0.5398339629173279
1772025742949958100,2.985958251953125,0.11442791670560837,-0.004716556053608656,-0.6375072002410889
1772025742959956200,2.995956298828125,0.12409519404172897,0.07116436213254929,-0.7074484825134277
1772025742969953000,3.005953125,0.1716933399438858,0.15134361386299133,-0.7317777872085571
1772025742979950000,3.0159501953125,0.25432589650154114,0.2363937944173813,-0.7162070870399475
1772025742989948200,3.0259482421875,0.36065682768821716,0.33146387338638306,-0.6893655061721802
1772025742999945200,3.0359453125,0.4813113510608673,0.4078747630119324,-0.6589846611022949
1772025743009942000,3.04594189453125,0.5913441777229309,0.4507193863391876,-0.6339610815048218
1772025743019940000,3.055940185546875,0.6837630867958069,0.43288764357566833,-0.6069957613945007
1772025743029937200,3.065937255859375,0.7538137435913086,0.3888212740421295,-0.5700854063034058
1772025743039935200,3.075935302734375,0.801157534122467,0.34343940019607544,-0.5188784599304199
1772025743049932000,3.08593212890625,0.8279473781585693,0.297623872756958,-0.45345720648765564
1772025743059929000,3.09592919921875,0.8456909656524658,0.24770744144916534,-0.3796181380748749
1772025743069927000,3.105927001953125,0.8489543795585632,0.19228710234165192,-0.31289422512054443
1772025743079924200,3.11592431640625,0.844035267829895,0.13746246695518494,-0.257822185754776
1772025743089921000,3.125921142578125,0.8213867545127869,0.08821718394756317,-0.21794702112674713
1772025743099919000,3.135919189453125,0.7903955578804016,0.0352059043943882,-0.19293594360351562
1772025743109916000,3.145916015625,0.7505121231079102,-0.014439035207033157,-0.1829361766576767
1772025743119914000,3.1559140625,0.6913095116615295,-0.06462710350751877,-0.17848816514015198
1772025743129911300,3.165911376953125,0.6349871158599854,-0.0918152779340744,-0.1656559854745865
1772025743139908000,3.175908203125,0.5816993713378906,-0.10264208912849426,-0.1521710753440857
1772025743149906200,3.18590625,0.5390994548797607,-0.10449530929327011,-0.13495385646820068
1772025743159903000,3.195903076171875,0.5058102011680603,-0.09143757075071335,-0.11720362305641174
1772025743169900300,3.205900390625,0.48171746730804443,-0.06464521586894989,-0.09533128142356873
1772025743179898000,3.215898193359375,0.4700624346733093,-0.03161909058690071,-0.07286752015352249
1772025743189895200,3.225895263671875,0.4613022208213806,-0.007771394681185484,-0.04363306611776352
1772025743199892000,3.23589208984375,0.4621078372001648,0.01101427711546421,-0.008176272734999657
1772025743209890000,3.24589013671875,0.4656050503253937,0.024520467966794968,0.029487941414117813
1772025743219887000,3.25588720703125,0.47905799746513367,0.029813233762979507,0.07469695806503296
1772025743229885200,3.26588525390625,0.4893265664577484,0.024281462654471397,0.1229606419801712
1772025743239882000,3.275882080078125,0.4988260865211487,0.012134785763919353,0.17385657131671906
1772025743249879000,3.285879150390625,0.499496191740036,0.0019834977574646473,0.22538667917251587
1772025743259877000,3.295877197265625,0.4954676330089569,-0.0065537975169718266,0.2772272229194641
1772025743269874200,3.305874267578125,0.4829978048801422,-0.011627042666077614,0.3208902180194855
1772025743279871000,3.31587109375,0.4641871154308319,-0.008460544049739838,0.35540667176246643
1772025743289869000,3.325869140625,0.4509964883327484,0.008454982191324234,0.3843178153038025
1772025743299866000,3.3358662109375,0.45544129610061646,0.04454347863793373,0.41401153802871704
1772025743309864000,3.345864013671875,0.4683542847633362,0.05687790736556053,0.4210520386695862
1772025743319861200,3.355861328125,0.45601505041122437,0.0443623811006546,0.39064300060272217
1772025743329858000,3.365858154296875,0.4191438853740692,0.0176987387239933,0.31356674432754517
1772025743339856100,3.375856201171875,0.3755955994129181,-0.002601473592221737,0.22866836190223694
1772025743349853000,3.38585302734375,0.3370206952095032,-0.0020532002672553062,0.15463000535964966
1772025743359850200,3.395850341796875,0.30663537979125977,0.018858740106225014,0.1061844453215599
1772025743369848000,3.40584814453125,0.28272849321365356,0.06069691851735115,0.08639311045408249
1772025743379845000,3.41584521484375,0.26593247056007385,0.10022808611392975,0.09134978801012039
1772025743389843000,3.425843017578125,0.27050167322158813,0.13274969160556793,0.12152247130870819
1772025743399840000,3.435840087890625,0.2979585826396942,0.14823810756206512,0.16521801054477692
1772025743409837000,3.445837158203125,0.33387491106987,0.14180351793766022,0.21387988328933716
1772025743419835100,3.455835205078125,0.35923245549201965,0.13701915740966797,0.25401613116264343
1772025743429832000,3.46583203125,0.3660012185573578,0.1346437633037567,0.2806200385093689
1772025743439829000,3.4758291015625,0.36120566725730896,0.14399439096450806,0.30440232157707214
1772025743449827000,3.4858271484375,0.3533414602279663,0.17038623988628387,0.32590606808662415
1772025743459823900,3.495823974609375,0.34562230110168457,0.2102670818567276,0.3596680462360382
1772025743469822000,3.505822021484375,0.32853612303733826,0.2544223964214325,0.3937508463859558
1772025743479819000,3.515819091796875,0.3093070387840271,0.2833360731601715,0.42776793241500854
1772025743489816000,3.525816162109375,0.27522140741348267,0.2935047745704651,0.45553091168403625
1772025743499814100,3.535814208984375,0.23621486127376556,0.29938581585884094,0.4686983823776245
1772025743509811000,3.54581103515625,0.2018386721611023,0.30690711736679077,0.48147571086883545
1772025743519808000,3.55580810546875,0.1760941594839096,0.3018241822719574,0.4827124774456024
1772025743529805800,3.565805908203125,0.15183423459529877,0.2862986922264099,0.477364182472229
1772025743539803100,3.57580322265625,0.13261686265468597,0.2747237980365753,0.464438796043396
1772025743549801000,3.585801025390625,0.12128664553165436,0.2759179472923279,0.4480445086956024
1772025743559798000,3.595798095703125,0.11071097105741501,0.2865508794784546,0.42015108466148376
1772025743569794800,3.605794921875,0.10437597334384918,0.28594255447387695,0.38351672887802124
1772025743579793000,3.61579296875,0.09540778398513794,0.28413721919059753,0.3315182626247406
1772025743589790000,3.6257900390625,0.08260904252529144,0.2801669239997864,0.2610470652580261
1772025743599787000,3.635787109375,0.06993985176086426,0.2708994150161743,0.1807735413312912
1772025743609784800,3.645784912109375,0.06974543631076813,0.2592208981513977,0.08691362291574478
1772025743619782000,3.655781982421875,0.07316440343856812,0.241940438747406,-0.01954731158912182
1772025743629779000,3.665779052734375,0.0856068804860115,0.19581018388271332,-0.13220979273319244
1772025743639777000,3.675777099609375,0.09163334965705872,0.14671668410301208,-0.2509274184703827
1772025743649774000,3.685774169921875,0.08627693355083466,0.09221801161766052,-0.37114381790161133
1772025743659772000,3.69577197265625,0.08312162011861801,0.05188630521297455,-0.47924259305000305
1772025743669769000,3.70576904296875,0.09752590209245682,0.01979517750442028,-0.5616713166236877
1772025743679766000,3.71576611328125,0.12834587693214417,-0.014091416262090206,-0.61747807264328
1772025743689764000,3.72576416015625,0.16167142987251282,-0.04396957531571388,-0.6375718712806702
1772025743699761000,3.735760986328125,0.20944908261299133,-0.050488729029893875,-0.6238802671432495
1772025743709758000,3.745758056640625,0.27199438214302063,-0.03107275627553463,-0.5785980820655823
1772025743719755800,3.755755859375,0.34613093733787537,-0.014877807348966599,-0.518759548664093
1772025743729753000,3.765753173828125,0.4194191098213196,-0.0027454006485641003,-0.4507060945034027
1772025743739751000,3.7757509765625,0.48127928376197815,0.015820560976862907,-0.3807890713214874
1772025743749748000,3.785748046875,0.5194723606109619,0.051918596029281616,-0.31506264209747314
1772025743759744800,3.795744873046875,0.5301521420478821,0.09916920214891434,-0.26655930280685425
1772025743769742800,3.805742919921875,0.5069156885147095,0.14153698086738586,-0.24427303671836853
1772025743779740000,3.815739990234375,0.4829850494861603,0.1669808328151703,-0.24012328684329987
1772025743789737000,3.825737060546875,0.455685019493103,0.15673013031482697,-0.25113385915756226
1772025743799735000,3.835735107421875,0.4127820134162903,0.14593900740146637,-0.257576584815979
1772025743809731800,3.84573193359375,0.36173397302627563,0.1281285285949707,-0.24410392343997955
1772025743819729000,3.85572900390625,0.3169476091861725,0.11149603128433228,-0.21812905371189117
1772025743829727000,3.86572705078125,0.290736585855484,0.10452109575271606,-0.17709432542324066
1772025743839724000,3.87572412109375,0.28026583790779114,0.10605693608522415,-0.13561932742595673
1772025743849721900,3.885721923828125,0.28582093119621277,0.1037481278181076,-0.1071968600153923
1772025743859719000,3.895718994140625,0.300637423992157,0.11635206639766693,-0.07706426084041595
1772025743869716000,3.905716064453125,0.31855273246765137,0.14231406152248383,-0.05024270713329315
1772025743879714000,3.915714111328125,0.3478730618953705,0.17360273003578186,-0.03663688153028488
1772025743889710800,3.9257109375,0.39136049151420593,0.20587526261806488,-0.024898534640669823
1772025743899708200,3.935708251953125,0.4373122751712799,0.23162296414375305,-0.015755103901028633
1772025743909706000,3.9457060546875,0.4718775451183319,0.2505568563938141,0.0015294152544811368
1772025743919703000,3.955703125,0.49567049741744995,0.25713858008384705,0.025089601054787636
1772025743929700900,3.965700927734375,0.5135623216629028,0.25350484251976013,0.055773939937353134
1772025743939698000,3.975697998046875,0.5255939364433289,0.2410271316766739,0.09402519464492798
1772025743949695000,3.985695068359375,0.525863766670227,0.2339709848165512,0.12854121625423431
1772025743959693000,3.995693115234375,0.5152566432952881,0.23014375567436218,0.16606515645980835
1772025743969689900,4.00568994140625,0.5003004670143127,0.2430029958486557,0.20492926239967346
1772025743979687000,4.01568701171875,0.48362505435943604,0.2635343670845032,0.22821354866027832
1772025743989685000,4.02568505859375,0.46918758749961853,0.28178897500038147,0.2365369349718094
1772025743999682000,4.03568212890625,0.44611531496047974,0.2987027168273926,0.22966092824935913
1772025744009680100,4.04568017578125,0.4311307966709137,0.3129379451274872,0.2104824334383011
1772025744019677000,4.055677001953125,0.41560325026512146,0.3281427323818207,0.18266651034355164
1772025744029674000,4.065674072265625,0.4094754457473755,0.3552161753177643,0.15216737985610962
1772025744039671800,4.075671875,0.39986008405685425,0.38799595832824707,0.12201534956693649
1772025744049669000,4.085669189453125,0.3993906080722809,0.39983871579170227,0.09217076003551483
1772025744059666000,4.095666015625,0.393446147441864,0.4147596061229706,0.07224711775779724
1772025744069664000,4.1056640625,0.38960781693458557,0.4300907850265503,0.06677107512950897
1772025744079660800,4.115660888671875,0.3991185128688812,0.4499499797821045,0.07485003769397736
1772025744089659000,4.125658935546875,0.4263781011104584,0.47476181387901306,0.08892364054918289
1772025744099656000,4.135656005859375,0.47245559096336365,0.49355119466781616,0.11372512578964233
1772025744109653000,4.145653076171875,0.5310837030410767,0.49266576766967773,0.13173888623714447
1772025744119651000,4.155651123046875,0.5674270391464233,0.44939231872558594,0.1274903416633606
1772025744129647900,4.16564794921875,0.5726319551467896,0.3848934769630432,0.09889225661754608
1772025744139645000,4.17564501953125,0.5539554357528687,0.321063369512558,0.07252989709377289
1772025744149643000,4.18564306640625,0.5323861837387085,0.2788909673690796,0.06198090314865112
1772025744159640000,4.19564013671875,0.5107256770133972,0.26670700311660767,0.06428399682044983
1772025744169636900,4.205636962890625,0.48593273758888245,0.2664577066898346,0.07083305716514587
1772025744179635000,4.215635009765625,0.45048391819000244,0.25904375314712524,0.07613833993673325
1772025744189632000,4.225632080078125,0.4072674810886383,0.25347113609313965,0.07843557745218277
1772025744199630000,4.235630126953125,0.363844633102417,0.24859406054019928,0.0767575204372406
1772025744209627000,4.245626953125,0.3256167471408844,0.24461881816387177,0.06589482724666595
1772025744219624000,4.2556240234375,0.2862997055053711,0.2381071299314499,0.041216105222702026
1772025744229621800,4.265621826171875,0.25001901388168335,0.23197834193706512,0.002974115777760744
1772025744239619000,4.275619140625,0.22962586581707,0.2488236278295517,-0.030480246990919113
1772025744249616000,4.285615966796875,0.22373351454734802,0.28989920020103455,-0.04366709291934967
1772025744259614000,4.295614013671875,0.23228758573532104,0.3321813941001892,-0.04301302134990692
1772025744269611000,4.305611083984375,0.24830947816371918,0.36795201897621155,-0.04572891816496849
1772025744279609000,4.315609130859375,0.2708784341812134,0.384024441242218,-0.0521460697054863
1772025744289606000,4.32560595703125,0.30013006925582886,0.39138200879096985,-0.05501248687505722
1772025744299603000,4.33560302734375,0.33494076132774353,0.38711801171302795,-0.050773266702890396
1772025744309601000,4.34560107421875,0.3696729242801666,0.380021870136261,-0.030620409175753593
1772025744319598000,4.35559814453125,0.3940970301628113,0.37172770500183105,-0.001275035087019205
1772025744329595000,4.365594970703125,0.42067429423332214,0.351638525724411,0.030176501721143723
1772025744339593000,4.375593017578125,0.44654664397239685,0.30410081148147583,0.04970839247107506
1772025744349590000,4.385590087890625,0.4821295142173767,0.2512114942073822,0.07038351893424988
1772025744359587000,4.395587158203125,0.5445089936256409,0.24115487933158875,0.10212546586990356
1772025744369585200,4.405585205078125,0.6176788210868835,0.26305335760116577,0.14815300703048706
1772025744379582000,4.41558203125,0.6921493411064148,0.30108118057250977,0.19055800139904022
1772025744389580000,4.425580078125,0.7536664605140686,0.32972651720046997,0.2171977311372757
1772025744399576800,4.435576904296875,0.7931952476501465,0.3464743494987488,0.2307300567626953
1772025744409574100,4.44557421875,0.8264514803886414,0.35547327995300293,0.22641518712043762
1772025744419572000,4.455572021484375,0.8573095798492432,0.3406658470630646,0.2120056301355362
1772025744429569000,4.465569091796875,0.8704378008842468,0.31272944808006287,0.18054330348968506
1772025744439565800,4.47556591796875,0.8669496178627014,0.29540613293647766,0.12483078241348267
1772025744449564000,4.48556396484375,0.8341552019119263,0.28277432918548584,0.05022657662630081
1772025744459557600,4.4955576171875,0.7823402285575867,0.22383908927440643,-0.038765083998441696
1772025744469555500,4.505555419921875,0.7046532034873962,0.1462547332048416,-0.15701642632484436
1772025744479552500,4.515552490234375,0.5809863805770874,0.06971974670886993,-0.29419904947280884
1772025744489549300,4.52554931640625,0.4391666352748871,-0.010778363794088364,-0.45526760816574097
1772025744499547400,4.53554736328125,0.29213085770606995,-0.10202465206384659,-0.6145949363708496
1772025744509544400,4.54554443359375,0.18151842057704926,-0.15823808312416077,-0.7504099011421204
1772025744519541500,4.55554150390625,0.10414960980415344,-0.15591154992580414,-0.8524606227874756
1772025744529539300,4.565539306640625,0.056043583899736404,-0.07267700135707855,-0.9102571606636047
1772025744539536400,4.575536376953125,0.04964693635702133,0.06611763685941696,-0.9208093881607056
1772025744549533400,4.585533447265625,0.09426604211330414,0.16553042829036713,-0.9011025428771973
1772025744559531500,4.595531494140625,0.18501324951648712,0.24488995969295502,-0.8589351177215576
1772025744569528600,4.605528564453125,0.31136375665664673,0.32605016231536865,-0.7954893112182617
1772025744579526400,4.6155263671875,0.4338443875312805,0.3723108470439911,-0.7366230487823486
1772025744589523500,4.6255234375,0.5274497866630554,0.3947641849517822,-0.6787772178649902
1772025744599520500,4.6355205078125,0.5838262438774109,0.40290653705596924,-0.6249038577079773
1772025744609518600,4.6455185546875,0.6278114914894104,0.4119471609592438,-0.5635322332382202
1772025744619515400,4.655515380859375,0.661395788192749,0.4009142220020294,-0.49519526958465576
1772025744629512400,4.665512451171875,0.6800621747970581,0.3656068742275238,-0.43024158477783203
1772025744639510300,4.67551025390625,0.6902695298194885,0.3144717812538147,-0.37959542870521545
1772025744649507600,4.685507568359375,0.6761747002601624,0.24441176652908325,-0.3297062814235687
1772025744659505400,4.69550537109375,0.6322370767593384,0.1671002060174942,-0.28824540972709656
1772025744669502500,4.70550244140625,0.5614932179450989,0.08063334226608276,-0.26275575160980225
1772025744679499300,4.715499267578125,0.47425761818885803,-0.005078895948827267,-0.2523745000362396
1772025744689497300,4.725497314453125,0.37967437505722046,-0.08592744916677475,-0.25392577052116394
1772025744699494400,4.735494384765625,0.29619118571281433,-0.1454421728849411,-0.2536083161830902
1772025744709491500,4.745491455078125,0.22905333340168,-0.17468994855880737,-0.2463960349559784
1772025744719489500,4.755489501953125,0.1771097034215927,-0.17745643854141235,-0.23957781493663788
1772025744729486600,4.765486572265625,0.1289963573217392,-0.16896262764930725,-0.22449253499507904
1772025744739483400,4.7754833984375,0.09636411815881729,-0.13738739490509033,-0.19329281151294708
1772025744749481500,4.7854814453125,0.07530230283737183,-0.08643858879804611,-0.15987418591976166
1772025744759478500,4.795478515625,0.06686221063137054,-0.03571389615535736,-0.12396358698606491
1772025744769476400,4.805476318359375,0.06651397049427032,0.0012594294967129827,-0.08004714548587799
1772025744779473700,4.8154736328125,0.07236041128635406,0.03237180784344673,-0.030558153986930847
1772025744789470500,4.825470458984375,0.08156795054674149,0.03693216294050217,0.02176431566476822
1772025744799468500,4.835468505859375,0.09855093061923981,0.01750093884766102,0.07196303457021713
1772025744809465300,4.84546533203125,0.11229382455348969,-0.015170792117714882,0.11331786215305328
1772025744819462700,4.855462646484375,0.12569458782672882,-0.05293068662285805,0.1529875099658966
1772025744829460500,4.86546044921875,0.1361546516418457,-0.0959477424621582,0.17892056703567505
1772025744839457500,4.87545751953125,0.14452655613422394,-0.1413293331861496,0.19204357266426086
1772025744849455400,4.885455322265625,0.15210756659507751,-0.17178767919540405,0.19661207497119904
1772025744859452400,4.895452392578125,0.1646403968334198,-0.18312102556228638,0.2018156349658966
1772025744869449500,4.905449462890625,0.18141776323318481,-0.1740998774766922,0.20375201106071472
1772025744879447600,4.915447509765625,0.1919761300086975,-0.15722236037254333,0.20538106560707092
1772025744889444400,4.9254443359375,0.213151216506958,-0.14123590290546417,0.21490426361560822
1772025744899441400,4.93544140625,0.23606771230697632,-0.1277049034833908,0.23390139639377594
1772025744909439500,4.945439453125,0.2665455639362335,-0.12152355909347534,0.26360929012298584
1772025744919436500,4.9554365234375,0.30612707138061523,-0.11373594403266907,0.3044739067554474
1772025744929433300,4.965433349609375,0.33097246289253235,-0.14126214385032654,0.3474104702472687
1772025744939431400,4.975431396484375,0.30176612734794617,-0.18627169728279114,0.3582511246204376
1772025744949428500,4.985428466796875,0.22302144765853882,-0.18632781505584717,0.3465721607208252
1772025744959426300,4.99542626953125,0.1669003814458847,-0.18990230560302734,0.3286706507205963
1772025744969423600,5.005423583984375,0.13512739539146423,-0.18224206566810608,0.2986616790294647
1772025744979420400,5.01542041015625,0.11510628461837769,-0.15369245409965515,0.273466557264328
1772025744989418500,5.02541845703125,0.09132158011198044,-0.10178960859775543,0.23914191126823425
1772025744999415300,5.035415283203125,0.05998309701681137,-0.05366336181759834,0.19187025725841522
1772025745009412600,5.04541259765625,0.03284723684191704,-0.025176741182804108,0.13059324026107788
1772025745019410400,5.055410400390625,0.005290178116410971,-0.03606401011347771,0.046571582555770874
1772025745029407500,5.065407470703125,-0.014848916791379452,-0.06657996773719788,-0.046308208256959915
1772025745039405300,5.0754052734375,-0.029777798801660538,-0.09351731091737747,-0.13081564009189606
1772025745049402400,5.08540234375,-0.04042588174343109,-0.10899978876113892,-0.19596374034881592
1772025745059399400,5.0953994140625,-0.026866132393479347,-0.09255583584308624,-0.215812548995018
1772025745069397500,5.1053974609375,-0.00799822248518467,-0.061411406844854355,-0.1983833909034729
1772025745079394600,5.11539453125,0.011849785223603249,-0.02044772543013096,-0.14352786540985107
1772025745089391400,5.125391357421875,0.018507832661271095,0.00727071613073349,-0.07220067828893661
1772025745099389400,5.135389404296875,0.032532040029764175,0.030666319653391838,0.011346420273184776
1772025745109386500,5.145386474609375,0.058128420263528824,0.06289908289909363,0.1055031567811966
1772025745119383600,5.155383544921875,0.08711399883031845,0.09565304219722748,0.20046508312225342
1772025745129381400,5.16538134765625,0.10167616605758667,0.10431629419326782,0.2672387659549713
1772025745139378400,5.17537841796875,0.09581348299980164,0.10196526348590851,0.30748099088668823
1772025745149376500,5.18537646484375,0.07643299549818039,0.08442016690969467,0.31585392355918884
1772025745159373600,5.19537353515625,0.03894554078578949,0.06172071397304535,0.30867722630500793
1772025745169370400,5.205370361328125,0.0009743290720507503,0.04639935865998268,0.27757224440574646
1772025745179368400,5.215368408203125,-0.03777892515063286,0.06290456652641296,0.22502915561199188
1772025745189365500,5.225365478515625,-0.05983523279428482,0.0960589051246643,0.17385877668857574
1772025745199362600,5.235362548828125,-0.058784082531929016,0.123017817735672,0.10229324549436569
1772025745209360400,5.2453603515625,-0.053565651178359985,0.13880443572998047,0.015216668136417866
1772025745219357400,5.255357421875,-0.045268572866916656,0.1341974288225174,-0.08711503446102142
1772025745229354500,5.2653544921875,-0.04287037253379822,0.11409234255552292,-0.19367675483226776
1772025745239352600,5.2753525390625,-0.04685499519109726,0.0802246630191803,-0.3002282381057739
1772025745249349400,5.285349365234375,-0.050803396850824356,0.04291803389787674,-0.3869769871234894
1772025745259347500,5.295347412109375,-0.03838694095611572,0.015558848157525063,-0.4465518891811371
1772025745269344500,5.305344482421875,-0.014022009447216988,-0.0006081691244617105,-0.4709949791431427
1772025745279341600,5.315341552734375,0.016268519684672356,-0.0049704271368682384,-0.4609186351299286
1772025745289339600,5.325339599609375,0.06261418759822845,-0.007171643432229757,-0.4211900234222412
1772025745299335400,5.33533544921875,0.11281504482030869,-0.000267131719738245,-0.3550671935081482
1772025745309332500,5.34533251953125,0.16783969104290009,0.005331138148903847,-0.2755745053291321
1772025745319329500,5.35532958984375,0.2176716923713684,0.008027056232094765,-0.19520004093647003
1772025745329327400,5.365327392578125,0.25092241168022156,0.009939317591488361,-0.12637215852737427
1772025745339324400,5.375324462890625,0.2705637812614441,0.01213029958307743,-0.06931446492671967
1772025745349322500,5.385322509765625,0.275395005941391,0.008294815197587013,-0.03627529367804527
1772025745359319600,5.395319580078125,0.264217734336853,0.00995662808418274,-0.019153296947479248
1772025745369316600,5.405316650390625,0.24227841198444366,0.018805697560310364,-0.014190290123224258
1772025745379314400,5.415314453125,0.20800165832042694,0.04699951782822609,-0.015278192237019539
1772025745389311500,5.4253115234375,0.17141781747341156,0.08037185668945312,-0.02419845014810562
1772025745399308500,5.43530859375,0.14028440415859222,0.1045384481549263,-0.04295269772410393
1772025745409306600,5.445306640625,0.12767742574214935,0.11337999254465103,-0.06796543300151825
1772025745419303400,5.455303466796875,0.12415537983179092,0.11647671461105347,-0.09334855526685715
1772025745429301500,5.465301513671875,0.1311095803976059,0.11683380603790283,-0.11267132312059402
1772025745439298300,5.47529833984375,0.14156754314899445,0.13525915145874023,-0.12691710889339447
1772025745449295600,5.485295654296875,0.15287591516971588,0.1561368852853775,-0.14528042078018188
1772025745459293400,5.49529345703125,0.16254612803459167,0.1667192280292511,-0.1576278954744339
1772025745469290200,5.505290283203125,0.1816149353981018,0.1720319241285324,-0.15346688032150269
1772025745479287000,5.515287109375,0.20755039155483246,0.16883692145347595,-0.13488121330738068
1772025745489285000,5.52528515625,0.2326781302690506,0.16166511178016663,-0.10357869416475296
1772025745499282200,5.5352822265625,0.2572375535964966,0.1446528434753418,-0.06710430234670639
1772025745509279200,5.545279296875,0.2804207503795624,0.11485926806926727,-0.02554010972380638
1772025745519277000,5.555277099609375,0.3082718253135681,0.09693273156881332,0.024568064138293266
1772025745529274000,5.565274169921875,0.33091461658477783,0.09100841730833054,0.0863240584731102
1772025745539272200,5.575272216796875,0.3482919931411743,0.09209977835416794,0.14774613082408905
1772025745549269200,5.585269287109375,0.351253867149353,0.09122641384601593,0.19486938416957855
1772025745559266300,5.595266357421875,0.3434758484363556,0.0851173922419548,0.23494355380535126
1772025745569264000,5.60526416015625,0.3255249559879303,0.08385223150253296,0.2577795386314392
1772025745579261200,5.61526123046875,0.2995074689388275,0.08179600536823273,0.27667492628097534
1772025745589258200,5.62525830078125,0.278734028339386,0.07708802819252014,0.2878589928150177
1772025745599256300,5.63525634765625,0.24984405934810638,0.0594608336687088,0.28819215297698975
1772025745609253000,5.645253173828125,0.20984217524528503,0.055988192558288574,0.2800304591655731
1772025745619250200,5.655250244140625,0.1672782003879547,0.09595558792352676,0.2713181972503662
1772025745629248300,5.665248291015625,0.10791009664535522,0.16618672013282776,0.2672176659107208
1772025745639245300,5.675245361328125,0.0444624163210392,0.2346017211675644,0.2577970027923584
1772025745649243100,5.6852431640625,-0.0184272900223732,0.29253825545310974,0.24471935629844666
1772025745659240200,5.695240234375,-0.05698134005069733,0.33951082825660706,0.2372846156358719
1772025745669237200,5.7052373046875,-0.08639910817146301,0.34219443798065186,0.2202615588903427
1772025745679235300,5.7152353515625,-0.13327579200267792,0.3248559534549713,0.18679147958755493
1772025745689232100,5.725232177734375,-0.19503723084926605,0.30028340220451355,0.1368846446275711
1772025745699229200,5.735229248046875,-0.25518229603767395,0.28222501277923584,0.07998008280992508
1772025745709227300,5.745227294921875,-0.3007354736328125,0.2783795893192291,0.027736850082874298
1772025745719224300,5.755224365234375,-0.3283849358558655,0.2773561477661133,-0.016643663868308067
1772025745729222400,5.765222412109375,-0.35840561985969543,0.2665117383003235,-0.053985580801963806
1772025745739219200,5.77521923828125,-0.3706633746623993,0.2539783716201782,-0.07369562983512878
1772025745749216300,5.78521630859375,-0.3540814518928528,0.23798005282878876,-0.06955721229314804
1772025745759214000,5.795214111328125,-0.3027295768260956,0.2230256050825119,-0.03513958677649498
1772025745769211400,5.80521142578125,-0.2259301394224167,0.21011385321617126,0.01287720538675785
1772025745779208200,5.815208251953125,-0.14500465989112854,0.20137202739715576,0.059286247938871384
1772025745789206300,5.825206298828125,-0.06756683439016342,0.20031589269638062,0.09822298586368561
1772025745799203000,5.835203125,-0.0090926019474864,0.19507558643817902,0.1220894381403923
1772025745809200400,5.845200439453125,0.03183874115347862,0.1766548752784729,0.12761463224887848
1772025745819198200,5.8551982421875,0.06342250108718872,0.14243166148662567,0.12339378893375397
1772025745829195300,5.8651953125,0.09094102680683136,0.08631855249404907,0.0960310772061348
1772025745839193000,5.875193115234375,0.12280921638011932,0.017617518082261086,0.06367447227239609
1772025745849190100,5.885190185546875,0.1554582715034485,-0.05524318292737007,0.04161323979496956
1772025745859187200,5.895187255859375,0.18078173696994781,-0.10389860719442368,0.024563414976000786
1772025745869185300,5.905185302734375,0.1965414434671402,-0.11763215065002441,0.02274581789970398
1772025745879182000,5.91518212890625,0.21510474383831024,-0.10128513723611832,0.0452660396695137
1772025745889179100,5.92517919921875,0.24571634829044342,-0.07663480192422867,0.09243934601545334
1772025745899177200,5.93517724609375,0.2934825122356415,-0.043264325708150864,0.1622309386730194
1772025745909175000,5.945175048828125,0.34427592158317566,-0.01571689359843731,0.2463546097278595
1772025745919173000,5.955173095703125,0.39380699396133423,-0.010168729349970818,0.33246394991874695
1772025745929170200,5.965170166015625,0.41755053400993347,-0.04949266463518143,0.3945637047290802
1772025745939168300,5.975168212890625,0.4183121919631958,-0.11990131437778473,0.435295969247818
1772025745949165000,5.9851650390625,0.4025983512401581,-0.19634978473186493,0.4708191454410553
1772025745959162000,5.995162109375,0.3822193145751953,-0.25691673159599304,0.4925636053085327
1772025745969160200,6.00516015625,0.34746628999710083,-0.298658162355423,0.5098138451576233
1772025745979157200,6.0151572265625,0.3203316032886505,-0.30647799372673035,0.5144948959350586
1772025745989154000,6.025154052734375,0.2881524860858917,-0.29926156997680664,0.5073589086532593
1772025745999152000,6.035152099609375,0.25991418957710266,-0.2830357253551483,0.4843955338001251
1772025746009149400,6.0451494140625,0.2404380589723587,-0.27679452300071716,0.44208061695098877
1772025746019146200,6.055146240234375,0.20342864096164703,-0.291521817445755,0.3740893304347992
1772025746029144300,6.065144287109375,0.14547517895698547,-0.3212205767631531,0.28354424238204956
1772025746039141000,6.07514111328125,0.06813857704401016,-0.33961689472198486,0.17633388936519623
1772025746049139200,6.08513916015625,-0.014195705763995647,-0.3307677209377289,0.07248308509588242
1772025746059136300,6.09513623046875,-0.0941760316491127,-0.2766067385673523,-0.018568262457847595
1772025746069133300,6.10513330078125,-0.1629396378993988,-0.18378347158432007,-0.09056002646684647
1772025746079131100,6.115131103515625,-0.20966960489749908,-0.06717031449079514,-0.14557507634162903
1772025746089128200,6.125128173828125,-0.22981511056423187,0.05221989378333092,-0.18765562772750854
1772025746099125200,6.135125244140625,-0.2227039486169815,0.14689341187477112,-0.21205897629261017
1772025746109123300,6.145123291015625,-0.18984849750995636,0.23317351937294006,-0.2249758541584015
1772025746119120100,6.1551201171875,-0.1379176676273346,0.2893395721912384,-0.2205779105424881
1772025746129118200,6.1651181640625,-0.08487477898597717,0.3184715509414673,-0.20066849887371063
1772025746139115000,6.175114990234375,-0.0409693643450737,0.322610080242157,-0.17651255428791046
1772025746149112300,6.1851123046875,-0.01601678691804409,0.31370723247528076,-0.1499929577112198
1772025746159110400,6.1951103515625,0.0025936495512723923,0.2980702221393585,-0.11881852895021439
1772025746169107200,6.205107177734375,0.016446957364678383,0.27001920342445374,-0.08537899702787399
1772025746179104300,6.215104248046875,0.0326903760433197,0.23189154267311096,-0.058292780071496964
1772025746189102000,6.22510205078125,0.04752274975180626,0.1844121813774109,-0.03301852196455002
1772025746199099400,6.235099365234375,0.05584113299846649,0.12946316599845886,-0.018024126067757607
1772025746209096200,6.24509619140625,0.047153204679489136,0.07529021054506302,-0.005893755704164505
1772025746219094300,6.25509423828125,0.02244652807712555,0.0219204630702734,-0.0010582536924630404
1772025746229091000,6.265091064453125,-0.0110268983989954,-0.02896493673324585,-0.0007111735176295042
1772025746239089200,6.275089111328125,-0.051625724881887436,-0.09125334024429321,0.004616746678948402
1772025746249086200,6.285086181640625,-0.10793810337781906,-0.1541144847869873,0.00247123371809721
1772025746259083300,6.295083251953125,-0.17987275123596191,-0.2087620198726654,-0.002488104859367013
1772025746269081000,6.3050810546875,-0.2664397358894348,-0.2490200251340866,-0.005236952565610409
1772025746279078100,6.315078125,-0.35572540760040283,-0.2787158787250519,-0.011843455955386162
1772025746289075200,6.3250751953125,-0.426993727684021,-0.30324944853782654,-0.020648930221796036
1772025746299073300,6.3350732421875,-0.4773900508880615,-0.32018449902534485,-0.03573440760374069
1772025746309070000,6.345070068359375,-0.5030433535575867,-0.3256833255290985,-0.051560841500759125
1772025746319067100,6.355067138671875,-0.5163410902023315,-0.3254260718822479,-0.06921893358230591
1772025746329065200,6.365065185546875,-0.5149936079978943,-0.31720224022865295,-0.09678258746862411
1772025746339062300,6.375062255859375,-0.5049212574958801,-0.3259528577327728,-0.13131152093410492
1772025746349060400,6.385060302734375,-0.4924476742744446,-0.3428884446620941,-0.17481261491775513
1772025746359057200,6.39505712890625,-0.47626549005508423,-0.3540058135986328,-0.21456001698970795
1772025746369054200,6.40505419921875,-0.4600449204444885,-0.37195292115211487,-0.24743840098381042
1772025746379052300,6.41505224609375,-0.44545692205429077,-0.3847419321537018,-0.2631680965423584
1772025746389049300,6.42504931640625,-0.42988017201423645,-0.3942432701587677,-0.2546160817146301
1772025746399046100,6.435046142578125,-0.40939727425575256,-0.41406598687171936,-0.2277384102344513
1772025746409044200,6.445044189453125,-0.38070663809776306,-0.4269128739833832,-0.18714909255504608
1772025746419041300,6.455041259765625,-0.3514062762260437,-0.45626598596572876,-0.14755667746067047
1772025746429038300,6.465038330078125,-0.33009448647499084,-0.49107205867767334,-0.11884720623493195
1772025746439036200,6.4750361328125,-0.32848459482192993,-0.5260800719261169,-0.11104334145784378
1772025746449033200,6.485033203125,-0.3540048897266388,-0.5629147291183472,-0.12749621272087097
1772025746459031000,6.495031005859375,-0.386486679315567,-0.5824058651924133,-0.14657483994960785
1772025746469028600,6.505028564453125,-0.42346981167793274,-0.5729827284812927,-0.1654680371284485
1772025746479025700,6.515025634765625,-0.456368625164032,-0.5309697985649109,-0.16547735035419464
1772025746489023700,6.525023681640625,-0.4702187478542328,-0.4661906659603119,-0.1365266591310501
1772025746499020800,6.535020751953125,-0.4660996198654175,-0.41606172919273376,-0.09507907927036285
1772025746509017600,6.545017578125,-0.45191454887390137,-0.37217992544174194,-0.04422256723046303
1772025746519015700,6.555015625,-0.4210655689239502,-0.3401719331741333,0.007750353775918484
1772025746529012700,6.5650126953125,-0.3871266841888428,-0.32171446084976196,0.05660305544734001
1772025746539009800,6.575009765625,-0.3700092136859894,-0.32969167828559875,0.08666295558214188
1772025746549007600,6.585007568359375,-0.38342463970184326,-0.35099223256111145,0.0883738175034523
1772025746559004700,6.595004638671875,-0.4189869165420532,-0.37225356698036194,0.06536756455898285
1772025746569002800,6.605002685546875,-0.4758845567703247,-0.38292384147644043,0.029567761346697807
1772025746578999800,6.614999755859375,-0.5377652645111084,-0.3818740248680115,-0.01699441485106945
1772025746588996600,6.62499658203125,-0.5883066058158875,-0.35876938700675964,-0.05978494882583618
1772025746598994700,6.63499462890625,-0.6161766052246094,-0.32634857296943665,-0.09541698545217514
1772025746608991700,6.64499169921875,-0.6326040029525757,-0.28087303042411804,-0.12159013003110886
1772025746618988800,6.65498876953125,-0.643631637096405,-0.2605946660041809,-0.1416916698217392
1772025746628986600,6.664986572265625,-0.6338415145874023,-0.25306767225265503,-0.14673775434494019
1772025746638983700,6.674983642578125,-0.6111423373222351,-0.2274097353219986,-0.12723834812641144
1772025746648980700,6.684980712890625,-0.5812525153160095,-0.1629505157470703,-0.08225198090076447
1772025746658978800,6.694978759765625,-0.5272031426429749,-0.07727661728858948,-0.010375123471021652
1772025746668975600,6.7049755859375,-0.4614080786705017,0.015157178044319153,0.07709571719169617
1772025746678973700,6.7149736328125,-0.40954115986824036,0.09456038475036621,0.15362884104251862
1772025746688970800,6.724970703125,-0.38065579533576965,0.14115837216377258,0.19966986775398254
1772025746698967800,6.7349677734375,-0.36704036593437195,0.15155507624149323,0.22003905475139618
1772025746708966000,6.7449658203125,-0.373179167509079,0.13607841730117798,0.22256778180599213
1772025746718962700,6.754962646484375,-0.40342018008232117,0.10649335384368896,0.19309085607528687
1772025746728959700,6.764959716796875,-0.4654027819633484,0.07248537242412567,0.13874918222427368
1772025746738957600,6.77495751953125,-0.5403569340705872,0.024847276508808136,0.07206788659095764
1772025746748955000,6.784954833984375,-0.6211244463920593,-0.014904436655342579,-0.004733679350465536
1772025746758951700,6.79495166015625,-0.6934079527854919,-0.054319486021995544,-0.08533292263746262
1772025746768949800,6.80494970703125,-0.7419599890708923,-0.10253629088401794,-0.1670486181974411
1772025746778946600,6.814946533203125,-0.7672832012176514,-0.15379200875759125,-0.2444848120212555
1772025746788944600,6.824944580078125,-0.7640966176986694,-0.1925109475851059,-0.31561264395713806
1772025746798941700,6.834941650390625,-0.7496537566184998,-0.22570058703422546,-0.3834763765335083
1772025746808938800,6.844938720703125,-0.7298799157142639,-0.23687931895256042,-0.4387708902359009
1772025746818936800,6.854936767578125,-0.7032403349876404,-0.22465382516384125,-0.4787268340587616
1772025746828933600,6.86493359375,-0.6735461354255676,-0.1887374073266983,-0.5105272531509399
1772025746838930700,6.8749306640625,-0.6320335865020752,-0.12360687553882599,-0.5275520086288452
1772025746848928800,6.8849287109375,-0.5754936933517456,-0.0524163544178009,-0.5119884610176086
1772025746858925800,6.89492578125,-0.5163919925689697,0.0018596639856696129,-0.4870232045650482
1772025746868922600,6.904922607421875,-0.4754616916179657,0.03289150446653366,-0.45236626267433167
1772025746878920700,6.914920654296875,-0.451084703207016,0.052408214658498764,-0.4139980971813202
1772025746888917800,6.924917724609375,-0.4444747269153595,0.0543779656291008,-0.37336465716362
1772025746898915800,6.934915771484375,-0.44399455189704895,0.030053718015551567,-0.3378852307796478
1772025746908912600,6.94491259765625,-0.4608122706413269,-0.012484496459364891,-0.3104116916656494
1772025746918909700,6.95490966796875,-0.4919337034225464,-0.050608713179826736,-0.29527348279953003
1772025746928907500,6.964907470703125,-0.5337987542152405,-0.08569297194480896,-0.281356543302536
1772025746938904800,6.97490478515625,-0.5861314535140991,-0.11348038911819458,-0.270260751247406
1772025746948901600,6.984901611328125,-0.6277888417243958,-0.12214517593383789,-0.2599659860134125
1772025746958899700,6.994899658203125,-0.6549695730209351,-0.12064608186483383,-0.24786457419395447
1772025746968896500,7.004896484375,-0.6641780734062195,-0.12392131239175797,-0.24131858348846436
1772025746978893800,7.014893798828125,-0.6584078073501587,-0.13043832778930664,-0.24577778577804565
1772025746988891600,7.0248916015625,-0.6424905061721802,-0.14487668871879578,-0.2628794312477112
1772025746998888700,7.034888671875,-0.6126551032066345,-0.1638043075799942,-0.2815156877040863
1772025747008886800,7.04488671875,-0.5791480541229248,-0.16428494453430176,-0.2906064987182617
1772025747018883600,7.054883544921875,-0.5427775382995605,-0.1473293900489807,-0.30731067061424255
1772025747028880600,7.064880615234375,-0.5008428692817688,-0.15018931031227112,-0.3090025782585144
1772025747038878700,7.074878662109375,-0.4545171856880188,-0.14808808267116547,-0.2936542332172394
1772025747048875800,7.084875732421875,-0.40836092829704285,-0.13980470597743988,-0.2441204935312271
1772025747058872600,7.09487255859375,-0.36663106083869934,-0.1368296891450882,-0.17358188331127167
1772025747068870700,7.10487060546875,-0.33035966753959656,-0.1389247179031372,-0.0850522443652153
1772025747078867700,7.11486767578125,-0.2998073399066925,-0.12983907759189606,0.0114215686917305
1772025747088864800,7.12486474609375,-0.2918255031108856,-0.10525308549404144,0.10266035050153732
1772025747098862600,7.134862548828125,-0.2921948730945587,-0.0748794674873352,0.17482882738113403
1772025747108860000,7.14485986328125,-0.2880227863788605,-0.051615577191114426,0.2454139143228531
1772025747118857700,7.154857666015625,-0.28485655784606934,-0.01612682454288006,0.3028324544429779
1772025747128854800,7.164854736328125,-0.286111056804657,0.0218067467212677,0.3383792042732239
1772025747138851600,7.1748515625,-0.2961471676826477,0.04510727524757385,0.35243430733680725
1772025747148849700,7.184849609375,-0.3143616020679474,0.07269838452339172,0.35352593660354614
1772025747158846700,7.1948466796875,-0.33487460017204285,0.11600431054830551,0.35276347398757935
1772025747168843800,7.20484375,-0.347545862197876,0.16785632073879242,0.35007965564727783
1772025747178841900,7.214841796875,-0.34263554215431213,0.22767092287540436,0.35057446360588074
1772025747188838700,7.224838623046875,-0.33188343048095703,0.25459322333335876,0.3462706208229065
1772025747198835700,7.234835693359375,-0.3299467861652374,0.238841712474823,0.32275304198265076
1772025747208833800,7.244833740234375,-0.3555532693862915,0.21231894195079803,0.27974826097488403
1772025747218830800,7.254830810546875,-0.38661637902259827,0.19476604461669922,0.23231974244117737
1772025747228828700,7.26482861328125,-0.410407692193985,0.1797332614660263,0.18751777708530426
1772025747238825700,7.27482568359375,-0.4365985691547394,0.1578950732946396,0.14692534506320953
1772025747248822800,7.28482275390625,-0.46441248059272766,0.11715053766965866,0.104310043156147
1772025747258820900,7.29482080078125,-0.4922126829624176,0.07870355248451233,0.06310109049081802
1772025747268817700,7.304817626953125,-0.5165099501609802,0.06039050966501236,0.03426158055663109
1772025747278814700,7.314814697265625,-0.525780975818634,0.06214632838964462,0.017625609412789345
1772025747288812500,7.3248125,-0.5172898173332214,0.059873245656490326,0.005319150630384684
1772025747298809900,7.334809814453125,-0.5000748634338379,0.0481548048555851,-0.00430151866748929
1772025747308806700,7.344806640625,-0.4652309715747833,0.03477131947875023,-0.0030982387252151966
1772025747318804700,7.3548046875,-0.4277408719062805,0.019216328859329224,0.014722569845616817
1772025747328801500,7.364801513671875,-0.3868752121925354,-0.00407145731151104,0.04902036115527153
1772025747338799600,7.374799560546875,-0.3518407940864563,-0.02175378054380417,0.09414469450712204
1772025747348796700,7.384796630859375,-0.3308943212032318,-0.029761753976345062,0.1538822501897812
1772025747358793700,7.394793701171875,-0.31279256939888,-0.04406878724694252,0.20986109972000122
1772025747368791800,7.404791748046875,-0.2941524088382721,-0.0555967353284359,0.27354252338409424
1772025747378788600,7.41478857421875,-0.2734932005405426,-0.0609574094414711,0.3323134183883667
1772025747388785700,7.42478564453125,-0.2623514235019684,-0.05563291534781456,0.38476258516311646
1772025747398783700,7.43478369140625,-0.24695995450019836,-0.03071984276175499,0.4435209631919861
1772025747408780800,7.44478076171875,-0.21691276133060455,-0.002565209288150072,0.5140630006790161
1772025747418777600,7.454777587890625,-0.17458313703536987,0.02309621125459671,0.5838738083839417
1772025747428775700,7.464775634765625,-0.13108673691749573,0.04290483519434929,0.6399597525596619
1772025747438772700,7.474772705078125,-0.09229087084531784,0.054918356239795685,0.6833202838897705
1772025747448770800,7.484770751953125,-0.06285698711872101,0.06195530667901039,0.7046464681625366
1772025747458767600,7.494767578125,-0.04645378142595291,0.07068328559398651,0.7022144794464111
1772025747468768000,7.50476806640625,-0.040029048919677734,0.06610561907291412,0.6689234972000122
1772025747478766000,7.51476611328125,-0.03333732485771179,0.04749651253223419,0.6276565194129944
1772025747488763100,7.52476318359375,-0.018508894369006157,-0.008584716357290745,0.5734010338783264
1772025747498760000,7.534760009765625,-0.007670361548662186,-0.06170545890927315,0.5264279246330261
1772025747508758000,7.544758056640625,-0.02032606489956379,-0.08731506019830704,0.47649067640304565
1772025747518755000,7.554755126953125,-0.05497272312641144,-0.1035424992442131,0.4183330833911896
1772025747528752000,7.564752197265625,-0.10637227445840836,-0.12963789701461792,0.34426456689834595
1772025747538750200,7.574750244140625,-0.1771300733089447,-0.15038418769836426,0.236741840839386
1772025747548747000,7.5847470703125,-0.2640351355075836,-0.18017658591270447,0.0988893136382103
1772025747558745000,7.5947451171875,-0.3614349365234375,-0.2097291499376297,-0.06245829910039902
1772025747568742100,7.6047421875,-0.4431230425834656,-0.22582760453224182,-0.2268218696117401
1772025747578739200,7.6147392578125,-0.49569517374038696,-0.20892824232578278,-0.37029168009757996
1772025747588737000,7.624737060546875,-0.506085216999054,-0.1530287116765976,-0.48088690638542175
1772025747598734000,7.634734130859375,-0.4823008179664612,-0.06444238871335983,-0.5537749528884888
1772025747608731100,7.644731201171875,-0.42280325293540955,0.03522424399852753,-0.5888234376907349
1772025747618729200,7.654729248046875,-0.3447380065917969,0.12000438570976257,-0.5960951447486877
1772025747628726000,7.66472607421875,-0.24397626519203186,0.18349668383598328,-0.5737802982330322
1772025747638723000,7.67472314453125,-0.12773887813091278,0.21541626751422882,-0.5297369360923767
1772025747648721000,7.684720947265625,-0.018473731353878975,0.21075578033924103,-0.4802952706813812
1772025747658718200,7.69471826171875,0.06301393359899521,0.18547944724559784,-0.4214079976081848
1772025747668716300,7.70471630859375,0.12438607215881348,0.15095868706703186,-0.3596721291542053
1772025747678713000,7.714713134765625,0.16602033376693726,0.12095364183187485,-0.29923221468925476
1772025747688710000,7.7247099609375,0.19084343314170837,0.08547988533973694,-0.24869929254055023
1772025747698708000,7.7347080078125,0.20328572392463684,0.0488254651427269,-0.20269104838371277
1772025747708705300,7.744705322265625,0.19819004833698273,0.007031872868537903,-0.16846691071987152
1772025747718702000,7.7547021484375,0.17147669196128845,-0.04347577691078186,-0.14469313621520996
1772025747728700200,7.7647001953125,0.12759579718112946,-0.1046818420290947,-0.1390637457370758
1772025747738697000,7.774697021484375,0.07337277382612228,-0.16369909048080444,-0.1353028267621994
1772025747748694300,7.7846943359375,0.020924754440784454,-0.22103652358055115,-0.130660280585289
1772025747758692000,7.794692138671875,-0.028228944167494774,-0.26948288083076477,-0.11599398404359818
1772025747768689200,7.804689208984375,-0.07070586085319519,-0.30194422602653503,-0.0982072576880455
1772025747778687000,7.81468701171875,-0.0998951718211174,-0.3203178942203522,-0.07386356592178345
1772025747788684000,7.82468408203125,-0.11747477948665619,-0.314044326543808,-0.04346289858222008
1772025747798681000,7.83468115234375,-0.1285191774368286,-0.3008398413658142,-0.007798910140991211
1772025747808679200,7.84467919921875,-0.13224133849143982,-0.2970617115497589,0.028551440685987473
1772025747818676000,7.854676025390625,-0.13386666774749756,-0.2994060814380646,0.0633712112903595
1772025747828673000,7.864673095703125,-0.13373428583145142,-0.305596262216568,0.08887416124343872
1772025747838670800,7.8746708984375,-0.13424614071846008,-0.32743072509765625,0.09497573226690292
1772025747848668200,7.884668212890625,-0.14610084891319275,-0.3588249981403351,0.0915222242474556
1772025747858665000,7.8946650390625,-0.15962624549865723,-0.3746665418148041,0.08260888606309891
1772025747868663000,7.9046630859375,-0.16710521280765533,-0.3693859875202179,0.07368586957454681
1772025747878660000,7.91466015625,-0.17505209147930145,-0.3543652296066284,0.06685326993465424
1772025747888658000,7.924657958984375,-0.1690104901790619,-0.33104458451271057,0.07171248644590378
1772025747898655200,7.9346552734375,-0.15846596658229828,-0.29424023628234863,0.07977680116891861
1772025747908652000,7.944652099609375,-0.14667703211307526,-0.27247026562690735,0.09413804858922958
1772025747918650000,7.954650146484375,-0.1186978667974472,-0.2716739773750305,0.11888733506202698
1772025747928647200,7.964647216796875,-0.08363022655248642,-0.2718411684036255,0.15777140855789185
1772025747938644200,7.974644287109375,-0.0344267301261425,-0.2531774640083313,0.2154802531003952
1772025747948642000,7.98464208984375,0.013940270990133286,-0.2522807717323303,0.27320396900177
1772025747958639000,7.99463916015625,0.03320291265845299,-0.3148626685142517,0.303270548582077
1772025747968636200,8.00463623046875,-0.004146595951169729,-0.39153602719306946,0.2907184064388275
1772025747978634200,8.01463427734375,-0.0502573661506176,-0.4269275665283203,0.2776327133178711
1772025747988631000,8.024631103515626,-0.07310913503170013,-0.42146405577659607,0.27453678846359253
1772025747998629000,8.034629150390625,-0.08467284590005875,-0.41104283928871155,0.2668175995349884
1772025748008626000,8.0446259765625,-0.10566593706607819,-0.40462416410446167,0.24681958556175232
1772025748018623200,8.054623291015625,-0.1340898722410202,-0.4101707339286804,0.21058009564876556
1772025748028621300,8.064621337890625,-0.15707539021968842,-0.4096374213695526,0.16443954408168793
1772025748038618000,8.0746181640625,-0.16488297283649445,-0.41689082980155945,0.11073451489210129
1772025748048615000,8.084614990234375,-0.1619550883769989,-0.4338710904121399,0.05488003417849541
1772025748058613000,8.094613037109376,-0.16636209189891815,-0.4563835859298706,-0.009242759086191654
1772025748068610300,8.1046103515625,-0.18265601992607117,-0.4609857499599457,-0.06993399560451508
1772025748078607000,8.114607177734374,-0.20021477341651917,-0.4420994222164154,-0.10912773758172989
1772025748088605200,8.124605224609375,-0.21324443817138672,-0.3974345326423645,-0.12509837746620178
1772025748098602000,8.13460205078125,-0.20607520639896393,-0.3533405661582947,-0.11952944099903107
1772025748108599300,8.144599365234376,-0.19147518277168274,-0.3026213049888611,-0.09361515939235687
1772025748118597000,8.15459716796875,-0.15982697904109955,-0.2399405837059021,-0.045235905796289444
1772025748128594200,8.16459423828125,-0.12694993615150452,-0.18016688525676727,0.011102188378572464
1772025748138592000,8.174592041015625,-0.10472933202981949,-0.10643754154443741,0.07939708977937698
1772025748148589000,8.184589111328124,-0.08330292254686356,-0.028683362528681755,0.1480516791343689
1772025748158586000,8.194586181640625,-0.0756271630525589,0.04426354542374611,0.20541110634803772
1772025748168584200,8.204584228515625,-0.07686876505613327,0.09023655951023102,0.24055470526218414
1772025748178581000,8.2145810546875,-0.08255887031555176,0.12873493134975433,0.2529221475124359
1772025748188578000,8.224578125,-0.1050012856721878,0.1356837898492813,0.23936612904071808
1772025748198575900,8.234575927734374,-0.14122213423252106,0.12875929474830627,0.2009904980659485
1772025748208573200,8.2445732421875,-0.20809975266456604,0.11160442978143692,0.14594724774360657
1772025748218571300,8.2545712890625,-0.28207331895828247,0.11256236582994461,0.07208820432424545
1772025748228568000,8.264568115234376,-0.35841453075408936,0.11587252467870712,0.0007681421702727675
1772025748238564900,8.27456494140625,-0.41667279601097107,0.12765541672706604,-0.07548268884420395
1772025748248563000,8.28456298828125,-0.45439374446868896,0.1289147436618805,-0.1482461541891098
1772025748258560300,8.294560302734375,-0.47445717453956604,0.10570982098579407,-0.22555187344551086
1772025748268557000,8.30455712890625,-0.4974622130393982,0.060638751834630966,-0.31468063592910767
1772025748278555100,8.31455517578125,-0.5279261469841003,0.007870877161622047,-0.42416343092918396
1772025748288552000,8.324552001953125,-0.5564239621162415,-0.05428611859679222,-0.5338567495346069
1772025748298549200,8.33454931640625,-0.5658813714981079,-0.10062672197818756,-0.633220374584198
1772025748308547000,8.344547119140625,-0.5723656415939331,-0.11730445921421051,-0.7062095403671265
1772025748318544100,8.354544189453126,-0.5620858669281006,-0.1051788181066513,-0.7464927434921265
1772025748328542000,8.3645419921875,-0.5216044783592224,-0.05507190525531769,-0.7387654185295105
1772025748338539000,8.3745390625,-0.44593265652656555,0.001565009355545044,-0.6747617125511169
1772025748348536000,8.3845361328125,-0.335235595703125,0.04180712252855301,-0.5669894218444824
1772025748358534100,8.3945341796875,-0.2034141719341278,0.07693634927272797,-0.44259336590766907
1772025748368531000,8.404531005859376,-0.08758243918418884,0.07573328167200089,-0.3335909843444824
1772025748378528000,8.414528076171875,-0.021565068513154984,0.030966874212026596,-0.23508279025554657
1772025748388526000,8.424526123046874,0.004742340184748173,-0.00953329261392355,-0.15043504536151886
1772025748398523100,8.434523193359375,0.008771169930696487,-0.03251530975103378,-0.08315188437700272
1772025748408520000,8.44452001953125,-0.012591092847287655,-0.0638236254453659,-0.049239762127399445
1772025748418518000,8.45451806640625,-0.050895072519779205,-0.08275444060564041,-0.03899697959423065
1772025748428515000,8.46451513671875,-0.10799936205148697,-0.076871357858181,-0.03960644453763962
1772025748438513200,8.47451318359375,-0.16204820573329926,-0.0790594145655632,-0.062285926192998886
1772025748448510200,8.48451025390625,-0.19995218515396118,-0.0960579589009285,-0.09050731360912323
1772025748458507000,8.494507080078124,-0.20637014508247375,-0.11445853859186172,-0.11532530933618546
1772025748468505600,8.504505615234375,-0.2016485184431076,-0.11124090105295181,-0.1359824389219284
1772025748478502400,8.51450244140625,-0.18204951286315918,-0.08277996629476547,-0.13803067803382874
1772025748488499700,8.524499755859376,-0.15806475281715393,-0.023687615990638733,-0.11245649307966232
1772025748498497500,8.53449755859375,-0.13526517152786255,0.036006342619657516,-0.07782980054616928
1772025748508494600,8.54449462890625,-0.1105327233672142,0.06655370444059372,-0.04609636589884758
1772025748518491400,8.554491455078125,-0.08157377690076828,0.08005939424037933,-0.024887748062610626
1772025748528489500,8.564489501953124,-0.0522758886218071,0.0793280154466629,-0.012959526851773262
1772025748538486500,8.574486572265625,-0.038537438958883286,0.06667480617761612,-0.008519504219293594
1772025748548483600,8.584483642578125,-0.034780945628881454,0.04295749217271805,-0.01627948321402073
1772025748558481700,8.594481689453126,-0.04732150584459305,0.011638453230261803,-0.02403993345797062
1772025748568478500,8.604478515625,-0.07072702050209045,-0.02259092405438423,-0.027777764946222305
1772025748578476500,8.6144765625,-0.10292250663042068,-0.04743049666285515,-0.020203467458486557
1772025748588473600,8.6244736328125,-0.13991497457027435,-0.07062362134456635,0.007056933827698231
1772025748598470700,8.634470703125,-0.18281610310077667,-0.08338389545679092,0.04560805484652519
1772025748608468500,8.644468505859376,-0.22828929126262665,-0.0904950276017189,0.09074915945529938
1772025748618465500,8.654465576171875,-0.2659336030483246,-0.08750296384096146,0.1366649866104126
1772025748628462600,8.664462646484376,-0.2828664183616638,-0.07555945217609406,0.18783624470233917
1772025748638460700,8.674460693359375,-0.28684917092323303,-0.035850923508405685,0.22524406015872955
1772025748648457500,8.68445751953125,-0.27626660466194153,0.02559083327651024,0.25966426730155945
1772025748658454800,8.694454833984375,-0.2391570508480072,0.08888565003871918,0.28704261779785156
1772025748668452600,8.70445263671875,-0.21232670545578003,0.11142747849225998,0.2870624363422394
1772025748678449700,8.71444970703125,-0.20750318467617035,0.09275978058576584,0.2497110515832901
1772025748688447500,8.724447509765625,-0.21770350635051727,0.08253887295722961,0.19727174937725067
1772025748698444500,8.734444580078126,-0.2102927267551422,0.0807311162352562,0.15654535591602325
1772025748708441600,8.744441650390625,-0.18354377150535583,0.07378549128770828,0.1261993646621704
1772025748718439700,8.754439697265624,-0.16201691329479218,0.09144864231348038,0.1017901599407196
1772025748728436500,8.7644365234375,-0.15575286746025085,0.11947540193796158,0.0809883400797844
1772025748738433500,8.77443359375,-0.1682308316230774,0.12371541559696198,0.061326220631599426
1772025748748431600,8.784431640625,-0.19605807960033417,0.11149862408638,0.0433020144701004
1772025748758428700,8.7944287109375,-0.23436790704727173,0.10836914926767349,0.019982310011982918
1772025748768426800,8.8044267578125,-0.26758822798728943,0.10185763984918594,-0.014592171646654606
1772025748778423600,8.814423583984375,-0.2891177535057068,0.07075005024671555,-0.06509023904800415
1772025748788420600,8.824420654296874,-0.30102524161338806,0.041419561952352524,-0.12025828659534454
1772025748798418400,8.83441845703125,-0.2929007411003113,0.012667005881667137,-0.16460230946540833
1772025748808415700,8.844415771484375,-0.26668858528137207,0.00019458576571196318,-0.18476510047912598
1772025748818412500,8.85441259765625,-0.23232501745224,0.0071827201172709465,-0.1866367757320404
1772025748828410600,8.86441064453125,-0.17452538013458252,-0.0006489900406450033,-0.1776023954153061
1772025748838407400,8.874407470703124,-0.09816482663154602,-0.02065439149737358,-0.17146036028862
1772025748848404700,8.88440478515625,-0.015394027344882488,-0.05561579391360283,-0.15074123442173004
1772025748858402600,8.894402587890625,0.06339985132217407,-0.0847340002655983,-0.12599673867225647
1772025748868399600,8.904399658203126,0.11894597858190536,-0.08709120005369186,-0.09917698055505753
1772025748878397700,8.914397705078125,0.18062426149845123,-0.011473938822746277,-0.03603556379675865
1772025748888394500,8.92439453125,0.23790976405143738,0.0813557505607605,0.050965454429388046
1772025748898391600,8.9343916015625,0.29403799772262573,0.18102988600730896,0.1592695564031601
1772025748908389600,8.9443896484375,0.3569025695323944,0.30250295996665955,0.26982834935188293
1772025748918386700,8.95438671875,0.40965235233306885,0.38933321833610535,0.3669045865535736
1772025748928383500,8.964383544921875,0.43914303183555603,0.4098914861679077,0.42392876744270325
1772025748938381600,8.974381591796876,0.454016774892807,0.3761782646179199,0.451442152261734
1772025748948378600,8.984378662109375,0.4567503333091736,0.31719282269477844,0.4609805941581726
1772025748958375700,8.994375732421876,0.4701755940914154,0.25282394886016846,0.4585171639919281
1772025748968373500,9.00437353515625,0.48960232734680176,0.17047013342380524,0.44751495122909546
1772025748978370600,9.01437060546875,0.4873865842819214,0.07846963405609131,0.41143152117729187
1772025748988368400,9.024368408203125,0.4604741632938385,0.0013977979542687535,0.36481666564941406
1772025748998365700,9.03436572265625,0.40128621459007263,-0.053206056356430054,0.29932206869125366
1772025749008362500,9.044362548828126,0.3001558780670166,-0.05838849022984505,0.21350331604480743
1772025749018360600,9.054360595703125,0.17224055528640747,-0.043942440301179886,0.11316365748643875
1772025749028357600,9.064357666015624,0.04539146646857262,-0.05335618555545807,0.005515635013580322
1772025749038354700,9.074354736328125,-0.06519682705402374,-0.05872378498315811,-0.09766320884227753
1772025749048352500,9.0843525390625,-0.14321617782115936,-0.056942470371723175,-0.1811530590057373
1772025749058349600,9.094349609375,-0.18120723962783813,-0.025213303044438362,-0.23237204551696777
1772025749068346600,9.1043466796875,-0.1865074783563614,0.037242162972688675,-0.24660730361938477
1772025749078344700,9.1143447265625,-0.1497713029384613,0.1030571237206459,-0.22361382842063904
1772025749088341500,9.124341552734375,-0.0617944709956646,0.17246484756469727,-0.18451295793056488
1772025749098339600,9.134339599609374,0.04816452041268349,0.2559956908226013,-0.1409497708082199
1772025749108336600,9.144336669921875,0.15664345026016235,0.3425905108451843,-0.11465268582105637
1772025749118333700,9.154333740234375,0.23627516627311707,0.39219292998313904,-0.12090259790420532
1772025749128331800,9.164331787109376,0.28198331594467163,0.41629648208618164,-0.15074002742767334
1772025749138328600,9.17432861328125,0.2991657853126526,0.4045359790325165,-0.19640499353408813
1772025749148325600,9.18432568359375,0.31456586718559265,0.38029107451438904,-0.23102134466171265
1772025749158323500,9.194323486328125,0.33433797955513,0.35942336916923523,-0.2428859919309616
1772025749168320800,9.20432080078125,0.335003137588501,0.3184030055999756,-0.24328145384788513
1772025749178318600,9.214318603515625,0.3165663480758667,0.2546437382698059,-0.24060285091400146
1772025749188315600,9.224315673828125,0.2894847095012665,0.16986632347106934,-0.2227383702993393
1772025749198312400,9.2343125,0.2523424029350281,0.06554657965898514,-0.20278410613536835
1772025749208310500,9.244310546875,0.19303742051124573,-0.038493651896715164,-0.1892113834619522
1772025749218307600,9.2543076171875,0.13317328691482544,-0.1287897378206253,-0.16512654721736908
1772025749228304600,9.2643046875,0.07848849147558212,-0.19057714939117432,-0.12111169099807739
1772025749238302500,9.274302490234374,0.02683088928461075,-0.22188740968704224,-0.07183442264795303
1772025749248299500,9.284299560546875,-0.019977299496531487,-0.2440110445022583,-0.03666890412569046
1772025749258296600,9.294296630859375,-0.0567728616297245,-0.26665031909942627,-0.012316158041357994
1772025749268294700,9.304294677734376,-0.0644763857126236,-0.27906548976898193,0.0052917879074811935
1772025749278291700,9.314291748046875,-0.06361351907253265,-0.278315007686615,0.019665133208036423
1772025749288289500,9.32428955078125,-0.05231783539056778,-0.27545464038848877,0.02092340588569641
1772025749298285600,9.33428564453125,-0.035919155925512314,-0.2667948603630066,0.01828021928668022
1772025749308282600,9.34428271484375,-0.020790619775652885,-0.26146870851516724,0.014565389603376389
1772025749318279400,9.354279541015625,-0.009438098408281803,-0.266756147146225,0.012711563147604465
1772025749328277500,9.364277587890625,-0.003005955833941698,-0.2759437561035156,0.023336099460721016
1772025749338274600,9.374274658203126,0.0008002340327948332,-0.27505454421043396,0.04171430692076683
1772025749348271600,9.384271728515625,0.00012818106915801764,-0.26322031021118164,0.08698651194572449
1772025749358269700,9.394269775390624,0.002114366739988327,-0.24418003857135773,0.14702348411083221
1772025749368266500,9.4042666015625,0.020022131502628326,-0.21950843930244446,0.2137976586818695
1772025749378263600,9.414263671875,0.067051962018013,-0.22114628553390503,0.28275808691978455
1772025749388261600,9.42426171875,0.11913358420133591,-0.25571027398109436,0.34055158495903015
1772025749398258700,9.4342587890625,0.14206074178218842,-0.3102582097053528,0.3555108308792114
1772025749408256500,9.444256591796876,0.14205774664878845,-0.3651121258735657,0.3333255350589752
1772025749418253600,9.454253662109375,0.13662809133529663,-0.41659262776374817,0.2998090982437134
1772025749428250600,9.464250732421876,0.138505220413208,-0.44394633173942566,0.2600471079349518
1772025749438248700,9.474248779296875,0.12604829668998718,-0.44667500257492065,0.21425725519657135
1772025749448245500,9.48424560546875,0.09377838671207428,-0.43740415573120117,0.15438693761825562
1772025749458242600,9.49424267578125,0.04980240762233734,-0.42841970920562744,0.08334790170192719
1772025749468236500,9.504236572265626,0.009385243058204651,-0.4217827320098877,0.017334522679448128
1772025749478233300,9.5142333984375,-0.01835690438747406,-0.4001208543777466,-0.0441482774913311
1772025749488230400,9.52423046875,-0.03742815554141998,-0.36841318011283875,-0.10542413592338562
1772025749498228200,9.534228271484375,-0.03492904454469681,-0.3418590724468231,-0.16076993942260742
1772025749508225500,9.5442255859375,-0.02440733090043068,-0.33501413464546204,-0.19985496997833252
1772025749518223400,9.554223388671875,-0.012758664786815643,-0.3182314336299896,-0.22066837549209595
1772025749528220400,9.564220458984375,0.003723535221070051,-0.2911180555820465,-0.21815933287143707
1772025749538217200,9.57421728515625,0.0198013037443161,-0.25981417298316956,-0.1901969462633133
1772025749548215300,9.58421533203125,0.03717567399144173,-0.20910583436489105,-0.13858602941036224
1772025749558212400,9.59421240234375,0.05832543224096298,-0.1399209052324295,-0.06290404498577118
1772025749568209400,9.60420947265625,0.07980216294527054,-0.0392523817718029,0.027589285746216774
1772025749578207500,9.61420751953125,0.10346382111310959,0.052425604313611984,0.12636379897594452
1772025749588204300,9.624204345703125,0.11839395016431808,0.10510034114122391,0.2134486585855484
1772025749598202400,9.634202392578125,0.10619906336069107,0.11260060220956802,0.27334076166152954
1772025749608199400,9.644199462890626,0.07283216714859009,0.08421315997838974,0.3112659752368927
1772025749618196500,9.654196533203125,0.02221798524260521,0.03248845413327217,0.3298894464969635
1772025749628194300,9.6641943359375,-0.03674432635307312,-0.010282935574650764,0.3380984961986542
1772025749638191400,9.67419140625,-0.08760164678096771,-0.022098317742347717,0.34888961911201477
1772025749648188400,9.6841884765625,-0.12447996437549591,-0.016695376485586166,0.35893315076828003
1772025749658186500,9.6941865234375,-0.14657248556613922,-0.007575380615890026,0.35925379395484924
1772025749668183300,9.704183349609375,-0.1680539846420288,-0.001769198919646442,0.32338017225265503
1772025749678180400,9.714180419921876,-0.1945958435535431,-0.014159821905195713,0.23636029660701752
1772025749688178200,9.72417822265625,-0.21937578916549683,-0.04446404054760933,0.11487520486116409
1772025749698175500,9.734175537109374,-0.25000402331352234,-0.07371114194393158,-0.03112701326608658
1772025749708173300,9.74417333984375,-0.2868667244911194,-0.08615152537822723,-0.1898861527442932
1772025749718170400,9.75417041015625,-0.32266759872436523,-0.08296824991703033,-0.3404165506362915
1772025749728167200,9.764167236328126,-0.3514314591884613,-0.049838945269584656,-0.46337583661079407
1772025749738165500,9.77416552734375,-0.36128944158554077,0.007557502016425133,-0.5463303923606873
1772025749748162300,9.784162353515624,-0.35466423630714417,0.08317247778177261,-0.5984010696411133
1772025749758159400,9.794159423828125,-0.32607680559158325,0.14833895862102509,-0.6154085397720337
1772025749768157400,9.804157470703124,-0.2866816222667694,0.21559424698352814,-0.5911070704460144
1772025749778154500,9.814154541015625,-0.2590838074684143,0.2569241225719452,-0.5532712936401367
1772025749788151300,9.8241513671875,-0.2480899542570114,0.25564438104629517,-0.5044116973876953
1772025749798149400,9.8341494140625,-0.25673723220825195,0.2553945481777191,-0.4603304862976074
1772025749808146400,9.844146484375,-0.29254862666130066,0.2372598499059677,-0.4133547842502594
1772025749818144300,9.854144287109374,-0.33758243918418884,0.2225906252861023,-0.364105761051178
1772025749828141600,9.8641416015625,-0.38736584782600403,0.21474117040634155,-0.3096531629562378
1772025749838138400,9.874138427734374,-0.4457886815071106,0.21845202147960663,-0.25763043761253357
1772025749848136400,9.884136474609376,-0.5042328834533691,0.23170343041419983,-0.22731861472129822
1772025749858133200,9.89413330078125,-0.5421030521392822,0.26806196570396423,-0.2132938653230667
1772025749868130600,9.904130615234376,-0.559687614440918,0.27595534920692444,-0.2123982161283493
1772025749878128400,9.91412841796875,-0.5705152750015259,0.2459649294614792,-0.21504700183868408
1772025749888125400,9.92412548828125,-0.5786865949630737,0.2100406438112259,-0.22072303295135498
1772025749898123300,9.934123291015625,-0.5881804823875427,0.172467440366745,-0.23744767904281616
1772025749908121300,9.944121337890625,-0.57936692237854,0.14736680686473846,-0.2533394992351532
1772025749918118400,9.954118408203126,-0.5540146827697754,0.1340818852186203,-0.2939532399177551
1772025749928115500,9.964115478515625,-0.5062365531921387,0.10010234266519547,-0.3450319766998291
1772025749938113500,9.974113525390624,-0.4381283223628998,0.061601828783750534,-0.39229482412338257
1772025749948110300,9.9841103515625,-0.37128230929374695,0.040246397256851196,-0.4285605847835541
1772025749958107400,9.994107421875,-0.31574395298957825,-0.011714802123606205,-0.4491196572780609
1772025749968105200,10.004105224609376,-0.25778111815452576,-0.050808828324079514,-0.4356086552143097
1772025749978102500,10.0141025390625,-0.1900327056646347,-0.04902397841215134,-0.38436010479927063
1772025749988099300,10.024099365234376,-0.11104393750429153,-0.023095333948731422,-0.3080594837665558
1772025749998097400,10.034097412109375,-0.02406323328614235,-0.024633044376969337,-0.20840132236480713
1772025750008094200,10.04409423828125,0.03300301730632782,-0.034235790371894836,-0.08957161009311676
1772025750018092300,10.05409228515625,0.07265695184469223,0.018680687993764877,0.056026607751846313
1772025750028089300,10.06408935546875,0.09147577732801437,0.07748347520828247,0.21183091402053833
1772025750038086400,10.07408642578125,0.07969234883785248,0.13289345800876617,0.347205251455307
1772025750048084200,10.084084228515625,0.06165959686040878,0.16744528710842133,0.4653964638710022
1772025750058081300,10.094081298828126,0.03468656912446022,0.182618647813797,0.5546349883079529
1772025750068078300,10.104078369140625,-0.0005569383502006531,0.18554964661598206,0.6062781810760498
1772025750078076400,10.114076416015624,-0.03563955798745155,0.19302967190742493,0.6415531039237976
1772025750088073500,10.124073486328125,-0.04831257835030556,0.2501739263534546,0.6651871800422668
1772025750098071300,10.1340712890625,-0.037653543055057526,0.314219206571579,0.6823243498802185
1772025750108068400,10.144068359375,-0.030771607533097267,0.34005802869796753,0.6697420477867126
1772025750118065400,10.1540654296875,-0.05611318349838257,0.3243810534477234,0.6296947598457336
1772025750128063500,10.1640634765625,-0.1024521142244339,0.3176966905593872,0.5600032806396484
1772025750138060300,10.174060302734375,-0.1508239060640335,0.317413866519928,0.49355074763298035
1772025750148057300,10.184057373046874,-0.1871570348739624,0.3046379089355469,0.4188591241836548
1772025750158055400,10.194055419921876,-0.21410289406776428,0.2792891263961792,0.34937939047813416
1772025750168052500,10.204052490234375,-0.24186424911022186,0.2493593990802765,0.292797327041626
1772025750178049300,10.21404931640625,-0.2663264572620392,0.23076334595680237,0.2416611760854721
1772025750188047400,10.22404736328125,-0.2788436710834503,0.2280953973531723,0.21056778728961945
1772025750198044400,10.23404443359375,-0.2764129936695099,0.21470768749713898,0.177484393119812
1772025750208042500,10.24404248046875,-0.2766870856285095,0.16525156795978546,0.14354307949543
1772025750218039300,10.254039306640625,-0.2651979327201843,0.10349525511264801,0.11483712494373322
1772025750228036400,10.264036376953126,-0.24675484001636505,0.07748332619667053,0.1028393805027008
1772025750238034400,10.274034423828125,-0.21285812556743622,0.08261790126562119,0.10588710010051727
1772025750248031500,10.284031494140624,-0.15875138342380524,0.10223649442195892,0.11604873836040497
1772025750258028300,10.2940283203125,-0.10286574065685272,0.13850261270999908,0.12163045257329941
1772025750268026400,10.3040263671875,-0.04606068506836891,0.1809479296207428,0.11549326777458191
1772025750278023400,10.3140234375,0.014041799120604992,0.21612109243869781,0.10396178066730499
1772025750288021200,10.324021240234375,0.04632139578461647,0.23489345610141754,0.09685345739126205
1772025750298018600,10.3340185546875,0.06393340975046158,0.24759647250175476,0.10332653671503067
1772025750308015400,10.344015380859375,0.07460411638021469,0.2583901584148407,0.12934456765651703
1772025750318013400,10.354013427734374,0.0734027624130249,0.25459593534469604,0.16200877726078033
1772025750328010200,10.36401025390625,0.08364648371934891,0.21842734515666962,0.2052118331193924
1772025750338007600,10.374007568359374,0.11530028283596039,0.18841618299484253,0.26124846935272217
1772025750348005400,10.38400537109375,0.15434931218624115,0.1549791395664215,0.3240807354450226
1772025750358002400,10.39400244140625,0.18746572732925415,0.12949348986148834,0.37384137511253357
1772025750367999200,10.403999267578126,0.20363456010818481,0.09608717262744904,0.40866342186927795
1772025750377997300,10.413997314453125,0.21137051284313202,0.05580926313996315,0.4187543988227844
1772025750387994400,10.423994384765624,0.21239317953586578,0.011636894196271896,0.41351476311683655
1772025750397992400,10.433992431640625,0.20070242881774902,-0.035006508231163025,0.3939860463142395
1772025750407989200,10.4439892578125,0.17844872176647186,-0.048462171107530594,0.3668331503868103
1772025750417986300,10.453986328125,0.16583704948425293,-0.037347204983234406,0.3367615342140198
1772025750427984400,10.463984375,0.15292157232761383,-0.029790477827191353,0.31315645575523376
1772025750437981400,10.4739814453125,0.1402052342891693,-0.042260996997356415,0.29013076424598694
1772025750447978500,10.483978515625,0.11694831401109695,-0.06961771845817566,0.25662848353385925
1772025750457976300,10.493976318359374,0.07742380350828171,-0.10510887205600739,0.20753978192806244
1772025750467973600,10.5039736328125,0.016903340816497803,-0.14020580053329468,0.1300899237394333
1772025750477971700,10.5139716796875,-0.06891808658838272,-0.1719575971364975,0.018507735803723335
1772025750487968800,10.52396875,-0.17502492666244507,-0.2102297693490982,-0.12129683792591095
1772025750497965800,10.5339658203125,-0.2802669405937195,-0.26166367530822754,-0.27089351415634155
1772025750507963600,10.543963623046874,-0.36888617277145386,-0.31838470697402954,-0.4114203155040741
1772025750517960700,10.553960693359375,-0.42740726470947266,-0.3454240560531616,-0.5079224109649658
1772025750527957800,10.563957763671874,-0.45583802461624146,-0.33648473024368286,-0.5603826642036438
1772025750537955800,10.573955810546876,-0.4532092213630676,-0.27487221360206604,-0.5691639184951782
1772025750547952600,10.58395263671875,-0.40936988592147827,-0.20428550243377686,-0.5471774935722351
1772025750557949700,10.59394970703125,-0.3083074390888214,-0.13837653398513794,-0.5022803544998169
1772025750567947500,10.603947509765625,-0.17862626910209656,-0.06108011305332184,-0.4463936984539032
1772025750577944800,10.61394482421875,-0.037209492176771164,-0.0006178328767418861,-0.3990839719772339
1772025750587942700,10.623942626953125,0.06965167075395584,0.029358476400375366,-0.3819573223590851
1772025750597939700,10.633939697265625,0.11996784061193466,0.01577848568558693,-0.3762608468532562
1772025750607936500,10.6439365234375,0.1391948014497757,0.005319340154528618,-0.36512520909309387
1772025750617934600,10.6539345703125,0.14380793273448944,-0.0009260392398573458,-0.3351638615131378
1772025750627931600,10.663931640625,0.1417596936225891,-0.03557909280061722,-0.29282519221305847
1772025750637928700,10.6739287109375,0.12837491929531097,-0.10525058209896088,-0.23144172132015228
1772025750647926800,10.6839267578125,0.08997830003499985,-0.16663606464862823,-0.16752612590789795
1772025750657923600,10.693923583984375,0.03233444690704346,-0.21857649087905884,-0.10854963213205338
1772025750667921700,10.703921630859375,-0.02949426881968975,-0.266072154045105,-0.06707987189292908
1772025750677918700,10.713918701171876,-0.07697603106498718,-0.2960795760154724,-0.030946632847189903
1772025750687915800,10.723915771484375,-0.12085981667041779,-0.30145370960235596,0.0019439354073256254
1772025750697913600,10.73391357421875,-0.15355703234672546,-0.2775276005268097,0.04108627885580063
1772025750707910700,10.74391064453125,-0.17730093002319336,-0.2325405776500702,0.08258923888206482
1772025750717907700,10.75390771484375,-0.18926891684532166,-0.2151498794555664,0.11485929042100906
1772025750727905800,10.76390576171875,-0.2018713504076004,-0.22790783643722534,0.1326935589313507
1772025750737902600,10.773902587890625,-0.217009037733078,-0.24573875963687897,0.14267988502979279
1772025750747899600,10.783899658203126,-0.2539619207382202,-0.25765687227249146,0.15863153338432312
1772025750757897700,10.793897705078125,-0.2871299684047699,-0.31310468912124634,0.1675454080104828
1772025750767894800,10.803894775390624,-0.2992631494998932,-0.3726911246776581,0.14368149638175964
1772025750777892900,10.813892822265625,-0.28341200947761536,-0.41644978523254395,0.1108202189207077
1772025750787889700,10.8238896484375,-0.26734352111816406,-0.4191091060638428,0.09309209138154984
1772025750797886700,10.83388671875,-0.25418350100517273,-0.3725261390209198,0.11164580285549164
1772025750807884800,10.843884765625,-0.24448004364967346,-0.32749471068382263,0.13948315382003784
1772025750817881900,10.8538818359375,-0.22618280351161957,-0.31487077474594116,0.1741119623184204
1772025750827878700,10.863878662109375,-0.16517822444438934,-0.30718687176704407,0.21722134947776794
1772025750837876700,10.873876708984374,-0.09859120845794678,-0.3449701964855194,0.25092124938964844
