time,seconds_elapsed,z,y,x
1772025680491976400,0.0889765625,-1.7974029779434204,-0.3301885426044464,0.5647735595703125
1772025680501973500,0.098973388671875,-1.7122771739959717,-0.25355634093284607,0.6405122876167297
1772025680511971600,0.1089716796875,-1.611572504043579,-0.20451833307743073,0.7101777195930481
1772025680521968400,0.118968505859375,-1.5220324993133545,-0.19117429852485657,0.7712727785110474
1772025680531966500,0.128966552734375,-1.4500417709350586,-0.20083744823932648,0.8261716961860657
1772025680541963500,0.138963623046875,-1.4047213792800903,-0.22167456150054932,0.8561152219772339
1772025680551960600,0.148960693359375,-1.3878411054611206,-0.24924801290035248,0.8602486252784729
1772025680561958700,0.158958740234375,-1.3899868726730347,-0.28363049030303955,0.8481437563896179
1772025680571955500,0.16895556640625,-1.3917728662490845,-0.3065207302570343,0.8456004858016968
1772025680581953500,0.17895361328125,-1.3984118700027466,-0.31606870889663696,0.8480966687202454
1772025680591950300,0.188950439453125,-1.4167348146438599,-0.31139102578163147,0.8498549461364746
1772025680601947600,0.19894775390625,-1.444811224937439,-0.30769482254981995,0.8508981466293335
1772025680611945500,0.208945556640625,-1.4865938425064087,-0.30897068977355957,0.8507401943206787
1772025680621942500,0.218942626953125,-1.5350780487060547,-0.32925012707710266,0.8687042593955994
1772025680631940400,0.2289404296875,-1.5841388702392578,-0.38102370500564575,0.894727885723114
1772025680641937400,0.2389375,-1.6410269737243652,-0.4353431463241577,0.9385491013526917
1772025680651934500,0.2489345703125,-1.6979869604110718,-0.47550520300865173,1.0193241834640503
1772025680661932500,0.2589326171875,-1.7511849403381348,-0.5379366278648376,1.0994815826416016
1772025680671929300,0.268929443359375,-1.7990168333053589,-0.6301925778388977,1.1709520816802979
1772025680681927400,0.278927490234375,-1.8401557207107544,-0.7076143622398376,1.2181446552276611
1772025680691924500,0.288924560546875,-1.8662728071212769,-0.7594029307365417,1.240876317024231
1772025680701921500,0.298921630859375,-1.8774242401123047,-0.7884369492530823,1.2457613945007324
1772025680711919600,0.308919677734375,-1.881475806236267,-0.7988750338554382,1.237168788909912
1772025680721916400,0.31891650390625,-1.878208041191101,-0.8031051754951477,1.2122656106948853
1772025680731914500,0.32891455078125,-1.873583436012268,-0.8277488946914673,1.1790313720703125
1772025680741911300,0.338911376953125,-1.868057370185852,-0.8895872831344604,1.1356178522109985
1772025680751908600,0.34890869140625,-1.859535813331604,-0.9915278553962708,1.0904388427734375
1772025680761906400,0.358906494140625,-1.8606470823287964,-1.1208707094192505,1.0544017553329468
1772025680771903500,0.368903564453125,-1.8844267129898071,-1.2661751508712769,1.0185763835906982
1772025680781901300,0.3789013671875,-1.9207322597503662,-1.4184430837631226,0.9860581755638123
1772025680791898400,0.3888984375,-1.9556235074996948,-1.5443432331085205,0.938683271408081
1772025680801896400,0.398896484375,-1.9626902341842651,-1.6148486137390137,0.8556261658668518
1772025680811893500,0.4088935546875,-1.980223298072815,-1.5739291906356812,0.7523803114891052
1772025680821890300,0.418890380859375,-1.9945580959320068,-1.4790310859680176,0.6673370599746704
1772025680831888400,0.428888427734375,-1.9974098205566406,-1.3723677396774292,0.5863773822784424
1772025680841885400,0.438885498046875,-2.005160331726074,-1.2646591663360596,0.4870944917201996
1772025680851883500,0.448883544921875,-2.013357400894165,-1.184146761894226,0.36377426981925964
1772025680861880600,0.458880615234375,-2.0140302181243896,-1.1192755699157715,0.23716546595096588
1772025680871877400,0.46887744140625,-2.0122814178466797,-1.0773507356643677,0.11688654124736786
1772025680881875500,0.47887548828125,-2.011664628982544,-1.0491905212402344,0.004340551793575287
1772025680891872500,0.48887255859375,-2.004819393157959,-1.0272681713104248,-0.09750471264123917
1772025680901870600,0.49887060546875,-1.9869643449783325,-1.0276999473571777,-0.1947721391916275
1772025680911867400,0.508867431640625,-1.9517195224761963,-1.0440587997436523,-0.29549670219421387
1772025680921864400,0.518864501953125,-1.9051963090896606,-1.071726679801941,-0.3889712393283844
1772025680931862300,0.5288623046875,-1.845645785331726,-1.0749027729034424,-0.46101629734039307
1772025680941859600,0.538859619140625,-1.7820265293121338,-1.0330023765563965,-0.4975956082344055
1772025680951857700,0.548857666015625,-1.6935299634933472,-0.8077395558357239,-0.5090389251708984
1772025680961854500,0.5588544921875,-1.5818744897842407,-0.5476667284965515,-0.5000894069671631
1772025680971851300,0.568851318359375,-1.4901525974273682,-0.6194933652877808,-0.5078980326652527
1772025680981849300,0.578849365234375,-1.394454836845398,-0.6338261961936951,-0.48175138235092163
1772025680991846700,0.5888466796875,-1.315062165260315,-0.5302581787109375,-0.4374317228794098
1772025681001844500,0.598844482421875,-1.2700068950653076,-0.4984495937824249,-0.39332738518714905
1772025681011841500,0.608841552734375,-1.2459220886230469,-0.4950179159641266,-0.327723890542984
1772025681021838300,0.61883837890625,-1.238368034362793,-0.4913078844547272,-0.23716920614242554
1772025681031836400,0.62883642578125,-1.2526209354400635,-0.49914050102233887,-0.1296444684267044
1772025681041833500,0.63883349609375,-1.2802674770355225,-0.4978049099445343,-0.010060813277959824
1772025681051831600,0.64883154296875,-1.325141191482544,-0.5062695145606995,0.09344324469566345
1772025681061828400,0.658828369140625,-1.372867226600647,-0.517738401889801,0.1810215562582016
1772025681071825400,0.668825439453125,-1.4207450151443481,-0.5414855480194092,0.23941437900066376
1772025681081823200,0.6788232421875,-1.466126561164856,-0.5693411827087402,0.2814518213272095
1772025681091820500,0.688820556640625,-1.510230541229248,-0.594011127948761,0.302090585231781
1772025681101818600,0.698818603515625,-1.549311637878418,-0.6183947920799255,0.3003014922142029
1772025681111815400,0.7088154296875,-1.5817286968231201,-0.6415567994117737,0.2857314348220825
1772025681121812500,0.7188125,-1.6120805740356445,-0.6568816900253296,0.26514095067977905
1772025681131810300,0.728810302734375,-1.627768874168396,-0.6454986929893494,0.24055413901805878
1772025681141807600,0.7388076171875,-1.637789011001587,-0.626908540725708,0.2285696566104889
1772025681151805400,0.748805419921875,-1.6455117464065552,-0.6136003136634827,0.22535906732082367
1772025681161802500,0.758802490234375,-1.652185082435608,-0.6280453205108643,0.23111841082572937
1772025681171800300,0.76880029296875,-1.6665221452713013,-0.638259768486023,0.24713854491710663
1772025681181797600,0.778797607421875,-1.6760187149047852,-0.6214568018913269,0.26831308007240295
1772025681191794400,0.78879443359375,-1.6681313514709473,-0.5781444907188416,0.2872284948825836
1772025681201792500,0.79879248046875,-1.635191798210144,-0.5308254361152649,0.3211315870285034
1772025681211789300,0.808789306640625,-1.6080008745193481,-0.5147953033447266,0.3622777462005615
1772025681221787400,0.818787353515625,-1.6063401699066162,-0.5348175168037415,0.4016472399234772
1772025681231784700,0.82878466796875,-1.621296763420105,-0.5914472341537476,0.41729864478111267
1772025681241781500,0.838781494140625,-1.6386905908584595,-0.6507006883621216,0.4259355366230011
1772025681251779600,0.848779541015625,-1.655346393585205,-0.7076718211174011,0.40066373348236084
1772025681261776400,0.8587763671875,-1.6483653783798218,-0.7121192812919617,0.36131367087364197
1772025681271774500,0.8687744140625,-1.6173866987228394,-0.7038968801498413,0.30258241295814514
1772025681281771500,0.878771484375,-1.552103042602539,-0.6610450148582458,0.25956225395202637
1772025681291768600,0.8887685546875,-1.4896228313446045,-0.581510066986084,0.2819817364215851
1772025681301766400,0.898766357421875,-1.4330601692199707,-0.5264889001846313,0.3661719858646393
1772025681311763500,0.908763427734375,-1.380515694618225,-0.4915238320827484,0.4781014621257782
1772025681321761300,0.91876123046875,-1.3143795728683472,-0.5181682109832764,0.5795590877532959
1772025681331758600,0.928758544921875,-1.252088189125061,-0.5850496292114258,0.6563633680343628
1772025681341755400,0.93875537109375,-1.2037928104400635,-0.6419491171836853,0.6879444718360901
1772025681351753500,0.94875341796875,-1.1782070398330688,-0.6919327974319458,0.6854228973388672
1772025681361750300,0.958750244140625,-1.1763094663619995,-0.6874474883079529,0.6497088074684143
1772025681371748400,0.968748291015625,-1.1801629066467285,-0.6424566507339478,0.6062193512916565
1772025681381745700,0.97874560546875,-1.1742874383926392,-0.5674458146095276,0.5650540590286255
1772025681391742500,0.988742431640625,-1.1715688705444336,-0.47064557671546936,0.533557653427124
1772025681401744400,0.998744384765625,-1.1529884338378906,-0.38957229256629944,0.510836124420166
1772025681411741200,1.0087412109375,-1.089316964149475,-0.31892064213752747,0.4811609387397766
1772025681421739300,1.0187392578125,-0.9613121747970581,-0.1549796462059021,0.43137234449386597
1772025681431736300,1.028736328125,-0.7686563730239868,0.0847744420170784,0.3325332701206207
1772025681441734400,1.038734375,-0.5791266560554504,0.26841700077056885,0.21466363966464996
1772025681451731500,1.0487314453125,-0.44594767689704895,0.37396809458732605,0.12763842940330505
1772025681461728300,1.058728271484375,-0.3623233735561371,0.43430015444755554,0.07951457053422928
1772025681471726300,1.068726318359375,-0.32333675026893616,0.4575715959072113,0.06036195158958435
1772025681481723400,1.078723388671875,-0.3346322774887085,0.42852476239204407,0.054363448172807693
1772025681491721500,1.088721435546875,-0.38274165987968445,0.37023797631263733,0.06431186944246292
1772025681501718300,1.09871826171875,-0.44669851660728455,0.2574901282787323,0.09142684191465378
1772025681511715300,1.10871533203125,-0.5179542303085327,0.11703689396381378,0.12858836352825165
1772025681521713200,1.118713134765625,-0.5909608006477356,-0.0338711254298687,0.14988300204277039
1772025681531710500,1.12871044921875,-0.6453220248222351,-0.16861484944820404,0.17044247686862946
1772025681541708300,1.138708251953125,-0.6805285215377808,-0.2560189962387085,0.20440417528152466
1772025681551705300,1.148705322265625,-0.711460292339325,-0.3157941401004791,0.24162346124649048
1772025681561702100,1.1587021484375,-0.7375297546386719,-0.3828325569629669,0.27297312021255493
1772025681571700200,1.1687001953125,-0.7767523527145386,-0.4439893364906311,0.3040340542793274
1772025681581697300,1.178697265625,-0.8491809964179993,-0.5079225301742554,0.34473860263824463
1772025681591695400,1.1886953125,-0.9603841304779053,-0.5565031170845032,0.39047032594680786
1772025681601692400,1.1986923828125,-1.1012924909591675,-0.5991973280906677,0.4432714879512787
1772025681611689200,1.208689208984375,-1.249287486076355,-0.6422843337059021,0.4999433755874634
1772025681621687300,1.218687255859375,-1.3664244413375854,-0.6794729828834534,0.5523008704185486
1772025681631684400,1.228684326171875,-1.4151312112808228,-0.743878185749054,0.595722496509552
1772025681641682400,1.238682373046875,-1.39201021194458,-0.8255637288093567,0.6427496671676636
1772025681651679200,1.24867919921875,-1.3237069845199585,-0.9053820371627808,0.6925681233406067
1772025681661676300,1.25867626953125,-1.2375975847244263,-0.9651758670806885,0.7381914854049683
1772025681671674400,1.26867431640625,-1.177910566329956,-0.9853740930557251,0.750541090965271
1772025681681671400,1.27867138671875,-1.1504310369491577,-0.8582683205604553,0.6297640800476074
1772025681691669200,1.288669189453125,-1.174160122871399,-0.8521965146064758,0.44672292470932007
1772025681701666300,1.298666259765625,-1.0846890211105347,-0.9886789917945862,0.3546915352344513
1772025681711664400,1.308664306640625,-1.0497913360595703,-0.9137777090072632,0.2845560908317566
1772025681721661400,1.318661376953125,-1.0982054471969604,-0.7812875509262085,0.1968344897031784
1772025681731658500,1.328658447265625,-1.138190746307373,-0.6763836741447449,0.09433391690254211
1772025681741656300,1.33865625,-1.1532474756240845,-0.5360739827156067,-0.0155052300542593
1772025681751653400,1.3486533203125,-1.12568199634552,-0.3706565797328949,-0.13015249371528625
1772025681761651200,1.358651123046875,-1.0487488508224487,-0.17552118003368378,-0.23409833014011383
1772025681771648500,1.3686484375,-0.949276864528656,0.01942511461675167,-0.3456541895866394
1772025681781645300,1.378645263671875,-0.8367407321929932,0.15802747011184692,-0.48631730675697327
1772025681791643400,1.388643310546875,-0.7208049297332764,0.23169857263565063,-0.6294245719909668
1772025681801640200,1.39864013671875,-0.6125985980033875,0.2793595492839813,-0.7706948518753052
1772025681811638300,1.40863818359375,-0.512629508972168,0.3489854335784912,-0.8769891262054443
1772025681821635300,1.41863525390625,-0.42965978384017944,0.39629116654396057,-0.9404634833335876
1772025681831632400,1.42863232421875,-0.35938379168510437,0.36922428011894226,-0.9646771550178528
1772025681841630500,1.43863037109375,-0.33338627219200134,0.33980250358581543,-0.9482321739196777
1772025681851627300,1.448627197265625,-0.33037611842155457,0.31962165236473083,-0.9274665117263794
1772025681861625300,1.458625244140625,-0.33228906989097595,0.22823980450630188,-0.9115746021270752
1772025681871622400,1.468622314453125,-0.3301352560520172,0.1142277792096138,-0.8671850562095642
1772025681881620500,1.478620361328125,-0.32211408019065857,0.057119220495224,-0.7741661667823792
1772025681891617300,1.4886171875,-0.31427815556526184,0.0590902641415596,-0.6502725481987
1772025681901614300,1.4986142578125,-0.30164384841918945,0.09447914361953735,-0.5193504691123962
1772025681911612200,1.508612060546875,-0.27213266491889954,0.09537402540445328,-0.40278851985931396
1772025681921609500,1.518609375,-0.23579248785972595,0.02714996039867401,-0.30950650572776794
1772025681931607300,1.528607177734375,-0.21591980755329132,-0.05437072366476059,-0.2534772455692291
1772025681941604400,1.538604248046875,-0.23624984920024872,-0.08418162167072296,-0.24644754827022552
1772025681951601200,1.54860107421875,-0.30012062191963196,-0.09925322234630585,-0.2979746162891388
1772025681961599200,1.55859912109375,-0.3978559672832489,-0.06770835071802139,-0.38092249631881714
1772025681971596300,1.56859619140625,-0.4919572174549103,-0.014384648762643337,-0.4618344306945801
1772025681981594400,1.578594482421875,-0.5668514370918274,0.04034703969955444,-0.5048628449440002
1772025681991591400,1.58859130859375,-0.6003713607788086,0.1005982905626297,-0.4915202856063843
1772025682001588200,1.598588134765625,-0.6074023842811584,0.137317955493927,-0.4321211278438568
1772025682011586300,1.60858642578125,-0.6015951633453369,0.11075489968061447,-0.3637527823448181
1772025682021583400,1.618583251953125,-0.5982565879821777,0.04333990812301636,-0.3056063950061798
1772025682031581400,1.62858154296875,-0.5958204865455627,-0.024242296814918518,-0.2691025137901306
1772025682041578200,1.638578125,-0.5825835466384888,-0.05397036299109459,-0.2415286898612976
1772025682051575300,1.6485751953125,-0.5574936866760254,-0.06151233986020088,-0.19340644776821136
1772025682061573400,1.658573486328125,-0.5275232791900635,-0.03039916418492794,-0.08339579403400421
1772025682071570400,1.6685703125,-0.5010508894920349,0.03146717697381973,0.09345381706953049
1772025682081568300,1.678568359375,-0.5001198649406433,0.10758138447999954,0.30320411920547485
1772025682091565300,1.6885654296875,-0.5417227745056152,0.15336988866329193,0.48210859298706055
1772025682101563400,1.6985634765625,-0.6079747676849365,0.17531166970729828,0.5894728899002075
1772025682111560400,1.708560546875,-0.6786128878593445,0.19443513453006744,0.6219850778579712
1772025682121557200,1.71855712890625,-0.7506881356239319,0.18901321291923523,0.6029320359230042
1772025682131555300,1.728555419921875,-0.8198841214179993,0.17675326764583588,0.5332517623901367
1772025682141552400,1.738552490234375,-0.8827317953109741,0.14826570451259613,0.413189560174942
1772025682151550200,1.74855029296875,-0.9380828738212585,0.1278601884841919,0.27969714999198914
1772025682161547500,1.758547607421875,-0.9853108525276184,0.14399948716163635,0.1464562565088272
1772025682171544300,1.76854443359375,-1.0198293924331665,0.18209101259708405,0.05057254806160927
1772025682181542400,1.77854248046875,-1.0296944379806519,0.22890380024909973,0.03030802309513092
1772025682191539200,1.788539306640625,-1.04639732837677,0.2555396854877472,0.07130376994609833
1772025682201537300,1.798537353515625,-1.070855736732483,0.25777673721313477,0.1408035010099411
1772025682211534300,1.808534423828125,-1.1058650016784668,0.2896950840950012,0.21662814915180206
1772025682221531400,1.818531494140625,-1.1410096883773804,0.345039039850235,0.2843022644519806
1772025682231529200,1.828529296875,-1.1551097631454468,0.4280640482902527,0.3470463156700134
1772025682241526300,1.8385263671875,-1.1276925802230835,0.48307111859321594,0.4030797779560089
1772025682251524400,1.8485244140625,-1.0543460845947266,0.443618506193161,0.44432446360588074
1772025682261521400,1.858521484375,-0.9535138010978699,0.3193087875843048,0.44899722933769226
1772025682271519500,1.86851953125,-0.8468269109725952,0.13920685648918152,0.3987615704536438
1772025682281516300,1.878516357421875,-0.7546210885047913,-0.010451074689626694,0.3050518333911896
1772025682291513300,1.888513427734375,-0.678593635559082,-0.12071917206048965,0.19439047574996948
1772025682301511200,1.89851123046875,-0.6137635111808777,-0.1616775244474411,0.10028261691331863
1772025682311508500,1.908508544921875,-0.5502798557281494,-0.15038685500621796,0.03194018825888634
1772025682321506300,1.91850634765625,-0.47868821024894714,-0.09102153778076172,0.0067086005583405495
1772025682331503400,1.92850341796875,-0.4055118262767792,-0.0133321238681674,0.01957455463707447
1772025682341500200,1.938500244140625,-0.3460301160812378,0.04594904184341431,0.05037986859679222
1772025682351498200,1.948498291015625,-0.2980634272098541,0.07796494662761688,0.08274498581886292
1772025682361495300,1.958495361328125,-0.2578962743282318,0.07667357474565506,0.10361191630363464
1772025682371493400,1.968493408203125,-0.22813411056995392,0.06811213493347168,0.11637113988399506
1772025682381490200,1.978490234375,-0.20086227357387543,0.05729357525706291,0.14198674261569977
1772025682391487500,1.988487548828125,-0.19150130450725555,0.03774835169315338,0.15915653109550476
1772025682401482200,1.998482177734375,-0.17668721079826355,0.02798786759376526,0.18228155374526978
1772025682411479300,2.008479248046875,-0.07995240390300751,0.06992854923009872,0.19213885068893433
1772025682421477400,2.018477294921875,0.11306072771549225,0.17521315813064575,0.18496163189411163
1772025682431474400,2.028474365234375,0.32214030623435974,0.2492154836654663,0.1808975636959076
1772025682441471200,2.03847119140625,0.5485368967056274,0.22657142579555511,0.19473561644554138
1772025682451469300,2.04846923828125,0.7140544652938843,0.1800544261932373,0.20095740258693695
1772025682461466400,2.05846630859375,0.7932494282722473,0.10557273775339127,0.18553024530410767
1772025682471464400,2.06846435546875,0.8275673985481262,0.006002605427056551,0.16015934944152832
1772025682481461200,2.078461181640625,0.8179299235343933,-0.09359749406576157,0.11606432497501373
1772025682491459300,2.088459228515625,0.7780411243438721,-0.19612722098827362,0.05609619617462158
1772025682501456400,2.098456298828125,0.7092493176460266,-0.3065144419670105,-0.014986235648393631
1772025682511453400,2.108453369140625,0.6089735627174377,-0.47768768668174744,-0.10043267905712128
1772025682521451300,2.118451171875,0.4733752906322479,-0.5932909846305847,-0.1665283441543579
1772025682531448300,2.1284482421875,0.3313179910182953,-0.7124844789505005,-0.18200556933879852
1772025682541446400,2.1384462890625,0.15710972249507904,-0.8040644526481628,-0.23851464688777924
1772025682551443500,2.148443359375,-0.0037026889622211456,-0.7801907062530518,-0.26986953616142273
1772025682561440300,2.158440185546875,-0.12232254445552826,-0.7330365180969238,-0.2964971661567688
1772025682571438300,2.168438232421875,-0.19234588742256165,-0.6549543142318726,-0.3106597363948822
1772025682581435400,2.178435302734375,-0.23164695501327515,-0.5523688197135925,-0.3293799161911011
1772025682591433200,2.18843310546875,-0.24470770359039307,-0.45570647716522217,-0.3535405397415161
1772025682601430500,2.198430419921875,-0.24462246894836426,-0.36193230748176575,-0.37015146017074585
1772025682611427300,2.20842724609375,-0.23338690400123596,-0.2752595841884613,-0.37834805250167847
1772025682621425400,2.21842529296875,-0.22252492606639862,-0.19875626266002655,-0.3693108558654785
1772025682631422200,2.228422119140625,-0.21219539642333984,-0.14700551331043243,-0.34439823031425476
1772025682641420300,2.238420166015625,-0.1940946877002716,-0.11557675153017044,-0.3184049725532532
1772025682651417300,2.248417236328125,-0.18117733299732208,-0.08186164498329163,-0.3013225495815277
1772025682661414400,2.258414306640625,-0.16013357043266296,-0.059528376907110214,-0.285690575838089
1772025682671412200,2.268412109375,-0.1418527513742447,-0.04299989342689514,-0.2781563401222229
1772025682681409300,2.2784091796875,-0.13725772500038147,-0.04429472237825394,-0.29008516669273376
1772025682691407400,2.288407470703125,-0.14390526711940765,-0.06549421697854996,-0.3115682303905487
1772025682701404400,2.298404296875,-0.1460869312286377,-0.07385920733213425,-0.32410478591918945
1772025682711402500,2.308402587890625,-0.15134170651435852,-0.012524534948170185,-0.31650790572166443
1772025682721399300,2.3183994140625,-0.16115997731685638,0.05662577226758003,-0.2747623324394226
1772025682731396400,2.328396240234375,-0.19405321776866913,0.08179717510938644,-0.24710406363010406
1772025682741394200,2.338394287109375,-0.23199179768562317,0.047500185668468475,-0.2469456046819687
1772025682751391500,2.3483916015625,-0.2562754154205322,-0.01937471143901348,-0.2803935110569
1772025682761389300,2.358389404296875,-0.25355446338653564,-0.10325708985328674,-0.3153965175151825
1772025682771386400,2.368386474609375,-0.24342510104179382,-0.19143016636371613,-0.34578436613082886
1772025682781383200,2.378383056640625,-0.2522127330303192,-0.29926660656929016,-0.37984514236450195
1772025682791381200,2.38838134765625,-0.2774754464626312,-0.4079931974411011,-0.4019572138786316
1772025682801378300,2.39837841796875,-0.31936830282211304,-0.49445006251335144,-0.41884565353393555
1772025682811376400,2.40837646484375,-0.3538999855518341,-0.5666236877441406,-0.42678895592689514
1772025682821373200,2.418373291015625,-0.3951587677001953,-0.6140226125717163,-0.41284438967704773
1772025682831370200,2.428370361328125,-0.43601471185684204,-0.6024840474128723,-0.3742605745792389
1772025682841368300,2.438368408203125,-0.4777437746524811,-0.5323798060417175,-0.2987421154975891
1772025682851365400,2.448365478515625,-0.523593544960022,-0.4650692045688629,-0.22535404562950134
1772025682861363500,2.458363525390625,-0.5583710074424744,-0.4223718047142029,-0.14879482984542847
1772025682871360300,2.4683603515625,-0.5709506869316101,-0.413560152053833,-0.06601615995168686
1772025682881358300,2.4783583984375,-0.5627148747444153,-0.41240382194519043,0.015253392048180103
1772025682891355400,2.48835546875,-0.5142474174499512,-0.4168841242790222,0.07577987760305405
1772025682901352400,2.4983525390625,-0.4484518766403198,-0.4341616630554199,0.11391554027795792
1772025682911350300,2.508350341796875,-0.3726827800273895,-0.4577274024486542,0.13616813719272614
1772025682921347300,2.518347412109375,-0.29798856377601624,-0.4465152323246002,0.18742439150810242
1772025682931345200,2.52834521484375,-0.22594740986824036,-0.39109522104263306,0.26239997148513794
1772025682941342500,2.538342529296875,-0.15779152512550354,-0.3113572597503662,0.3380204141139984
1772025682951339300,2.54833935546875,-0.09249069541692734,-0.24075308442115784,0.41343018412590027
1772025682961337300,2.55833740234375,-0.00820857286453247,-0.1767972707748413,0.4972715377807617
1772025682971334400,2.56833447265625,0.06806476414203644,-0.14978449046611786,0.5753098130226135
1772025682981332200,2.578332275390625,0.13069671392440796,-0.1842106431722641,0.6211183071136475
1772025682991329500,2.58832958984375,0.16374875605106354,-0.25750502943992615,0.6539399027824402
1772025683001326300,2.598326416015625,0.19224831461906433,-0.35751524567604065,0.6668162941932678
1772025683011324400,2.608324462890625,0.2115737348794937,-0.4294416308403015,0.6899967193603516
1772025683021321200,2.6183212890625,0.24366295337677002,-0.4631170332431793,0.6954479217529297
1772025683031319300,2.6283193359375,0.2694339454174042,-0.4740741550922394,0.6709100008010864
1772025683041316400,2.63831640625,0.29692068696022034,-0.48151716589927673,0.6178103089332581
1772025683051313400,2.6483134765625,0.32103538513183594,-0.47481346130371094,0.5286835432052612
1772025683061311200,2.658311279296875,0.34435510635375977,-0.43047264218330383,0.41736072301864624
1772025683071308300,2.668308349609375,0.35868528485298157,-0.37643513083457947,0.2957894206047058
1772025683081306400,2.678306396484375,0.35440024733543396,-0.32156628370285034,0.16285747289657593
1772025683091303400,2.688303466796875,0.3320150077342987,-0.29273873567581177,0.02264786884188652
1772025683101301500,2.698301513671875,0.2995601296424866,-0.28180086612701416,-0.10459024459123611
1772025683111298300,2.70829833984375,0.2650659382343292,-0.2703912556171417,-0.20138250291347504
1772025683121295400,2.71829541015625,0.2341732680797577,-0.25357019901275635,-0.24919158220291138
1772025683131293200,2.728293212890625,0.20227868854999542,-0.23366597294807434,-0.2606813907623291
1772025683141290500,2.73829052734375,0.17668703198432922,-0.21070553362369537,-0.2358545958995819
1772025683151288300,2.748288330078125,0.1590861976146698,-0.1813620626926422,-0.18000945448875427
1772025683161285400,2.758285400390625,0.14617279171943665,-0.15516722202301025,-0.10471203923225403
1772025683171282200,2.7682822265625,0.1344328671693802,-0.13228139281272888,-0.021130148321390152
1772025683181280300,2.7782802734375,0.11994580179452896,-0.11545420438051224,0.05901821330189705
1772025683191277300,2.78827734375,0.0943397656083107,-0.10019700229167938,0.13053739070892334
1772025683201275400,2.798275390625,0.06032586842775345,-0.09701026231050491,0.18031586706638336
1772025683211272200,2.808272216796875,0.016572430729866028,-0.10782386362552643,0.21180930733680725
1772025683221270300,2.818270263671875,-0.03488516807556152,-0.11860859394073486,0.23340460658073425
1772025683231267300,2.828267333984375,-0.09889600425958633,-0.10311220586299896,0.2591434419155121
1772025683241264400,2.838264404296875,-0.17634472250938416,-0.04714187979698181,0.2756428122520447
1772025683251262500,2.848262451171875,-0.2535155415534973,0.03149113431572914,0.28216639161109924
1772025683261259300,2.85825927734375,-0.3213545083999634,0.09555027633905411,0.2694564759731293
1772025683271257300,2.86825732421875,-0.3779338300228119,0.13181613385677338,0.2321259081363678
1772025683281254400,2.87825439453125,-0.43787357211112976,0.1295950561761856,0.16961699724197388
1772025683291251500,2.88825146484375,-0.5189698934555054,0.10190007835626602,0.06882159411907196
1772025683301249300,2.898249267578125,-0.6039777398109436,0.054446276277303696,-0.05402868613600731
1772025683311246300,2.908246337890625,-0.6880427002906799,0.0018938463181257248,-0.18363364040851593
1772025683321244200,2.918244140625,-0.7468490600585938,-0.01164939347654581,-0.30231207609176636
1772025683331241500,2.928241455078125,-0.7855066657066345,0.03126353770494461,-0.3950374722480774
1772025683341238300,2.93823828125,-0.7975185513496399,0.12185921519994736,-0.4622540771961212
1772025683351236400,2.948236328125,-0.7781103849411011,0.22708380222320557,-0.4956434965133667
1772025683361233200,2.958233154296875,-0.7270221710205078,0.31243810057640076,-0.5064285397529602
1772025683371231200,2.968231201171875,-0.6538223028182983,0.3731785714626312,-0.5006359219551086
1772025683381228500,2.978228515625,-0.5735636949539185,0.42752543091773987,-0.4877360463142395
1772025683391226400,2.988226318359375,-0.5018712878227234,0.48126497864723206,-0.4677720367908478
1772025683401223000,2.998222900390625,-0.4405309855937958,0.5344517827033997,-0.4434531033039093
1772025683411220000,3.008219970703125,-0.3922308087348938,0.5739732980728149,-0.4218001365661621
1772025683421217800,3.0182177734375,-0.34782925248146057,0.5805859565734863,-0.4023100733757019
1772025683431215000,3.028215087890625,-0.3185785114765167,0.5473303198814392,-0.3983854353427887
1772025683441213000,3.038212890625,-0.2987174689769745,0.4789816737174988,-0.3930574953556061
1772025683451210000,3.0482099609375,-0.2907472848892212,0.3827332854270935,-0.3751627206802368
1772025683461207000,3.05820703125,-0.3048356771469116,0.2814575135707855,-0.3529133200645447
1772025683471205000,3.068205078125,-0.3371976315975189,0.1716742068529129,-0.33658868074417114
1772025683481202200,3.0782021484375,-0.3706488013267517,0.0663757473230362,-0.319747656583786
1772025683491200000,3.088199951171875,-0.39592719078063965,-0.008801701478660107,-0.30214253067970276
1772025683501197000,3.098197021484375,-0.39777064323425293,-0.05496120825409889,-0.27626222372055054
1772025683511194000,3.108194091796875,-0.3774528205394745,-0.08320287615060806,-0.24724453687667847
1772025683521192200,3.118192138671875,-0.34745150804519653,-0.10437660664319992,-0.21881315112113953
1772025683531189000,3.12818896484375,-0.29991164803504944,-0.10555204004049301,-0.16618533432483673
1772025683541187000,3.13818701171875,-0.24244970083236694,-0.08320305496454239,-0.09763237833976746
1772025683551184000,3.148183837890625,-0.18779565393924713,-0.045436471700668335,-0.017310449853539467
1772025683561182000,3.158181884765625,-0.13654977083206177,-0.018340405076742172,0.05974358692765236
1772025683571179000,3.168178955078125,-0.09249444305896759,-0.003528323955833912,0.1313161849975586
1772025683581176000,3.178176025390625,-0.05603070557117462,0.01044075470417738,0.18732379376888275
1772025683591174100,3.188174072265625,-0.04167282208800316,0.03932056203484535,0.23216421902179718
1772025683601171000,3.1981708984375,-0.04903965815901756,0.06576015800237656,0.2566016614437103
1772025683611169000,3.2081689453125,-0.05882926285266876,0.09424964338541031,0.2610446810722351
1772025683621166000,3.218166015625,-0.057638827711343765,0.12915782630443573,0.26567646861076355
1772025683631163100,3.2281630859375,-0.048703137785196304,0.16325743496418,0.26472944021224976
1772025683641161000,3.238160888671875,-0.03893599659204483,0.18597206473350525,0.2622164785861969
1772025683651158000,3.248157958984375,-0.025736723095178604,0.2085278481245041,0.27382126450538635
1772025683661155800,3.25815576171875,-0.016889702528715134,0.2264605164527893,0.2989862561225891
1772025683671153200,3.268153076171875,-0.014341559261083603,0.24879759550094604,0.3420935273170471
1772025683681150000,3.27814990234375,-0.02485545165836811,0.28930240869522095,0.3948371708393097
1772025683691148000,3.28814794921875,-0.044163644313812256,0.3401281535625458,0.44715404510498047
1772025683701144800,3.298144775390625,-0.07902894914150238,0.346343457698822,0.4648030698299408
1772025683711143000,3.308142822265625,-0.13005562126636505,0.29505449533462524,0.4489639401435852
1772025683721140000,3.318139892578125,-0.18538226187229156,0.22707599401474,0.40753018856048584
1772025683731138000,3.328137939453125,-0.24302928149700165,0.16151538491249084,0.3538762927055359
1772025683741135000,3.338135009765625,-0.3042561709880829,0.10326594114303589,0.2908251881599426
1772025683751132000,3.3481318359375,-0.36937224864959717,0.05055336281657219,0.20674242079257965
1772025683761130000,3.3581298828125,-0.42004474997520447,0.00807834230363369,0.11655580252408981
1772025683771127000,3.368126953125,-0.4522940218448639,-0.01624819077551365,0.02268935926258564
1772025683781125000,3.378125,-0.46090269088745117,-0.017209060490131378,-0.05200378969311714
1772025683791122000,3.388121826171875,-0.4507645070552826,0.004273009952157736,-0.10044531524181366
1772025683801119000,3.398118896484375,-0.4306911826133728,0.032018888741731644,-0.11692256480455399
1772025683811117000,3.408116943359375,-0.39923784136772156,0.052820056676864624,-0.10291935503482819
1772025683821114000,3.418114013671875,-0.365398645401001,0.06755825132131577,-0.06390590965747833
1772025683831112000,3.42811181640625,-0.329942524433136,0.07773768901824951,-0.01713874749839306
1772025683841109000,3.43810888671875,-0.3051016330718994,0.10072982311248779,0.026979178190231323
1772025683851107000,3.448107177734375,-0.2764267027378082,0.13663654029369354,0.07791793346405029
1772025683861104000,3.458104248046875,-0.23825961351394653,0.19442901015281677,0.12476266920566559
1772025683871101000,3.468100830078125,-0.16720081865787506,0.2732377052307129,0.18411844968795776
1772025683881099000,3.47809912109375,-0.06571014970541,0.35219964385032654,0.25960201025009155
1772025683891096000,3.488095947265625,0.07013028115034103,0.4415290653705597,0.3519267737865448
1772025683901094000,3.498093994140625,0.20117883384227753,0.5111528635025024,0.4482405185699463
1772025683911091200,3.50809130859375,0.30431339144706726,0.5299088358879089,0.5286606550216675
1772025683921088000,3.518087890625,0.3884810209274292,0.4879634976387024,0.5751572847366333
1772025683931086000,3.528086181640625,0.44929856061935425,0.4006822407245636,0.5743233561515808
1772025683941083000,3.538082763671875,0.496727854013443,0.29041990637779236,0.5321774482727051
1772025683951081000,3.5480810546875,0.5251855254173279,0.17155581712722778,0.47009164094924927
1772025683961078000,3.558078125,0.5238033533096313,0.042908620089292526,0.3913896381855011
1772025683971075000,3.568074951171875,0.49693483114242554,-0.07860250771045685,0.3172442615032196
1772025683981073000,3.578072998046875,0.461294561624527,-0.16985385119915009,0.26328542828559875
1772025683991070000,3.588070068359375,0.39066818356513977,-0.3180862367153168,0.20325759053230286
1772025684001068000,3.598068115234375,0.2857918441295624,-0.5630797743797302,0.1410520076751709
1772025684011065000,3.608065185546875,0.3278045952320099,-0.07299614697694778,0.2379482239484787
1772025684021063200,3.618063232421875,0.4092445969581604,0.028910240158438683,0.3054713308811188
1772025684031060000,3.62806005859375,0.3557262122631073,-0.1892217993736267,0.18452905118465424
1772025684041057000,3.63805712890625,0.18366868793964386,-0.4026182293891907,-0.044266313314437866
1772025684051054800,3.648054931640625,-0.0075899288058280945,-0.551118791103363,-0.2900910973548889
1772025684061052200,3.65805224609375,-0.14482368528842926,-0.6395487785339355,-0.48602280020713806
1772025684071050000,3.668050048828125,-0.23445861041545868,-0.6119738221168518,-0.618525505065918
1772025684081047000,3.678047119140625,-0.29659655690193176,-0.5043091177940369,-0.6883983612060547
1772025684091043800,3.6880439453125,-0.34165239334106445,-0.35795965790748596,-0.6868064403533936
1772025684101042000,3.6980419921875,-0.36284634470939636,-0.17466279864311218,-0.6065872311592102
1772025684111039000,3.7080390625,-0.3616677224636078,0.012707560323178768,-0.4654987156391144
1772025684121037000,3.718037109375,-0.35277196764945984,0.16516633331775665,-0.2970612347126007
1772025684131033900,3.728033935546875,-0.32915353775024414,0.25835853815078735,-0.1276693046092987
1772025684141032000,3.738031982421875,-0.2956294119358063,0.2925492525100708,0.0209667831659317
1772025684151029000,3.748029052734375,-0.2390330284833908,0.29570630192756653,0.13757354021072388
1772025684161026000,3.758026123046875,-0.15557807683944702,0.2631757855415344,0.20756328105926514
1772025684171024100,3.768024169921875,-0.06216924265027046,0.19699904322624207,0.23501914739608765
1772025684181021000,3.77802099609375,0.015514099039137363,0.14468924701213837,0.21609711647033691
1772025684191019000,3.78801904296875,0.06654505431652069,0.11580576002597809,0.16551823914051056
1772025684201016000,3.79801611328125,0.09108022600412369,0.08609127998352051,0.0885680615901947
1772025684211013000,3.80801318359375,0.097584068775177,0.05032312870025635,0.00405404856428504
1772025684221011000,3.818010986328125,0.09403301775455475,0.025887826457619667,-0.07066918909549713
1772025684231008000,3.828008056640625,0.0686589777469635,0.005010283552110195,-0.13229405879974365
1772025684241005800,3.838005859375,0.028700105845928192,-0.02278193086385727,-0.1610785722732544
1772025684251003100,3.848003173828125,-0.02150788903236389,-0.03204773738980293,-0.14995504915714264
1772025684261000000,3.858,-0.07287600636482239,-0.029038365930318832,-0.10846593976020813
1772025684270998000,3.867998046875,-0.11437550187110901,-0.04026567563414574,-0.04978556931018829
1772025684280994800,3.877994873046875,-0.1334645003080368,-0.07918059080839157,0.015608086250722408
1772025684290993000,3.887992919921875,-0.12576158344745636,-0.15602971613407135,0.07123499363660812
1772025684300990200,3.897990234375,-0.10864891111850739,-0.24505972862243652,0.11523866653442383
1772025684310988000,3.907988037109375,-0.09825814515352249,-0.3355080783367157,0.14661718904972076
1772025684320985000,3.917985107421875,-0.08820471167564392,-0.4124971330165863,0.16999441385269165
1772025684330982000,3.92798193359375,-0.08830397576093674,-0.4717664122581482,0.18160490691661835
1772025684340980000,3.93797998046875,-0.09483830630779266,-0.5150973796844482,0.16920842230319977
1772025684350977000,3.94797705078125,-0.09535270929336548,-0.5440344214439392,0.14303293824195862
1772025684360975000,3.95797509765625,-0.1087995395064354,-0.5528889298439026,0.10592764616012573
1772025684370972000,3.967971923828125,-0.11766957491636276,-0.531213104724884,0.0677676796913147
1772025684380969000,3.977968994140625,-0.13084688782691956,-0.49066272377967834,0.037143196910619736
1772025684390966800,3.987966796875,-0.14626111090183258,-0.44130608439445496,0.004350443836301565
1772025684400964000,3.997964111328125,-0.14189618825912476,-0.3974161148071289,-0.002296539954841137
1772025684410962200,4.007962158203125,-0.12173207104206085,-0.35347050428390503,0.01577513851225376
1772025684420959000,4.017958984375,-0.07591398060321808,-0.3104465901851654,0.0535704530775547
1772025684430957000,4.02795703125,0.0053221252746880054,-0.26525089144706726,0.1102277934551239
1772025684440954000,4.0379541015625,0.12025324255228043,-0.20100240409374237,0.1800992786884308
1772025684450951200,4.047951171875,0.2325575351715088,-0.17021383345127106,0.22653089463710785
1772025684460949200,4.05794921875,0.30571243166923523,-0.21193519234657288,0.21830491721630096
1772025684470946000,4.067946044921875,0.34191498160362244,-0.29319363832473755,0.15190489590168
1772025684480944000,4.077944091796875,0.3612458109855652,-0.3686324656009674,0.06763661652803421
1772025684490941000,4.08794091796875,0.356414258480072,-0.4262109100818634,-0.027161812409758568
1772025684500938200,4.097938232421875,0.32391783595085144,-0.46963852643966675,-0.14209158718585968
1772025684510936000,4.10793603515625,0.25686946511268616,-0.5067525506019592,-0.2600588798522949
1772025684520933000,4.11793310546875,0.1858711987733841,-0.5024733543395996,-0.3487163186073303
1772025684530931000,4.127930908203125,0.1264583021402359,-0.43917396664619446,-0.38951724767684937
1772025684540928000,4.137927978515625,0.08809013664722443,-0.3433536887168884,-0.37029269337654114
1772025684550926300,4.14792626953125,0.06912142783403397,-0.23483525216579437,-0.3161934018135071
1772025684560923100,4.157923095703125,0.07533805072307587,-0.1167573481798172,-0.22785073518753052
1772025684570920000,4.167919921875,0.10117349773645401,-0.01175682246685028,-0.118238165974617
1772025684580918000,4.17791796875,0.14316649734973907,0.08206581324338913,-0.004231435712426901
1772025684590915300,4.187915283203125,0.19165530800819397,0.14109674096107483,0.09656313806772232
1772025684600913200,4.1979130859375,0.22903889417648315,0.1630161553621292,0.17119023203849792
1772025684610910200,4.20791015625,0.24734413623809814,0.15881970524787903,0.22729265689849854
1772025684620907000,4.217906982421875,0.24903364479541779,0.1500866711139679,0.2688097357749939
1772025684630905000,4.227905029296875,0.23861849308013916,0.1511441469192505,0.30086058378219604
1772025684640902100,4.237902099609375,0.21101029217243195,0.15230341255664825,0.3181207776069641
1772025684650900200,4.247900146484375,0.1689118593931198,0.1474848836660385,0.31174054741859436
1772025684660897000,4.25789697265625,0.13238634169101715,0.1428845375776291,0.2994614839553833
1772025684670895000,4.26789501953125,0.1035676971077919,0.13635262846946716,0.29484501481056213
1772025684680892000,4.277891845703125,0.07967408746480942,0.1136406660079956,0.288235604763031
1772025684690889200,4.28788916015625,0.06136367842555046,0.0811195969581604,0.2801603078842163
1772025684700887300,4.29788720703125,0.03240898996591568,0.03913113474845886,0.2563748061656952
1772025684710884000,4.307884033203125,-0.013181913644075394,-0.002505747601389885,0.20569220185279846
1772025684720882200,4.317882080078125,-0.07387083023786545,-0.058576203882694244,0.12869834899902344
1772025684730879000,4.32787890625,-0.16157245635986328,-0.10869157314300537,0.014790156856179237
1772025684740876300,4.337876220703125,-0.25805291533470154,-0.14970478415489197,-0.11775164306163788
1772025684750874000,4.3478740234375,-0.3536326587200165,-0.16418446600437164,-0.2640402913093567
1772025684760871200,4.35787109375,-0.4343317747116089,-0.12527967989444733,-0.402659147977829
1772025684770869000,4.367868896484375,-0.4807782471179962,-0.017388857901096344,-0.5141996145248413
1772025684780866000,4.377865966796875,-0.48977920413017273,0.1336352825164795,-0.5883055329322815
1772025684790864000,4.38786376953125,-0.4604455232620239,0.2962858974933624,-0.6178173422813416
1772025684800861200,4.397861083984375,-0.402129203081131,0.4266441762447357,-0.6078712344169617
1772025684810858000,4.40785791015625,-0.3153349757194519,0.514025866985321,-0.5712198615074158
1772025684820856000,4.41785595703125,-0.22202394902706146,0.5797670483589172,-0.5076150298118591
1772025684830852900,4.427852783203125,-0.13263849914073944,0.620231032371521,-0.44061341881752014
1772025684840851000,4.437850830078125,-0.06433214247226715,0.6112410426139832,-0.3853032886981964
1772025684850848300,4.44784814453125,-0.012980731204152107,0.5640880465507507,-0.3470233976840973
1772025684860845000,4.457844970703125,0.018199292942881584,0.49112755060195923,-0.3325222134590149
1772025684870843100,4.467843017578125,0.022361330687999725,0.4025896489620209,-0.33860594034194946
1772025684880840000,4.47783984375,0.010041015222668648,0.3107660114765167,-0.35738706588745117
1772025684890838300,4.48783837890625,-0.022253351286053658,0.22233198583126068,-0.37251636385917664
1772025684900835000,4.4978349609375,-0.07316766679286957,0.14835470914840698,-0.37969863414764404
1772025684910832000,4.50783203125,-0.13419902324676514,0.09775009751319885,-0.37787702679634094
1772025684920830000,4.517829833984375,-0.18510028719902039,0.043042104691267014,-0.3638078272342682
1772025684930827300,4.5278271484375,-0.22402051091194153,-0.01787024550139904,-0.3378467857837677
1772025684940825000,4.5378251953125,-0.24672529101371765,-0.06856990605592728,-0.29500052332878113
1772025684950822100,4.547822265625,-0.2614421546459198,-0.1139363944530487,-0.247701033949852
1772025684960820200,4.5578203125,-0.26026344299316406,-0.14929306507110596,-0.196036234498024
1772025684970817000,4.567817138671875,-0.24502098560333252,-0.16440686583518982,-0.14988574385643005
1772025684980814000,4.57781396484375,-0.2185310572385788,-0.14993178844451904,-0.1087726578116417
1772025684990812200,4.587812255859375,-0.18136407434940338,-0.11717167496681213,-0.08215973526239395
1772025685000809200,4.597809326171875,-0.13542774319648743,-0.06596548110246658,-0.07284239679574966
1772025685010807000,4.60780712890625,-0.08033367991447449,-0.010877936147153378,-0.07530946284532547
1772025685020804000,4.61780419921875,-0.022151067852973938,0.05008181929588318,-0.07393953204154968
1772025685030802000,4.627802001953125,0.008912849240005016,0.11062547564506531,-0.07839512825012207
1772025685040799200,4.63779931640625,0.01631057821214199,0.16239678859710693,-0.07807048410177231
1772025685050796000,4.647796142578125,0.0038925325497984886,0.21715900301933289,-0.0762958824634552
1772025685060794000,4.657794189453125,-0.016205545514822006,0.25262191891670227,-0.071352519094944
1772025685070791000,4.667791015625,-0.04337149113416672,0.2704011797904968,-0.07430242747068405
1772025685080789000,4.6777890625,-0.0757073238492012,0.25947850942611694,-0.08237793296575546
1772025685090786000,4.6877861328125,-0.11813204735517502,0.22455371916294098,-0.09252645820379257
1772025685100783000,4.697783203125,-0.15489432215690613,0.17859314382076263,-0.09817315638065338
1772025685110781200,4.70778125,-0.19010214507579803,0.1281702220439911,-0.09571895003318787
1772025685120778000,4.717778076171875,-0.2227274626493454,0.0868864357471466,-0.07583338767290115
1772025685130776000,4.727776123046875,-0.25231271982192993,0.049787431955337524,-0.051195524632930756
1772025685140773000,4.737773193359375,-0.2764313817024231,0.026914341375231743,-0.014822338707745075
1772025685150771200,4.747771240234375,-0.29313182830810547,0.030472131446003914,0.035755883902311325
1772025685160768000,4.75776806640625,-0.29253366589546204,0.0802261084318161,0.09701710939407349
1772025685170765000,4.76776513671875,-0.29091569781303406,0.1422114372253418,0.15755999088287354
1772025685180763000,4.777762939453125,-0.3027358949184418,0.16419503092765808,0.1870473176240921
1772025685190760200,4.78776025390625,-0.32014816999435425,0.131901815533638,0.18506671488285065
1772025685200758000,4.797758056640625,-0.32899826765060425,0.07853315770626068,0.16469132900238037
1772025685210755000,4.807755126953125,-0.3268267512321472,0.019282380118966103,0.12544618546962738
1772025685220752100,4.817752197265625,-0.3167416453361511,-0.04504494369029999,0.07418166100978851
1772025685230750200,4.827750244140625,-0.30207934975624084,-0.10967009514570236,0.024739257991313934
1772025685240747000,4.8377470703125,-0.2892663776874542,-0.14918847382068634,-0.0023554766084998846
1772025685250745000,4.8477451171875,-0.28902438282966614,-0.14481103420257568,-0.01738334633409977
1772025685260742100,4.8577421875,-0.28548556566238403,-0.12119518220424652,-0.027235444635152817
1772025685270740000,4.867739990234375,-0.2792273163795471,-0.09290480613708496,-0.035147108137607574
1772025685280737300,4.8777373046875,-0.25547030568122864,-0.06498635560274124,-0.047181133180856705
1772025685290734000,4.887734130859375,-0.22410084307193756,-0.050515059381723404,-0.06589978188276291
1772025685300732200,4.897732177734375,-0.19261828064918518,-0.04989214614033699,-0.0956193283200264
1772025685310729000,4.90772900390625,-0.15507571399211884,-0.05600026249885559,-0.13359986245632172
1772025685320727000,4.91772705078125,-0.11424679309129715,-0.06097211688756943,-0.16814851760864258
1772025685330724000,4.92772412109375,-0.06508675962686539,-0.042559679597616196,-0.1829846203327179
1772025685340721200,4.93772119140625,-0.011083181947469711,0.00439051678404212,-0.16386471688747406
1772025685350719000,4.947718994140625,0.0543181374669075,0.08143281936645508,-0.11307414621114731
1772025685360716000,4.957716064453125,0.12526048719882965,0.1836385577917099,-0.027741406112909317
1772025685370714000,4.967714111328125,0.19362758100032806,0.30137333273887634,0.07357816398143768
1772025685380711200,4.977711181640625,0.25101229548454285,0.39122679829597473,0.17319102585315704
1772025685390709200,4.987709228515625,0.28759217262268066,0.4219314754009247,0.2520512640476227
1772025685400706800,4.997706787109375,0.3128378689289093,0.38972029089927673,0.3026968538761139
1772025685410704000,5.007703857421875,0.3213188052177429,0.3226184546947479,0.3144112229347229
1772025685420702000,5.017701904296875,0.3197539150714874,0.21520838141441345,0.3020147383213043
1772025685430698800,5.02769873046875,0.3240354657173157,0.1037232056260109,0.27652281522750854
1772025685440696800,5.03769677734375,0.3428376615047455,-0.0039353519678115845,0.25245314836502075
1772025685450694000,5.04769384765625,0.3708711564540863,-0.10254261642694473,0.23848992586135864
1772025685460691000,5.05769091796875,0.3956223130226135,-0.1918267011642456,0.22317782044410706
1772025685470688800,5.067688720703125,0.39880675077438354,-0.2706720530986786,0.20373746752738953
1772025685480685800,5.077685791015625,0.37296345829963684,-0.34815725684165955,0.16721300780773163
1772025685490684000,5.087683837890625,0.3285844326019287,-0.4282626211643219,0.10915657877922058
1772025685500681000,5.097680908203125,0.24631991982460022,-0.5186085104942322,0.01875370927155018
1772025685510678800,5.1076787109375,0.1460864543914795,-0.6111758947372437,-0.10094103217124939
1772025685520675800,5.11767578125,0.040636464953422546,-0.6783059239387512,-0.2346239984035492
1772025685530673000,5.1276728515625,-0.05515966936945915,-0.6901240348815918,-0.35505831241607666
1772025685540671000,5.1376708984375,-0.12405963242053986,-0.6356187462806702,-0.4291660785675049
1772025685550668000,5.14766796875,-0.16333907842636108,-0.5126352906227112,-0.4605250358581543
1772025685560665900,5.157665771484375,-0.1696193367242813,-0.3425154685974121,-0.4480963349342346
1772025685570663000,5.167662841796875,-0.1385514885187149,-0.1735021322965622,-0.39867904782295227
1772025685580660000,5.177659912109375,-0.08398838341236115,-0.01212602574378252,-0.3210638761520386
1772025685590658000,5.187657958984375,-0.015211950987577438,0.1166759803891182,-0.23413586616516113
1772025685600654800,5.19765478515625,0.04878593981266022,0.19169244170188904,-0.16426411271095276
1772025685610653000,5.20765283203125,0.09869737178087234,0.2206028252840042,-0.10390672832727432
1772025685620649700,5.217649658203125,0.13683649897575378,0.2201000154018402,-0.05270957946777344
1772025685630647800,5.227647705078125,0.1627967357635498,0.2202017456293106,-0.02083553746342659
1772025685640644900,5.237644775390625,0.1762571483850479,0.2062675505876541,-0.004259224981069565
1772025685650642000,5.247641845703125,0.18018776178359985,0.19237449765205383,-0.0008211933309212327
1772025685660640000,5.257639892578125,0.1762380301952362,0.17198693752288818,-0.01737673394382
1772025685670636800,5.26763671875,0.17178401350975037,0.1405237466096878,-0.03790591284632683
1772025685680635000,5.277634765625,0.1610719859600067,0.09651048481464386,-0.06158221513032913
1772025685690632000,5.2876318359375,0.13648270070552826,0.047024719417095184,-0.09162002801895142
1772025685700629000,5.29762890625,0.10140061378479004,-0.001499141100794077,-0.13034957647323608
1772025685710626800,5.307626708984375,0.06470712274312973,-0.05451185256242752,-0.17209258675575256
1772025685720623900,5.317623779296875,0.030448220670223236,-0.0997653529047966,-0.20794832706451416
1772025685730621000,5.327620849609375,0.0021617054007947445,-0.14644953608512878,-0.22267268598079681
1772025685740618000,5.337617919921875,-0.015189321711659431,-0.1824224591255188,-0.2190001904964447
1772025685750615800,5.34761572265625,-0.027686811983585358,-0.2277592122554779,-0.20743346214294434
1772025685760612900,5.35761279296875,-0.044226642698049545,-0.29261890053749084,-0.19624391198158264
1772025685770610700,5.367610595703125,-0.06009834632277489,-0.34807008504867554,-0.18010014295578003
1772025685780608000,5.37760791015625,-0.07748212665319443,-0.38673466444015503,-0.1510828733444214
1772025685790605800,5.387605712890625,-0.09978371858596802,-0.4144637882709503,-0.1317472606897354
1772025685800603000,5.397602783203125,-0.12108341604471207,-0.46149763464927673,-0.13037841022014618
1772025685810599700,5.407599609375,-0.1297997385263443,-0.522109866142273,-0.14455842971801758
1772025685820597800,5.41759765625,-0.1273195445537567,-0.590842068195343,-0.16214726865291595
1772025685830594800,5.4275947265625,-0.11498218029737473,-0.6252391934394836,-0.15116599202156067
1772025685840593000,5.437593017578125,-0.08100423961877823,-0.6075217127799988,-0.12219107151031494
1772025685850590000,5.44758984375,-0.03914528712630272,-0.565893828868866,-0.07015347480773926
1772025685860587800,5.457587890625,0.017878584563732147,-0.4814939498901367,-0.004633060656487942
1772025685870585000,5.467585205078125,0.11545509099960327,-0.35043954849243164,0.0852431058883667
1772025685880582000,5.477581787109375,0.2138088196516037,-0.2786298096179962,0.15842410922050476
1772025685890580000,5.487580078125,0.252845823764801,-0.3026769161224365,0.16824831068515778
1772025685900576800,5.49757666015625,0.23772600293159485,-0.35972607135772705,0.126817524433136
1772025685910574800,5.507574951171875,0.21811716258525848,-0.3545159697532654,0.07392247766256332
1772025685920572000,5.517572021484375,0.20799687504768372,-0.3258720934391022,0.0110793337225914
1772025685930569000,5.52756884765625,0.1807788908481598,-0.34069374203681946,-0.07111457735300064
1772025685940566800,5.53756689453125,0.14579667150974274,-0.3979402780532837,-0.16877536475658417
1772025685950563800,5.547563720703125,0.11595828831195831,-0.44671183824539185,-0.24221058189868927
1772025685960562000,5.55756201171875,0.10191144794225693,-0.47170212864875793,-0.2776985466480255
1772025685970559000,5.56755908203125,0.09369760006666183,-0.46522989869117737,-0.27339720726013184
1772025685980557000,5.57755712890625,0.09083763509988785,-0.4442247450351715,-0.24579060077667236
1772025685990553900,5.587553955078125,0.10487218201160431,-0.4064083695411682,-0.18559560179710388
1772025686000551000,5.597551025390625,0.13000977039337158,-0.3632204234600067,-0.1083170622587204
1772025686010548700,5.607548828125,0.15926185250282288,-0.30779314041137695,-0.020388290286064148
1772025686020546000,5.617546142578125,0.20618541538715363,-0.22900830209255219,0.07866664975881577
1772025686030544000,5.6275439453125,0.2558659017086029,-0.12143880128860474,0.19125965237617493
1772025686040541000,5.637541015625,0.30427950620651245,-0.005924190394580364,0.3069276809692383
1772025686050537700,5.647537841796875,0.34009596705436707,0.11035221070051193,0.40960073471069336
1772025686060535800,5.657535888671875,0.35790959000587463,0.20098969340324402,0.48673972487449646
1772025686070532900,5.667532958984375,0.36600974202156067,0.25485074520111084,0.5294840931892395
1772025686080531000,5.677531005859375,0.3647998571395874,0.2452913373708725,0.5394019484519958
1772025686090527700,5.68752783203125,0.34194323420524597,0.19880536198616028,0.5105452537536621
1772025686100525800,5.69752587890625,0.2975110709667206,0.12959593534469604,0.46898153424263
1772025686110523000,5.70752294921875,0.23254121840000153,0.07148037850856781,0.42458468675613403
1772025686120520000,5.71752001953125,0.15979164838790894,0.05507664009928703,0.3849310278892517
1772025686130518000,5.72751806640625,0.08197200298309326,0.06678242236375809,0.3395535945892334
1772025686140514800,5.737514892578125,-0.01266848761588335,0.0888669565320015,0.2749250531196594
1772025686150513000,5.747512939453125,-0.10940666496753693,0.10346726328134537,0.19161607325077057
1772025686160510000,5.757510009765625,-0.21709957718849182,0.11569064110517502,0.0923376977443695
1772025686170507000,5.767507080078125,-0.32580429315567017,0.13015341758728027,-0.016016509383916855
1772025686180504800,5.7775048828125,-0.4314982295036316,0.1464082896709442,-0.13160543143749237
1772025686190502000,5.787501953125,-0.525412917137146,0.1766814887523651,-0.23708266019821167
1772025686200499700,5.797499755859375,-0.5907360315322876,0.2119838148355484,-0.3275366425514221
1772025686210497000,5.8074970703125,-0.6298348307609558,0.25913891196250916,-0.40181872248649597
1772025686220495000,5.8174951171875,-0.6274166703224182,0.3244241774082184,-0.44357627630233765
1772025686230492000,5.827491943359375,-0.5989122986793518,0.407065749168396,-0.45086291432380676
1772025686240488700,5.83748876953125,-0.5418570041656494,0.5072832107543945,-0.43473055958747864
1772025686250486800,5.84748681640625,-0.45772436261177063,0.5892414450645447,-0.41057080030441284
1772025686260484000,5.857484130859375,-0.36326897144317627,0.6260159611701965,-0.3893802762031555
1772025686270482000,5.86748193359375,-0.26984769105911255,0.6155344247817993,-0.37570270895957947
1772025686280479000,5.87747900390625,-0.18916642665863037,0.5706108808517456,-0.3685598373413086
1772025686290476800,5.887476806640625,-0.11627480387687683,0.49815505743026733,-0.36819320917129517
1772025686300473900,5.897473876953125,-0.06586169451475143,0.4050682485103607,-0.3756660521030426
1772025686310471000,5.907470947265625,-0.036803796887397766,0.3032626509666443,-0.3907555639743805
1772025686320469000,5.917468994140625,-0.03220105543732643,0.20522315800189972,-0.4099029004573822
1772025686330465800,5.9274658203125,-0.049547165632247925,0.12973828613758087,-0.4278862178325653
1772025686340463900,5.9374638671875,-0.07729490846395493,0.06590311974287033,-0.4368882477283478
1772025686350460700,5.947460693359375,-0.11451827734708786,0.026656122878193855,-0.43897101283073425
1772025686360458000,5.9574580078125,-0.14351265132427216,0.015271642245352268,-0.4349355399608612
1772025686370456000,5.9674560546875,-0.15878576040267944,0.025295546278357506,-0.4077788293361664
1772025686380452900,5.977452880859375,-0.16211123764514923,0.04777955263853073,-0.3682119846343994
1772025686390451000,5.987450927734375,-0.16238170862197876,0.08615371584892273,-0.33274394273757935
1772025686400447700,5.99744775390625,-0.15436266362667084,0.10465522855520248,-0.2998906373977661
1772025686410449000,6.007448974609375,-0.13541877269744873,0.10933125019073486,-0.2606084942817688
1772025686420445700,6.01744580078125,-0.11031743139028549,0.09808605164289474,-0.22161075472831726
1772025686430442800,6.02744287109375,-0.08051744848489761,0.09181872755289078,-0.17289580404758453
1772025686440440600,6.037440673828125,-0.055001966655254364,0.08798270672559738,-0.1312655359506607
1772025686450438000,6.04743798828125,-0.03663837909698486,0.08396846055984497,-0.0887722596526146
1772025686460436000,6.05743603515625,-0.024969741702079773,0.08596263080835342,-0.05759143829345703
1772025686470432800,6.067432861328125,-0.017848778516054153,0.10082955658435822,-0.035983119159936905
1772025686480429600,6.0774296875,-0.008972728624939919,0.12091138958930969,-0.019495759159326553
1772025686490427600,6.087427734375,-0.004420089535415173,0.1461302638053894,-0.0018182360799983144
1772025686500425000,6.097425048828125,-0.005940754432231188,0.17151658236980438,0.029331160709261894
1772025686510422800,6.1074228515625,-0.009995456784963608,0.1909230500459671,0.05667687952518463
1772025686520419800,6.117419921875,-0.013629872351884842,0.2107766568660736,0.09738435596227646
1772025686530417700,6.127417724609375,0.004185868427157402,0.26206260919570923,0.14978379011154175
1772025686540414700,6.137414794921875,0.03672170639038086,0.2927224934101105,0.19365030527114868
1772025686550411800,6.147411865234375,0.05610419809818268,0.22763818502426147,0.19946518540382385
1772025686560409900,6.157409912109375,0.0466260090470314,0.07312825322151184,0.1654302477836609
1772025686570406700,6.16740673828125,0.03100377880036831,-0.09977767616510391,0.12410752475261688
1772025686580404700,6.17740478515625,0.021212667226791382,-0.1975492388010025,0.10599829256534576
1772025686590401500,6.187401611328125,0.019200915470719337,-0.24745234847068787,0.10552611202001572
1772025686600399600,6.197399658203125,0.010350165888667107,-0.29744601249694824,0.10548989474773407
1772025686610397000,6.20739697265625,-0.01827963814139366,-0.3502500355243683,0.09403788298368454
1772025686620393700,6.217393798828125,-0.046950165182352066,-0.38222822546958923,0.07126439362764359
1772025686630391800,6.227391845703125,-0.06507626175880432,-0.3921937048435211,0.041766516864299774
1772025686640388600,6.237388671875,-0.07524900138378143,-0.3980843424797058,0.00837607029825449
1772025686650386700,6.24738671875,-0.08361920714378357,-0.38639771938323975,-0.022783655673265457
1772025686660383700,6.2573837890625,-0.09097032994031906,-0.3514234721660614,-0.04279651492834091
1772025686670380800,6.267380859375,-0.09955333918333054,-0.2855561077594757,-0.04745687171816826
1772025686680378600,6.277378662109375,-0.09403447061777115,-0.2073872834444046,-0.04245651885867119
1772025686690375700,6.287375732421875,-0.08048784732818604,-0.1184806302189827,-0.03282070532441139
1772025686700373800,6.297373779296875,-0.059440627694129944,-0.03590213134884834,-0.024367302656173706
1772025686710370800,6.307370849609375,-0.03595878183841705,0.06166636943817139,-0.01257032435387373
1772025686720369000,6.317368896484375,0.0023254896514117718,0.18526341021060944,0.011278016492724419
1772025686730365700,6.32736572265625,0.06589660048484802,0.3437007665634155,0.06272541731595993
1772025686740362800,6.33736279296875,0.14414507150650024,0.5051932334899902,0.13944204151630402
1772025686750360800,6.34736083984375,0.2261950969696045,0.6418974995613098,0.22201701998710632
1772025686760358000,6.35735791015625,0.30567872524261475,0.7146846055984497,0.30474546551704407
1772025686770355700,6.367355712890625,0.38668587803840637,0.7194659113883972,0.37243151664733887
1772025686780352800,6.377352783203125,0.453174889087677,0.6618494987487793,0.4166695475578308
1772025686790350600,6.3873505859375,0.5011658072471619,0.5568689107894897,0.43434733152389526
1772025686800348000,6.397347900390625,0.5298901200294495,0.4391886293888092,0.42856720089912415
1772025686810344700,6.4073447265625,0.5363345742225647,0.3323284685611725,0.40599140524864197
1772025686820342800,6.4173427734375,0.5221367478370667,0.2440156489610672,0.3541324734687805
1772025686830339600,6.427339599609375,0.49300700426101685,0.1618902087211609,0.2872169017791748
1772025686840337700,6.437337646484375,0.44828295707702637,0.06631893664598465,0.1876349151134491
1772025686850334700,6.447334716796875,0.383445680141449,-0.06527064740657806,0.06948766857385635
1772025686860331800,6.457331787109375,0.2972990870475769,-0.2360820770263672,-0.0645311176776886
1772025686870329900,6.467329833984375,0.17626522481441498,-0.4239062964916229,-0.2077031135559082
1772025686880326700,6.47732666015625,0.038455963134765625,-0.5803778767585754,-0.3443826735019684
1772025686890324700,6.48732470703125,-0.10003568977117538,-0.6821460127830505,-0.4766159951686859
1772025686900321800,6.49732177734375,-0.21776632964611053,-0.7418476939201355,-0.5845677256584167
1772025686910319900,6.50731982421875,-0.29887935519218445,-0.7481206059455872,-0.6530585289001465
1772025686920316700,6.517316650390625,-0.31994736194610596,-0.6920653581619263,-0.6701706647872925
1772025686930313700,6.527313720703125,-0.2869514226913452,-0.5686971545219421,-0.6309828758239746
1772025686940311600,6.5373115234375,-0.21418747305870056,-0.3914123773574829,-0.5487849116325378
1772025686950308900,6.547308837890625,-0.1190553531050682,-0.20859621465206146,-0.43880435824394226
1772025686960306700,6.557306640625,-0.0020400541834533215,-0.03176232427358627,-0.32661232352256775
1772025686970303700,6.5673037109375,0.12979483604431152,0.13596808910369873,-0.24040332436561584
1772025686980300500,6.577300537109375,0.27224600315093994,0.2666475474834442,-0.1796765923500061
1772025686990298600,6.587298583984375,0.3963598906993866,0.3558277189731598,-0.15657489001750946
1772025687000296000,6.5972958984375,0.489982545375824,0.3942374289035797,-0.1559317260980606
1772025687010293800,6.607293701171875,0.5714468955993652,0.40712928771972656,-0.1764780879020691
1772025687020290800,6.617290771484375,0.6196362376213074,0.40350714325904846,-0.20960435271263123
1772025687030288600,6.62728857421875,0.6514887809753418,0.3719051778316498,-0.24434764683246613
1772025687040286000,6.637285888671875,0.6642301082611084,0.3149090111255646,-0.2752973139286041
1772025687050282800,6.64728271484375,0.6580058932304382,0.23229917883872986,-0.29780125617980957
1772025687060280800,6.65728076171875,0.6314379572868347,0.13320082426071167,-0.31976568698883057
1772025687070277600,6.667277587890625,0.5852084755897522,0.029801039025187492,-0.32383811473846436
1772025687080275700,6.677275634765625,0.537997305393219,-0.05862309783697128,-0.31138622760772705
1772025687090272800,6.687272705078125,0.49075403809547424,-0.126419335603714,-0.28163933753967285
1772025687100269800,6.697269775390625,0.4593189060688019,-0.16784827411174774,-0.23972517251968384
1772025687110268000,6.707267822265625,0.44499269127845764,-0.18375159800052643,-0.19987230002880096
1772025687120264700,6.7172646484375,0.4421803951263428,-0.19730816781520844,-0.15177534520626068
1772025687130262800,6.7272626953125,0.45071110129356384,-0.20911559462547302,-0.09303582459688187
1772025687140259800,6.737259765625,0.4603293836116791,-0.22071179747581482,-0.028860829770565033
1772025687150258000,6.7472578125,0.45848241448402405,-0.24085287749767303,0.034498680382966995
1772025687160254700,6.757254638671875,0.4414283335208893,-0.2710544466972351,0.09163599461317062
1772025687170251800,6.767251708984375,0.4179095923900604,-0.31566545367240906,0.14561715722084045
1772025687180249600,6.77724951171875,0.39019301533699036,-0.3606227934360504,0.18372459709644318
1772025687190247000,6.787246826171875,0.36636829376220703,-0.40595749020576477,0.209318608045578
1772025687200244700,6.79724462890625,0.33034852147102356,-0.4437312185764313,0.2231910079717636
1772025687210241800,6.80724169921875,0.2937789261341095,-0.4804322123527527,0.22983993589878082
1772025687220238600,6.817238525390625,0.25620466470718384,-0.4854820966720581,0.24227049946784973
1772025687230236700,6.827236572265625,0.22724910080432892,-0.45189395546913147,0.26432451605796814
1772025687240233700,6.837233642578125,0.21841992437839508,-0.35911208391189575,0.29702866077423096
1772025687250231800,6.847231689453125,0.2361377626657486,-0.2453814446926117,0.33684241771698
1772025687260228900,6.857228759765625,0.24321430921554565,-0.2045847326517105,0.34559357166290283
1772025687270226700,6.867226806640625,0.21576905250549316,-0.22318218648433685,0.3159193992614746
1772025687280223700,6.8772236328125,0.17962808907032013,-0.2463407665491104,0.26862165331840515
1772025687290220800,6.887220703125,0.14922836422920227,-0.23736314475536346,0.22717687487602234
1772025687300219000,6.897218994140625,0.11619903892278671,-0.22718960046768188,0.17553499341011047
1772025687310215700,6.907215576171875,0.06846389174461365,-0.24827826023101807,0.1125066950917244
1772025687320213800,6.9172138671875,0.016477389261126518,-0.2774156332015991,0.03893820568919182
1772025687330210600,6.92721044921875,-0.022348925471305847,-0.2799873948097229,-0.01306152157485485
1772025687340209000,6.937208984375,-0.04106615111231804,-0.24187062680721283,-0.03688722848892212
1772025687350205700,6.947205810546875,-0.040124520659446716,-0.1927085965871811,-0.03757036477327347
1772025687360202800,6.95720263671875,-0.017431462183594704,-0.1413937360048294,-0.022796479985117912
1772025687370200800,6.967200927734375,0.01837700791656971,-0.08791445195674896,0.011936935596168041
1772025687380198000,6.977197998046875,0.06640578806400299,-0.03849337249994278,0.04848109930753708
1772025687390196000,6.987196044921875,0.11217444390058517,0.023881206288933754,0.0891011506319046
1772025687400192800,6.99719287109375,0.14211450517177582,0.07755587995052338,0.12186149507761002
1772025687410186500,7.0071865234375,0.14514367282390594,0.1355360895395279,0.14715293049812317
1772025687420184600,7.0171845703125,0.14190234243869781,0.1916145384311676,0.17310011386871338
1772025687430181400,7.027181396484375,0.1349087506532669,0.23507378995418549,0.21093623340129852
1772025687440179700,7.0371796875,0.12673497200012207,0.26284605264663696,0.25950056314468384
1772025687450176500,7.047176513671875,0.1109367161989212,0.2688647210597992,0.31197717785835266
1772025687460174600,7.057174560546875,0.08733578026294708,0.2497624307870865,0.3641016185283661
1772025687470171400,7.06717138671875,0.06419754028320312,0.2111767828464508,0.40954211354255676
1772025687480168700,7.077168701171875,0.03162015601992607,0.15070544183254242,0.43659237027168274
1772025687490166500,7.08716650390625,-0.007707292214035988,0.08213672041893005,0.4356898367404938
1772025687500163600,7.09716357421875,-0.06193111836910248,0.028117965906858444,0.41227585077285767
1772025687510161400,7.107161376953125,-0.12379773706197739,0.007787266746163368,0.3591237962245941
1772025687520158500,7.117158447265625,-0.19287614524364471,0.024068502709269524,0.28785520792007446
1772025687530156500,7.127156494140625,-0.24757131934165955,0.05680027976632118,0.20362542569637299
1772025687540153600,7.137153564453125,-0.2909901440143585,0.08387797325849533,0.11953423917293549
1772025687550150400,7.147150390625,-0.32958778738975525,0.09454178810119629,0.03724633902311325
1772025687560148500,7.1571484375,-0.37372222542762756,0.08103423565626144,-0.043843984603881836
1772025687570145500,7.1671455078125,-0.43275901675224304,0.0377328023314476,-0.12557831406593323
1772025687580143400,7.177143310546875,-0.4962911307811737,-0.02196594700217247,-0.20152156054973602
1772025687590140700,7.187140625,-0.5501601696014404,-0.07124999165534973,-0.2638570964336395
1772025687600137500,7.197137451171875,-0.5928642749786377,-0.08009061962366104,-0.29050496220588684
1772025687610135600,7.207135498046875,-0.6080781817436218,-0.04557766020298004,-0.2779715955257416
1772025687620132400,7.21713232421875,-0.6001344919204712,0.048803966492414474,-0.2310648262500763
1772025687630130400,7.22713037109375,-0.5543481111526489,0.16508612036705017,-0.16237379610538483
1772025687640127500,7.23712744140625,-0.47862008213996887,0.27665260434150696,-0.08889292180538177
1772025687650125600,7.24712548828125,-0.38745763897895813,0.36232608556747437,-0.019926076754927635
1772025687660122400,7.257122314453125,-0.3136199116706848,0.4037901759147644,0.02193189039826393
1772025687670119400,7.267119384765625,-0.2643689215183258,0.40212610363960266,0.033707212656736374
1772025687680117500,7.277117431640625,-0.23746755719184875,0.37746763229370117,0.028064772486686707
1772025687690114600,7.287114501953125,-0.22182923555374146,0.34167253971099854,0.007946042343974113
1772025687700112600,7.297112548828125,-0.21595484018325806,0.3099942207336426,-0.016102567315101624
1772025687710109400,7.307109375,-0.22863689064979553,0.29697397351264954,-0.04961196333169937
1772025687720107500,7.317107421875,-0.25743311643600464,0.3007122576236725,-0.0847659558057785
1772025687730104300,7.327104248046875,-0.29576945304870605,0.2980475127696991,-0.12549534440040588
1772025687740101600,7.3371015625,-0.344262957572937,0.29102954268455505,-0.1723637878894806
1772025687750099500,7.347099365234375,-0.401862233877182,0.2867175340652466,-0.2252221554517746
1772025687760096500,7.357096435546875,-0.44750747084617615,0.2650889456272125,-0.2857174575328827
1772025687770094300,7.36709423828125,-0.4705128073692322,0.23409587144851685,-0.3388393521308899
1772025687780091600,7.377091552734375,-0.46065405011177063,0.19948676228523254,-0.3779745101928711
1772025687790089700,7.38708984375,-0.42000654339790344,0.1746131032705307,-0.3856680989265442
1772025687800086500,7.39708642578125,-0.36403435468673706,0.16680097579956055,-0.3717741370201111
1772025687810083600,7.40708349609375,-0.3049115240573883,0.15456397831439972,-0.342172771692276
1772025687820081400,7.417081298828125,-0.24575604498386383,0.16712185740470886,-0.28343597054481506
1772025687830078700,7.42707861328125,-0.185712069272995,0.20271600782871246,-0.21761149168014526
1772025687840076500,7.43707666015625,-0.12934280931949615,0.234354630112648,-0.14213404059410095
1772025687850073600,7.447073486328125,-0.07976143807172775,0.22612228989601135,-0.06653079390525818
1772025687860070400,7.4570703125,-0.03829175978899002,0.18607421219348907,0.005684013478457928
1772025687870068500,7.467068359375,-0.007750638760626316,0.13172149658203125,0.07115744054317474
1772025687880065500,7.4770654296875,0.003395223058760166,0.07372983545064926,0.13049906492233276
1772025687890063600,7.487063720703125,0.003450013231486082,0.028403833508491516,0.18455733358860016
1772025687900060400,7.497060302734375,0.002333882264792919,-0.0010270249331369996,0.24358975887298584
1772025687910058500,7.50705859375,0.0030291867442429066,-0.015394378453493118,0.29380202293395996
1772025687920055300,7.51705517578125,0.01801159791648388,-0.03158746287226677,0.3351907432079315
1772025687930052600,7.527052490234375,0.034919388592243195,-0.05058959499001503,0.3663918972015381
1772025687940050700,7.53705078125,0.05871419981122017,-0.044250473380088806,0.3910146653652191
1772025687950047500,7.547047607421875,0.08590783178806305,0.010642170906066895,0.40947389602661133
1772025687960045600,7.557045654296875,0.1036335676908493,0.057579588145017624,0.3987448215484619
1772025687970042400,7.56704248046875,0.08256341516971588,0.040847163647413254,0.337999165058136
1772025687980040400,7.57704052734375,0.0391368493437767,-0.013724731281399727,0.24075199663639069
1772025687990037500,7.58703759765625,-0.007935411296784878,-0.038008976727724075,0.13691996037960052
1772025688000034600,7.59703466796875,-0.05568455904722214,-0.03191326931118965,0.03336267173290253
1772025688010032400,7.607032470703125,-0.1069624274969101,-0.033601269125938416,-0.0734277069568634
1772025688020029400,7.617029541015625,-0.16453489661216736,-0.05275711789727211,-0.1716616004705429
1772025688030027300,7.62702734375,-0.20802423357963562,-0.04621000960469246,-0.24216686189174652
1772025688040024600,7.637024658203125,-0.2251928448677063,0.005993275437504053,-0.26373687386512756
1772025688050021400,7.647021484375,-0.21744315326213837,0.1050228402018547,-0.24164657294750214
1772025688060019500,7.65701953125,-0.1897689253091812,0.21117563545703888,-0.1941102147102356
1772025688070016500,7.6670166015625,-0.14282678067684174,0.2886263132095337,-0.1309705376625061
1772025688080014600,7.6770146484375,-0.08562528342008591,0.3401417136192322,-0.0698470026254654
1772025688090011600,7.68701171875,-0.013755280524492264,0.35264700651168823,-0.01014676596969366
1772025688100009500,7.697009521484375,0.07559457421302795,0.3431594967842102,0.05613505467772484
1772025688110006500,7.707006591796875,0.1740221530199051,0.33173301815986633,0.1306169331073761
1772025688120003600,7.717003662109375,0.280293732881546,0.32083722949028015,0.2198871523141861
1772025688130001700,7.727001708984375,0.39610907435417175,0.32004061341285706,0.31603288650512695
1772025688139998500,7.73699853515625,0.5011162161827087,0.3169950246810913,0.41023290157318115
1772025688149996500,7.74699658203125,0.5938443541526794,0.31021708250045776,0.5011921525001526
1772025688159993300,7.756993408203125,0.658136785030365,0.30419567227363586,0.5685943365097046
1772025688169991400,7.766991455078125,0.6876791715621948,0.28294435143470764,0.6048040390014648
1772025688179988700,7.77698876953125,0.6820905208587646,0.22547972202301025,0.5966427326202393
1772025688189985500,7.786985595703125,0.6628559231758118,0.15979906916618347,0.5522856712341309
1772025688199983600,7.796983642578125,0.6409953832626343,0.09855782240629196,0.4890294671058655
1772025688209980400,7.80698046875,0.631467878818512,0.029902372509241104,0.40524059534072876
1772025688219978500,7.816978515625,0.6297528147697449,-0.06190904229879379,0.3165123164653778
1772025688229975600,7.8269755859375,0.631702721118927,-0.15800350904464722,0.2348412424325943
1772025688239973600,7.8369736328125,0.6152065992355347,-0.2407093197107315,0.1726497858762741
1772025688249970400,7.846970458984375,0.5666197538375854,-0.30386868119239807,0.12122353911399841
1772025688259967500,7.856967529296875,0.47815191745758057,-0.35986536741256714,0.06894569098949432
1772025688269965300,7.86696533203125,0.3624655306339264,-0.423767626285553,-0.0036986852064728737
1772025688279962600,7.876962646484375,0.23625832796096802,-0.4884888529777527,-0.09659507125616074
1772025688289960700,7.886960693359375,0.11095976084470749,-0.5419557094573975,-0.21859155595302582
1772025688299957500,7.89695751953125,0.0065271006897091866,-0.5673745274543762,-0.34931841492652893
1772025688309954300,7.906954345703125,-0.08562758564949036,-0.5481860637664795,-0.46281784772872925
1772025688319952400,7.916952392578125,-0.14925503730773926,-0.4931047260761261,-0.5379117727279663
1772025688329949700,7.92694970703125,-0.18269668519496918,-0.3952826261520386,-0.564378023147583
1772025688339947500,7.936947509765625,-0.18013712763786316,-0.26095303893089294,-0.5354941487312317
1772025688349944600,7.946944580078125,-0.132408007979393,-0.10574158281087875,-0.4568600058555603
1772025688359942400,7.9569423828125,-0.057713788002729416,0.055578865110874176,-0.33892136812210083
1772025688369939500,7.966939453125,0.04621651768684387,0.1862751543521881,-0.21274469792842865
1772025688379936500,7.9769365234375,0.15548761188983917,0.26345276832580566,-0.11032883822917938
1772025688389934600,7.9869345703125,0.24340836703777313,0.29506954550743103,-0.05031159892678261
1772025688399931400,7.996931396484375,0.30821478366851807,0.29178586602211,-0.022723648697137833
1772025688409932800,8.006932861328124,0.36105141043663025,0.2666126489639282,-0.027159538120031357
1772025688419929900,8.016929931640625,0.39885205030441284,0.24468551576137543,-0.054693423211574554
1772025688429928000,8.026927978515625,0.42702510952949524,0.2178017497062683,-0.09754900634288788
1772025688439925000,8.036925048828126,0.43983837962150574,0.19505755603313446,-0.14614929258823395
1772025688449921800,8.046921875,0.428447961807251,0.15720312297344208,-0.192256361246109
1772025688459920000,8.056919921875,0.40167519450187683,0.11860911548137665,-0.22463640570640564
1772025688469917000,8.0669169921875,0.35826075077056885,0.07928187400102615,-0.24922983348369598
1772025688479915000,8.0769150390625,0.31854209303855896,0.03248187154531479,-0.25280487537384033
1772025688489911800,8.086911865234375,0.2934715449810028,-0.010917327366769314,-0.24479718506336212
1772025688499910000,8.096909912109375,0.28140556812286377,-0.060900066047906876,-0.21709764003753662
1772025688509906700,8.10690673828125,0.2882174551486969,-0.09634958207607269,-0.1793113648891449
1772025688519904000,8.116904052734375,0.2955259680747986,-0.11924637109041214,-0.12170665711164474
1772025688529902000,8.126902099609374,0.30760622024536133,-0.13191577792167664,-0.05431660637259483
1772025688539899000,8.13689892578125,0.3163352906703949,-0.14367470145225525,0.013540471903979778
1772025688549897000,8.14689697265625,0.3236455023288727,-0.17190159857273102,0.06505736708641052
1772025688559893800,8.156893798828126,0.32307183742523193,-0.21060878038406372,0.09573432058095932
1772025688569891000,8.16689111328125,0.3219563961029053,-0.2561931908130646,0.10499434173107147
1772025688579889000,8.176888916015624,0.30915483832359314,-0.28502190113067627,0.10005870461463928
1772025688589886000,8.186885986328125,0.29189857840538025,-0.29867804050445557,0.08947701007127762
1772025688599883800,8.1968837890625,0.2690750062465668,-0.2838977575302124,0.07234276086091995
1772025688609880800,8.206880859375,0.2475157231092453,-0.25783416628837585,0.06048760190606117
1772025688619878700,8.216878662109375,0.23958934843540192,-0.21082007884979248,0.06295901536941528
1772025688629876000,8.2268759765625,0.23963914811611176,-0.14128707349300385,0.06832528859376907
1772025688639872800,8.236872802734375,0.25885626673698425,-0.0773211345076561,0.08124694973230362
1772025688649870800,8.246870849609374,0.30160877108573914,-0.026208190247416496,0.09341385215520859
1772025688659868000,8.256867919921875,0.3740267753601074,0.044500067830085754,0.11853305250406265
1772025688669865700,8.26686572265625,0.45969244837760925,0.11361721158027649,0.14764182269573212
1772025688679863000,8.276863037109376,0.5162428617477417,0.10598645359277725,0.15344752371311188
1772025688689860900,8.28686083984375,0.5196596384048462,0.04980257526040077,0.133103609085083
1772025688699858000,8.29685791015625,0.5006382465362549,0.010930011048913002,0.10755351185798645
1772025688709854700,8.306854736328125,0.4700344502925873,-0.0026261191815137863,0.08847283571958542
1772025688719852800,8.316852783203124,0.4220227301120758,-0.019267680123448372,0.06451823562383652
1772025688729849900,8.326849853515625,0.34051164984703064,-0.06654349714517593,0.013488631695508957
1772025688739848000,8.336847900390625,0.23003573715686798,-0.12456178665161133,-0.0469595342874527
1772025688749844700,8.3468447265625,0.1352093666791916,-0.1694863885641098,-0.09761738032102585
1772025688759842800,8.3568427734375,0.07137871533632278,-0.19003400206565857,-0.13301345705986023
1772025688769840000,8.366840087890624,0.04177217558026314,-0.19454172253608704,-0.152278333902359
1772025688779837000,8.3768369140625,0.028032127767801285,-0.1894359141588211,-0.15680623054504395
1772025688789835000,8.3868349609375,0.035236090421676636,-0.16472095251083374,-0.13654004037380219
1772025688799831800,8.396831787109376,0.06257610023021698,-0.12864230573177338,-0.09605786204338074
1772025688809830000,8.406829833984375,0.10747087746858597,-0.08412475138902664,-0.034334972500801086
1772025688819827000,8.416826904296874,0.1592874675989151,-0.029987739399075508,0.04746295139193535
1772025688829825000,8.426824951171875,0.20350809395313263,0.03669808432459831,0.13447262346744537
1772025688839821800,8.43682177734375,0.24356257915496826,0.10453492403030396,0.22767314314842224
1772025688849819000,8.44681884765625,0.2726050615310669,0.16364048421382904,0.3213284909725189
1772025688859816700,8.456816650390625,0.28526198863983154,0.2161220759153366,0.38888755440711975
1772025688869814000,8.46681396484375,0.2783760726451874,0.24353285133838654,0.43869248032569885
1772025688879812000,8.47681201171875,0.2673196792602539,0.2200445681810379,0.46694624423980713
1772025688889809000,8.486808837890624,0.2504420280456543,0.15905076265335083,0.4882698059082031
1772025688899807000,8.496806884765626,0.22453263401985168,0.09723000973463058,0.5002852082252502
1772025688909803800,8.5068037109375,0.18316015601158142,0.04636508226394653,0.5173150300979614
1772025688919801000,8.516801025390626,0.14019937813282013,0.026695769280195236,0.548345148563385
1772025688929799000,8.526798828125,0.08668483048677444,0.045784033834934235,0.5723367929458618
1772025688939796000,8.5367958984375,0.042285140603780746,0.07096582651138306,0.5769701600074768
1772025688949793800,8.546793701171875,0.004971927497535944,0.08578051626682281,0.5514565110206604
1772025688959790800,8.556790771484375,-0.033005282282829285,0.06378866732120514,0.494867205619812
1772025688969788700,8.56678857421875,-0.08590137213468552,0.021486978977918625,0.4025874435901642
1772025688979786000,8.576785888671875,-0.14998343586921692,-0.028986580669879913,0.2827710211277008
1772025688989782800,8.58678271484375,-0.21115398406982422,-0.07010814547538757,0.1413179486989975
1772025688999780900,8.59678076171875,-0.2539408504962921,-0.10080267488956451,-0.011103291064500809
1772025689009777700,8.606777587890624,-0.27665960788726807,-0.093819260597229,-0.15193398296833038
1772025689019775700,8.616775634765625,-0.279427707195282,-0.03253806009888649,-0.2716023325920105
1772025689029773000,8.62677294921875,-0.2745805084705353,0.07860781252384186,-0.36323240399360657
1772025689039769900,8.636769775390626,-0.24251392483711243,0.21076186001300812,-0.40921828150749207
1772025689049768000,8.646767822265625,-0.18569490313529968,0.3418600857257843,-0.4103623926639557
1772025689059764700,8.6567646484375,-0.10911516845226288,0.44936126470565796,-0.377020925283432
1772025689069763000,8.66676318359375,-0.036711957305669785,0.5224748849868774,-0.3231516480445862
1772025689079760000,8.676759765625,0.029965076595544815,0.5331067442893982,-0.26325342059135437
1772025689089758000,8.686758056640626,0.0840059220790863,0.49732673168182373,-0.2137366235256195
1772025689099754800,8.696754638671875,0.12187260389328003,0.44787663221359253,-0.17757409811019897
1772025689109752000,8.706751953125,0.15359540283679962,0.3904865086078644,-0.15397673845291138
1772025689119750000,8.71675,0.17397257685661316,0.32350748777389526,-0.14584478735923767
1772025689129747000,8.726746826171874,0.18455520272254944,0.2570889890193939,-0.14147889614105225
1772025689139745000,8.7367451171875,0.17820648849010468,0.20345930755138397,-0.14129354059696198
1772025689149741800,8.746741943359375,0.15848127007484436,0.17858900129795074,-0.14576885104179382
1772025689159740000,8.756739990234376,0.1314355432987213,0.18430228531360626,-0.14759765565395355
1772025689169737000,8.766737060546875,0.11204122006893158,0.21114760637283325,-0.14805550873279572
1772025689179734000,8.776734130859374,0.09163368493318558,0.23719331622123718,-0.146407812833786
1772025689189731800,8.78673193359375,0.07239391654729843,0.24658741056919098,-0.15565605461597443
1772025689199729000,8.79672900390625,0.062484294176101685,0.24122512340545654,-0.17146191000938416
1772025689209726700,8.806726806640626,0.06597830355167389,0.2184101939201355,-0.1880534440279007
1772025689219724000,8.81672412109375,0.09406399726867676,0.1899077147245407,-0.20427235960960388
1772025689229721900,8.826721923828124,0.13865096867084503,0.16249053180217743,-0.2119774967432022
1772025689239719000,8.836718994140625,0.19753345847129822,0.14232614636421204,-0.2143692821264267
1772025689249715700,8.8467158203125,0.26631268858909607,0.12833070755004883,-0.2032899260520935
1772025689259713800,8.8567138671875,0.33486777544021606,0.12442970275878906,-0.17561408877372742
1772025689269710800,8.8667109375,0.3958265781402588,0.1291409432888031,-0.14054740965366364
1772025689279709000,8.876708984375,0.4477294385433197,0.1503833681344986,-0.08962883055210114
1772025689289706000,8.8867060546875,0.4814349412918091,0.17717477679252625,-0.02886800654232502
1772025689299703800,8.896703857421874,0.49463704228401184,0.2041986733675003,0.03140465170145035
1772025689309700900,8.906700927734375,0.4949396550655365,0.21821604669094086,0.08581840246915817
1772025689319698000,8.916697998046875,0.48922932147979736,0.20635034143924713,0.12836746871471405
1772025689329696000,8.926696044921876,0.48472273349761963,0.1819644719362259,0.1703302264213562
1772025689339692800,8.93669287109375,0.47404640913009644,0.15525935590267181,0.21156315505504608
1772025689349691000,8.94669091796875,0.46480363607406616,0.13325685262680054,0.2552800178527832
1772025689359687700,8.956687744140625,0.4512641131877899,0.12964560091495514,0.3061791658401489
1772025689369686000,8.96668603515625,0.4465737044811249,0.16655293107032776,0.35811954736709595
1772025689379682800,8.976682861328126,0.43778368830680847,0.1911565363407135,0.39732635021209717
1772025689389679900,8.986679931640625,0.413042813539505,0.16848613321781158,0.39143526554107666
1772025689399678000,8.996677978515624,0.3967605233192444,0.13496120274066925,0.3613319396972656
1772025689409671200,9.006671142578124,0.4094811677932739,0.11982529610395432,0.32167696952819824
1772025689419669000,9.0166689453125,0.422433465719223,0.0961838811635971,0.2601371705532074
1772025689429666000,9.026666015625,0.42373377084732056,0.036471057683229446,0.17010977864265442
1772025689439664000,9.0366640625,0.4060218930244446,-0.04378410056233406,0.061757467687129974
1772025689449661000,9.046660888671875,0.37462764978408813,-0.1093042865395546,-0.03573226556181908
1772025689459658000,9.056657958984376,0.341469407081604,-0.121117003262043,-0.10491106659173965
1772025689469656000,9.066656005859375,0.2956010103225708,-0.07917818427085876,-0.1412857174873352
1772025689479653000,9.076653076171874,0.2460358440876007,-0.007806799374520779,-0.15734563767910004
1772025689489651000,9.08665087890625,0.2057197540998459,0.07578759640455246,-0.14620673656463623
1772025689499648000,9.09664794921875,0.17995020747184753,0.1623121052980423,-0.1132461354136467
1772025689509645800,9.106645751953126,0.17579802870750427,0.23721908032894135,-0.08438137173652649
1772025689519643100,9.11664306640625,0.19540874660015106,0.26930803060531616,-0.0636952668428421
1772025689529640000,9.126639892578124,0.2502131462097168,0.28123408555984497,-0.04547164589166641
1772025689539638000,9.136637939453125,0.3262336254119873,0.28718680143356323,-0.03178353235125542
1772025689549634800,9.146634765625,0.4114096164703369,0.2903575003147125,-0.011615879833698273
1772025689559633000,9.1566328125,0.497068852186203,0.2850756347179413,0.022003065794706345
1772025689569630000,9.1666298828125,0.5772108435630798,0.2801359295845032,0.06990203261375427
1772025689579627000,9.176626953125,0.6311510801315308,0.2877299189567566,0.13332441449165344
1772025689589625000,9.186625,0.6684725880622864,0.3106922209262848,0.20551365613937378
1772025689599622000,9.196621826171874,0.6974397897720337,0.34837356209754944,0.282528281211853
1772025689609620000,9.206619873046876,0.7128156423568726,0.38613060116767883,0.35275229811668396
1772025689619617000,9.216616943359375,0.7280886173248291,0.3962703347206116,0.3907018005847931
1772025689629615000,9.226614990234374,0.7420724034309387,0.35557061433792114,0.407770574092865
1772025689639612000,9.23661181640625,0.7495151162147522,0.29620102047920227,0.3969472348690033
1772025689649610000,9.24660986328125,0.7546381950378418,0.22191713750362396,0.37020987272262573
1772025689659607000,9.25660693359375,0.76926589012146,0.14266306161880493,0.34127968549728394
1772025689669604000,9.26660400390625,0.7948675751686096,0.0655236542224884,0.31163835525512695
1772025689679602000,9.276601806640626,0.8252524137496948,0.006159926764667034,0.29276055097579956
1772025689689599000,9.286598876953125,0.862413763999939,-0.04203873872756958,0.285527765750885
1772025689699597000,9.29659716796875,0.8690437078475952,-0.08111637085676193,0.2711578905582428
1772025689709594000,9.306593994140625,0.8424996137619019,-0.11524822562932968,0.22990241646766663
1772025689719592200,9.31659228515625,0.7798897624015808,-0.17975664138793945,0.1489657610654831
1772025689729589000,9.326589111328126,0.6915422677993774,-0.29135701060295105,0.035813864320516586
1772025689739586000,9.3365859375,0.5798165202140808,-0.4238649904727936,-0.11545714735984802
1772025689749584000,9.346583984375,0.47218355536460876,-0.5405881404876709,-0.27985912561416626
1772025689759581200,9.356581298828125,0.37862884998321533,-0.5888440608978271,-0.42744457721710205
1772025689769579000,9.3665791015625,0.29506978392601013,-0.5719038844108582,-0.5356844067573547
1772025689779576000,9.376576171875,0.2441365271806717,-0.4861879050731659,-0.5915018916130066
1772025689789572900,9.38657275390625,0.23119030892848969,-0.3355015218257904,-0.588521420955658
1772025689799571000,9.396571044921876,0.25906190276145935,-0.13034649193286896,-0.5377253293991089
1772025689809568000,9.406568115234375,0.32924118638038635,0.1100582629442215,-0.4522491991519928
1772025689819566000,9.416566162109374,0.4363689422607422,0.3313232660293579,-0.3500634431838989
1772025689829563000,9.42656298828125,0.5566328763961792,0.49819260835647583,-0.2730577290058136
1772025689839561000,9.43656103515625,0.6660445928573608,0.6119822859764099,-0.22450722754001617
1772025689849558000,9.44655810546875,0.7641546726226807,0.6718621253967285,-0.1961103081703186
1772025689859555000,9.45655517578125,0.8362717628479004,0.6808460354804993,-0.18596845865249634
1772025689869553200,9.46655322265625,0.8964284062385559,0.6498026847839355,-0.19859537482261658
1772025689879550000,9.476550048828125,0.9186200499534607,0.5817200541496277,-0.23169420659542084
1772025689889548000,9.486548095703125,0.9164954423904419,0.5006964802742004,-0.2675705552101135
1772025689899544800,9.496544921875,0.8888838291168213,0.4199627637863159,-0.298804372549057
1772025689909543000,9.50654296875,0.8375908732414246,0.3342210054397583,-0.32725074887275696
1772025689919540000,9.5165400390625,0.7609682679176331,0.2567427158355713,-0.3538546562194824
1772025689929537000,9.526537109375,0.6702382564544678,0.17189626395702362,-0.36570510268211365
1772025689939534800,9.536534912109374,0.5974410176277161,0.09440148621797562,-0.3587081730365753
1772025689949532200,9.5465322265625,0.5467922687530518,0.01909363456070423,-0.3291843831539154
1772025689959530200,9.5565302734375,0.5161696076393127,-0.06252985447645187,-0.28831976652145386
1772025689969527000,9.566527099609376,0.5027071237564087,-0.1375533491373062,-0.2286413311958313
1772025689979525000,9.576525146484375,0.4957640469074249,-0.20680618286132812,-0.1558917611837387
1772025689989522000,9.58652197265625,0.48774856328964233,-0.26437586545944214,-0.08391445130109787
1772025689999519200,9.596519287109375,0.47121644020080566,-0.31970542669296265,-0.02169235795736313
1772025690009517000,9.60651708984375,0.4485340714454651,-0.3695121705532074,0.022278575226664543
1772025690019514000,9.61651416015625,0.42669564485549927,-0.4161750078201294,0.04132603481411934
1772025690029512000,9.626511962890625,0.41001036763191223,-0.4572851061820984,0.041354648768901825
1772025690039509000,9.636509033203126,0.4040917456150055,-0.48954981565475464,0.03174756094813347
1772025690049506800,9.6465068359375,0.41480594873428345,-0.4821586012840271,0.03268992900848389
1772025690059504000,9.656504150390624,0.43407976627349854,-0.42957982420921326,0.038097742944955826
1772025690069501000,9.6665009765625,0.46242889761924744,-0.35916975140571594,0.0602419488132
1772025690079499000,9.6764990234375,0.5020875930786133,-0.2699626386165619,0.10194332152605057
1772025690089495800,9.686495849609376,0.5635272860527039,-0.15609097480773926,0.1608511060476303
1772025690099494000,9.696493896484375,0.6527255773544312,-0.01574663817882538,0.23827984929084778
1772025690109491200,9.7064912109375,0.7501686215400696,0.04715897515416145,0.3012249171733856
1772025690119489000,9.716489013671875,0.7882264852523804,-0.024132514372467995,0.3158981502056122
1772025690129486000,9.726486083984375,0.7807920575141907,-0.14133889973163605,0.27324777841567993
1772025690139483000,9.73648291015625,0.7664658427238464,-0.19368892908096313,0.21595704555511475
1772025690149481000,9.74648095703125,0.7378016710281372,-0.21451148390769958,0.1435062438249588
1772025690159478000,9.75647802734375,0.6784871816635132,-0.243248850107193,0.03938969224691391
1772025690169476000,9.76647607421875,0.5981073975563049,-0.2817336320877075,-0.07866156846284866
1772025690179473000,9.776472900390624,0.5298633575439453,-0.28722453117370605,-0.1740645170211792
1772025690189471000,9.786470947265625,0.4903535842895508,-0.2503107488155365,-0.2162335366010666
1772025690199467800,9.7964677734375,0.47570326924324036,-0.21407471597194672,-0.20901717245578766
1772025690209465000,9.806465087890626,0.47942015528678894,-0.186484694480896,-0.15881794691085815
1772025690219463200,9.816463134765625,0.4968241751194,-0.15178397297859192,-0.06935463845729828
1772025690229460000,9.8264599609375,0.5266658663749695,-0.11606021225452423,0.04692622274160385
1772025690239458000,9.8364580078125,0.5572048425674438,-0.08148998767137527,0.17341651022434235
1772025690249454800,9.846454833984374,0.5858574509620667,-0.05409110710024834,0.2996048927307129
1772025690259453200,9.856453125,0.6118522882461548,-0.02624829113483429,0.40956735610961914
1772025690269450000,9.866449951171875,0.6229419112205505,-0.01211597304791212,0.5006951093673706
1772025690279447000,9.876447021484376,0.6205533146858215,-0.016070233657956123,0.5657896995544434
1772025690289444900,9.88644482421875,0.6128714680671692,-0.026093950495123863,0.612019956111908
1772025690299442200,9.896442138671874,0.588833212852478,-0.03220430761575699,0.6395399570465088
1772025690309440000,9.90643994140625,0.5609675645828247,-0.0551719069480896,0.6517115831375122
1772025690319437000,9.91643701171875,0.5239171385765076,-0.09425539523363113,0.6468425393104553
1772025690329437000,9.92643701171875,0.4825340509414673,-0.12875021994113922,0.6264883279800415
1772025690339434000,9.93643408203125,0.4381064176559448,-0.14916200935840607,0.6013443470001221
1772025690349431000,9.94643115234375,0.40372434258461,-0.1444036215543747,0.5717213749885559
1772025690359429000,9.95642919921875,0.3667468726634979,-0.11071010679006577,0.5367633700370789
1772025690369426000,9.966426025390625,0.33858874440193176,-0.07120264321565628,0.49439728260040283
1772025690379424000,9.976424072265624,0.31374678015708923,-0.026503346860408783,0.43387535214424133
1772025690389421000,9.986421142578125,0.2939739525318146,0.02105710469186306,0.35721588134765625
1772025690399419100,9.996419189453125,0.25974807143211365,0.06944195181131363,0.2610163688659668
1772025690409419300,10.006419189453124,0.22865082323551178,0.11099543422460556,0.1533994972705841
1772025690419416300,10.016416259765625,0.19664442539215088,0.15710434317588806,0.04144367203116417
1772025690429414400,10.026414306640625,0.18535269796848297,0.2067028433084488,-0.07139736413955688
1772025690439411500,10.036411376953126,0.193101704120636,0.2643088698387146,-0.17353731393814087
1772025690449409300,10.0464091796875,0.2214348465204239,0.32525184750556946,-0.24774134159088135
1772025690459406300,10.05640625,0.2738639712333679,0.4075656235218048,-0.2941570580005646
1772025690469404400,10.066404296875,0.3485090136528015,0.5031032562255859,-0.30729609727859497
1772025690479401500,10.0764013671875,0.43389925360679626,0.5819085836410522,-0.2974911332130432
1772025690489398300,10.086398193359376,0.5296550393104553,0.6343632936477661,-0.26708200573921204
1772025690499396400,10.096396240234375,0.6298820376396179,0.6814221143722534,-0.22717082500457764
1772025690509393400,10.106393310546874,0.7155595421791077,0.7077529430389404,-0.19095703959465027
1772025690519391200,10.11639111328125,0.7869243025779724,0.7087335586547852,-0.17042432725429535
1772025690529388500,10.126388427734375,0.8496130704879761,0.6977869868278503,-0.15742075443267822
1772025690539386400,10.136386474609376,0.8956125378608704,0.6729921698570251,-0.15021051466464996
1772025690549383400,10.146383544921875,0.9284311532974243,0.6240947246551514,-0.1583884358406067
1772025690559380200,10.156380126953126,0.9425179362297058,0.563293993473053,-0.17304806411266327
1772025690569378300,10.16637841796875,0.9451116323471069,0.4987727999687195,-0.19611874222755432
1772025690579375400,10.176375244140624,0.9406734704971313,0.4227755069732666,-0.21642561256885529
1772025690589373400,10.18637353515625,0.9250075817108154,0.35914480686187744,-0.23016901314258575
1772025690599370200,10.196370361328125,0.9078938961029053,0.31858566403388977,-0.23842613399028778
1772025690609368300,10.206368408203126,0.8808436989784241,0.2965579032897949,-0.25652414560317993
1772025690619365400,10.216365478515625,0.8609275221824646,0.29998111724853516,-0.277813196182251
1772025690629362400,10.226362548828124,0.8540226221084595,0.3143310546875,-0.30540841817855835
1772025690639360500,10.236360595703125,0.8651050925254822,0.3426702916622162,-0.3423997163772583
1772025690649357300,10.246357421875,0.8938654065132141,0.37370121479034424,-0.37901654839515686
1772025690659355400,10.25635546875,0.9380680322647095,0.40354299545288086,-0.40464574098587036
1772025690669352200,10.266352294921875,0.9896875023841858,0.4399798810482025,-0.4177094101905823
1772025690679349500,10.276349609375,1.047167181968689,0.46542584896087646,-0.41369521617889404
1772025690689347300,10.286347412109375,1.1086585521697998,0.49082204699516296,-0.399795264005661
1772025690699344400,10.296344482421874,1.1670362949371338,0.5142959356307983,-0.37101075053215027
1772025690709342200,10.30634228515625,1.2291371822357178,0.5340747237205505,-0.33165809512138367
1772025690719339300,10.31633935546875,1.2774453163146973,0.5439497232437134,-0.29917338490486145
1772025690729337300,10.32633740234375,1.3241159915924072,0.5484306812286377,-0.2504778802394867
1772025690739334400,10.33633447265625,1.3560056686401367,0.5597730875015259,-0.19617600739002228
1772025690749331200,10.346331298828124,1.365848183631897,0.582775890827179,-0.1450796276330948
1772025690759329300,10.356329345703125,1.3696404695510864,0.5951949954032898,-0.09660051017999649
1772025690769326300,10.366326416015625,1.3584085702896118,0.5893387198448181,-0.05867904797196388
1772025690779324400,10.376324462890626,1.3339487314224243,0.5738718509674072,-0.023982586339116096
1772025690789321500,10.386321533203125,1.2948505878448486,0.5572024583816528,-0.0055089108645915985
1772025690799319300,10.3963193359375,1.2439303398132324,0.5378524661064148,0.005634554196149111
1772025690809316400,10.40631640625,1.189732551574707,0.5221784114837646,0.025207797065377235
1772025690819313400,10.4163134765625,1.1257810592651367,0.49757397174835205,0.04322674497961998
1772025690829311500,10.4263115234375,1.0477482080459595,0.4630643129348755,0.05127982422709465
1772025690839308300,10.436308349609375,0.9647800326347351,0.4232812225818634,0.06191782280802727
1772025690849306400,10.446306396484376,0.8795316219329834,0.3987269103527069,0.06533192098140717
1772025690859303200,10.45630322265625,0.8003798127174377,0.3871552050113678,0.06540382653474808
1772025690869301200,10.46630126953125,0.7288756370544434,0.38533493876457214,0.0613461472094059
1772025690879298600,10.476298583984375,0.6644691824913025,0.389161616563797,0.048864975571632385
1772025690889295400,10.48629541015625,0.6245132684707642,0.39634427428245544,0.033688973635435104
1772025690899293400,10.49629345703125,0.612353503704071,0.3799479901790619,0.007405705749988556
1772025690909290200,10.506290283203125,0.5978432297706604,0.32801321148872375,-0.053394168615341187
1772025690919288300,10.516288330078124,0.5848992466926575,0.2815016210079193,-0.12626731395721436
1772025690929285400,10.526285400390625,0.5818244218826294,0.2808641195297241,-0.19815132021903992
1772025690939283500,10.536283447265625,0.5930072665214539,0.2876546382904053,-0.23395167291164398
1772025690949280300,10.5462802734375,0.6036931276321411,0.3073367774486542,-0.21715712547302246
1772025690959277300,10.55627734375,0.5999862551689148,0.3478546440601349,-0.17225171625614166
1772025690969275100,10.566275146484376,0.6040772199630737,0.3883799612522125,-0.11204119771718979
1772025690979272400,10.5762724609375,0.6249346137046814,0.39386260509490967,-0.05004413425922394
1772025690989270500,10.5862705078125,0.6560623645782471,0.400437593460083,0.004468446597456932
1772025690999267300,10.596267333984375,0.6902570724487305,0.40021681785583496,0.06083105504512787
1772025691009265400,10.606265380859375,0.7210201025009155,0.40294864773750305,0.10922208428382874
1772025691019262200,10.61626220703125,0.7472999095916748,0.4363854229450226,0.13752509653568268
1772025691029259500,10.626259521484375,0.7882213592529297,0.5075650811195374,0.15830646455287933
1772025691039257300,10.63625732421875,0.8436571955680847,0.5818720459938049,0.14644527435302734
1772025691049254400,10.64625439453125,0.8867999911308289,0.6300901174545288,0.07551497220993042
1772025691059252200,10.656252197265625,0.9072293639183044,0.6373640298843384,-0.03983904793858528
1772025691069249300,10.666249267578126,0.9062017798423767,0.6270484924316406,-0.2008126974105835
1772025691079247400,10.676247314453125,0.8928332328796387,0.6100370287895203,-0.3838872015476227
1772025691089244400,10.686244384765626,0.8726943135261536,0.5849308967590332,-0.5738456845283508
1772025691099241200,10.6962412109375,0.8467351198196411,0.5404483675956726,-0.7505610585212708
1772025691109239300,10.7062392578125,0.8174546360969543,0.5211439728736877,-0.8702578544616699
1772025691119236400,10.716236328125,0.7845542430877686,0.5042470097541809,-0.9348983764648438
1772025691129234400,10.726234375,0.7435895800590515,0.4612683057785034,-0.9583550095558167
1772025691139231500,10.7362314453125,0.7063250541687012,0.44719988107681274,-0.9355540871620178
1772025691149229300,10.746229248046875,0.678871214389801,0.45909392833709717,-0.8400169014930725
1772025691159226400,10.756226318359374,0.6431084275245667,0.46572306752204895,-0.6937395930290222
1772025691169223400,10.766223388671875,0.613407552242279,0.4837295711040497,-0.5061131715774536
1772025691179221500,10.776221435546875,0.6226000189781189,0.523573100566864,-0.2763417661190033
1772025691189218300,10.78621826171875,0.6769443154335022,0.5769931674003601,-0.04420831799507141
1772025691199216400,10.79621630859375,0.773129403591156,0.6333381533622742,0.15710482001304626
1772025691209213200,10.806213134765626,0.9026646614074707,0.6905914545059204,0.3130992650985718
1772025691219210500,10.81621044921875,1.0415351390838623,0.730384349822998,0.40434154868125916
1772025691229208300,10.826208251953124,1.1707186698913574,0.7398661971092224,0.42472827434539795
1772025691239205400,10.836205322265625,1.2717877626419067,0.6955376267433167,0.39177459478378296
1772025691249203500,10.846203369140625,1.3420408964157104,0.6466575860977173,0.32990968227386475
1772025691259200300,10.8562001953125,1.3948370218276978,0.6225773096084595,0.2629932463169098
1772025691269198300,10.8661982421875,1.4272286891937256,0.6164484620094299,0.20395101606845856
1772025691279195400,10.8761953125,1.440625548362732,0.6098603010177612,0.1525445431470871
1772025691289192400,10.8861923828125,1.443983793258667,0.54958176612854,0.11201485991477966
1772025691299190300,10.896190185546875,1.3918299674987793,0.4888949990272522,0.13254916667938232
1772025691309187300,10.906187255859376,1.2589513063430786,0.3656357526779175,0.20855839550495148
1772025691319185200,10.91618505859375,1.1155544519424438,0.19184453785419464,0.20244137942790985
1772025691329182500,10.926182373046874,1.0332239866256714,-0.034322407096624374,0.09944527596235275
1772025691339180300,10.93618017578125,1.0098237991333008,-0.28203848004341125,-0.04409750550985336
1772025691349177300,10.94617724609375,0.9996058344841003,-0.42109188437461853,-0.1908360719680786
1772025691359174100,10.956174072265625,0.9526814818382263,-0.42630714178085327,-0.3345527648925781
1772025691369172200,10.966172119140625,0.8738656044006348,-0.3673970401287079,-0.42806267738342285
1772025691379169300,10.976169189453126,0.8189661502838135,-0.23303842544555664,-0.4820294976234436
1772025691389167400,10.98616748046875,0.8300467133522034,0.006380446255207062,-0.493733674287796
1772025691399164400,10.996164306640624,0.8977474570274353,0.2670181691646576,-0.48851948976516724
1772025691409163300,11.006163330078126,0.9981222748756409,0.4648880660533905,-0.47864359617233276
