time,seconds_elapsed,z,y,x
1772025728538859000,0.06485888671875,1.1054967641830444,0.6711853742599487,-0.21007896959781647
1772025728548856300,0.074856201171875,1.0572566986083984,0.6481050848960876,-0.13888974487781525
1772025728558853000,0.08485302734375,1.0191738605499268,0.6249193549156189,-0.07371300458908081
1772025728568851200,0.094851318359375,0.9863388538360596,0.5958322882652283,-0.026014726608991623
1772025728578848000,0.104847900390625,0.9532849788665771,0.5421567559242249,0.0073601240292191505
1772025728588846000,0.11484619140625,0.9085012674331665,0.4846460521221161,0.020966745913028717
1772025728598843100,0.124843017578125,0.8626588582992554,0.4596713185310364,0.042049869894981384
1772025728608841200,0.13484130859375,0.8320133090019226,0.46714308857917786,0.08016583323478699
1772025728618838000,0.144838134765625,0.8309289216995239,0.4880741238594055,0.12974309921264648
1772025728628835300,0.15483544921875,0.840046226978302,0.4983677864074707,0.18142201006412506
1772025728638833200,0.164833251953125,0.8474591374397278,0.48706889152526855,0.2181086540222168
1772025728648830200,0.174830322265625,0.8625251650810242,0.4761597812175751,0.2472124844789505
1772025728658827000,0.184826904296875,0.8880535364151001,0.4411284625530243,0.27864664793014526
1772025728668825000,0.1948251953125,0.8986406922340393,0.3717898726463318,0.30396318435668945
1772025728678822100,0.204822265625,0.8884984850883484,0.32528558373451233,0.33247801661491394
1772025728688820200,0.2148203125,0.8847236633300781,0.32678839564323425,0.37313011288642883
1772025728698817300,0.2248173828125,0.8867866396903992,0.3325999677181244,0.42010176181793213
1772025728708814000,0.23481396484375,0.881351113319397,0.30401331186294556,0.43351423740386963
1772025728718812200,0.244812255859375,0.8526380062103271,0.25832781195640564,0.42012640833854675
1772025728728809200,0.254809326171875,0.8080819845199585,0.21797211468219757,0.3935762941837311
1772025728738807300,0.264807373046875,0.7761420607566833,0.20314715802669525,0.3639824092388153
1772025728748804000,0.27480419921875,0.7479797005653381,0.2015567123889923,0.3448878228664398
1772025728758801200,0.28480126953125,0.721896767616272,0.19229204952716827,0.3185707628726959
1772025728768799000,0.294799072265625,0.6939828991889954,0.17800073325634003,0.29634374380111694
1772025728778796300,0.30479638671875,0.669567883014679,0.17374704778194427,0.2768155038356781
1772025728788794000,0.314794189453125,0.6356030106544495,0.17416861653327942,0.2594141364097595
1772025728798791200,0.324791259765625,0.5981608629226685,0.17643623054027557,0.23206228017807007
1772025728808788000,0.3347880859375,0.5535063147544861,0.16648533940315247,0.1895555555820465
1772025728818786000,0.3447861328125,0.49145209789276123,0.1326478123664856,0.14108596742153168
1772025728828783400,0.354783447265625,0.4242248833179474,0.10631953924894333,0.0860072672367096
1772025728838781200,0.36478125,0.36269691586494446,0.0883617252111435,0.041643064469099045
1772025728848778200,0.3747783203125,0.31765514612197876,0.08007955551147461,0.007005722727626562
1772025728858775000,0.384775146484375,0.2958835959434509,0.10125482827425003,-0.0033339844085276127
1772025728868773000,0.394773193359375,0.2894371449947357,0.1456792801618576,-0.0032668723724782467
1772025728878770200,0.404770263671875,0.2895546853542328,0.17837068438529968,-0.0047717709094285965
1772025728888768300,0.414768310546875,0.3089291751384735,0.18702195584774017,-0.006937453523278236
1772025728898765000,0.42476513671875,0.35069745779037476,0.20290647447109222,0.0013643002603203058
1772025728908762000,0.43476220703125,0.41392409801483154,0.23109576106071472,0.019321996718645096
1772025728918760000,0.444760009765625,0.49334609508514404,0.27010995149612427,0.04481694474816322
1772025728928757200,0.45475732421875,0.5825188159942627,0.3196106553077698,0.08343863487243652
1772025728938755300,0.46475537109375,0.6753973960876465,0.37843599915504456,0.10477243363857269
1772025728948752100,0.474752197265625,0.7403426170349121,0.418853223323822,0.0967339500784874
1772025728958749000,0.4847490234375,0.781622588634491,0.4316192865371704,0.06698904931545258
1772025728968747300,0.494747314453125,0.8037286996841431,0.42610546946525574,0.020265216007828712
1772025728978744300,0.504744384765625,0.8266615867614746,0.419782817363739,-0.043202102184295654
1772025728988742100,0.5147421875,0.8586205840110779,0.4016842246055603,-0.12363356351852417
1772025728998739200,0.5247392578125,0.8940883278846741,0.35221442580223083,-0.20064911246299744
1772025729008736300,0.534736328125,0.9343041777610779,0.27465811371803284,-0.28368353843688965
1772025729018734300,0.544734375,0.9382462501525879,0.18534371256828308,-0.3549271821975708
1772025729028731100,0.554731201171875,0.8884429931640625,0.1220150738954544,-0.42721495032310486
1772025729038729200,0.564729248046875,0.7862347960472107,0.03186292573809624,-0.500298023223877
1772025729048726000,0.57472607421875,0.6456869840621948,-0.05334224924445152,-0.560002326965332
1772025729058723300,0.584723388671875,0.5098936557769775,-0.10829824954271317,-0.5991935133934021
1772025729068721200,0.59472119140625,0.4114445447921753,-0.13049009442329407,-0.6266555190086365
1772025729078718200,0.60471826171875,0.3538803160190582,-0.12214192748069763,-0.6483450531959534
1772025729088716300,0.61471630859375,0.3190235495567322,-0.10020946711301804,-0.6600536704063416
1772025729098713000,0.624713134765625,0.29905465245246887,-0.06947719305753708,-0.6536723375320435
1772025729108710100,0.634710205078125,0.3088287115097046,-0.01192787941545248,-0.6260479092597961
1772025729118708200,0.644708251953125,0.3376652002334595,0.07931870222091675,-0.5780653953552246
1772025729128705300,0.654705322265625,0.3934509754180908,0.17802104353904724,-0.5281779766082764
1772025729138703000,0.664703125,0.46037757396698,0.24610868096351624,-0.47855809330940247
1772025729148700200,0.6747001953125,0.5330057144165039,0.28425049781799316,-0.43239113688468933
1772025729158697200,0.684697265625,0.6005623936653137,0.32706013321876526,-0.38416996598243713
1772025729168695300,0.6946953125,0.6566182374954224,0.35369494557380676,-0.33734333515167236
1772025729178692000,0.704692138671875,0.7023991346359253,0.350345253944397,-0.2993462085723877
1772025729188689200,0.714689208984375,0.7346563935279846,0.305059015750885,-0.2717241644859314
1772025729198687000,0.72468701171875,0.746049702167511,0.24114398658275604,-0.2559444010257721
1772025729208684300,0.734684326171875,0.7304808497428894,0.15663015842437744,-0.24565687775611877
1772025729218682000,0.74468212890625,0.6890028715133667,0.09182555228471756,-0.23156076669692993
1772025729228679200,0.75467919921875,0.6315843462944031,0.036083467304706573,-0.2100679874420166
1772025729238676000,0.764676025390625,0.5830597877502441,-0.007671574130654335,-0.17399786412715912
1772025729248674000,0.774674072265625,0.5457015037536621,-0.046056780964136124,-0.13169248402118683
1772025729258671000,0.784671142578125,0.5168504118919373,-0.06873923540115356,-0.08079954981803894
1772025729268669200,0.794669189453125,0.49158772826194763,-0.07175499945878983,-0.02518475614488125
1772025729278666200,0.804666259765625,0.46636632084846497,-0.03423578664660454,0.03938337415456772
1772025729288663000,0.8146630859375,0.44565197825431824,0.02496308833360672,0.08768273144960403
1772025729298661000,0.8246611328125,0.43092191219329834,0.062245890498161316,0.10741255432367325
1772025729308658200,0.834658203125,0.41652485728263855,0.06713385879993439,0.10581225901842117
1772025729318656300,0.84465625,0.41150981187820435,0.04097358509898186,0.09251855313777924
1772025729328653000,0.854653076171875,0.40888047218322754,0.007876884192228317,0.08531230688095093
1772025729338650000,0.864650146484375,0.3951539397239685,-0.03829653188586235,0.08889153599739075
1772025729348648200,0.874648193359375,0.376100093126297,-0.08159740269184113,0.10013753175735474
1772025729358645200,0.884645263671875,0.3639947175979614,-0.10358746349811554,0.13797186315059662
1772025729368643000,0.89464306640625,0.37421780824661255,-0.0800887942314148,0.19310089945793152
1772025729378640100,0.90464013671875,0.40935400128364563,-0.04262213036417961,0.2515706717967987
1772025729388637200,0.91463720703125,0.45432546734809875,-0.025544608011841774,0.27670690417289734
1772025729398635300,0.92463525390625,0.47350290417671204,-0.05377626046538353,0.26171496510505676
1772025729408632000,0.934632080078125,0.4663184881210327,-0.11955420672893524,0.21076898276805878
1772025729418630100,0.944630126953125,0.42360663414001465,-0.15777936577796936,0.12250982224941254
1772025729428627200,0.954627197265625,0.39115920662879944,-0.17500975728034973,0.01933922991156578
1772025729438624300,0.964624267578125,0.36611247062683105,-0.20814864337444305,-0.08270231634378433
1772025729448619000,0.974618896484375,0.334324449300766,-0.2364194393157959,-0.1649138331413269
1772025729458616000,0.984615966796875,0.30247119069099426,-0.22545921802520752,-0.2068811058998108
1772025729468614000,0.99461376953125,0.29042571783065796,-0.14674736559391022,-0.1841249316930771
1772025729478611000,1.00461083984375,0.3062554895877838,-0.06791567802429199,-0.11531432718038559
1772025729488608000,1.01460791015625,0.3518400192260742,0.002643176121637225,-0.02161765843629837
1772025729498606000,1.024606201171875,0.3927622139453888,0.041847582906484604,0.07233721017837524
1772025729508603000,1.034602783203125,0.40629294514656067,0.0358717143535614,0.14053304493427277
1772025729518601000,1.04460107421875,0.37932270765304565,0.005713468883186579,0.17235708236694336
1772025729528597800,1.05459765625,0.3339589536190033,-0.04724482074379921,0.18084457516670227
1772025729538595000,1.064594970703125,0.28068917989730835,-0.10585449635982513,0.19137343764305115
1772025729548593200,1.07459326171875,0.22773194313049316,-0.1346517950296402,0.21195435523986816
1772025729558590000,1.08458984375,0.1753050833940506,-0.10989443212747574,0.25825682282447815
1772025729568588000,1.094588134765625,0.14676505327224731,-0.08152005076408386,0.32482171058654785
1772025729578584800,1.104584716796875,0.12626664340496063,-0.07398959994316101,0.39948421716690063
1772025729588582100,1.11458203125,0.11539455503225327,-0.09869813919067383,0.46173349022865295
1772025729598580000,1.124580078125,0.10986564308404922,-0.13573013246059418,0.5058552622795105
1772025729608577000,1.134576904296875,0.10213714838027954,-0.1791630983352661,0.5416167378425598
1772025729618574800,1.144574951171875,0.09476158767938614,-0.21366405487060547,0.5606706738471985
1772025729628572000,1.154572021484375,0.09017402678728104,-0.20889700949192047,0.5744727253913879
1772025729638569000,1.16456884765625,0.0851675495505333,-0.1533418595790863,0.5765023231506348
1772025729648567000,1.174567138671875,0.07393193989992142,-0.07597730308771133,0.55861496925354
1772025729658563800,1.184563720703125,0.038949720561504364,-0.025184430181980133,0.5115805864334106
1772025729668561000,1.194560791015625,-0.012454081326723099,0.008916014805436134,0.44121721386909485
1772025729678559000,1.20455908203125,-0.06785963475704193,0.04828706011176109,0.35670652985572815
1772025729688556000,1.21455615234375,-0.11429264396429062,0.09229739010334015,0.2596263289451599
1772025729698554000,1.22455419921875,-0.1534961462020874,0.11594115197658539,0.1529347002506256
1772025729708551000,1.234551025390625,-0.17651411890983582,0.11136211454868317,0.051927391439676285
1772025729718548000,1.2445478515625,-0.17502722144126892,0.09711112827062607,-0.04194103553891182
1772025729728545800,1.2545458984375,-0.15102015435695648,0.10166913270950317,-0.10619938373565674
1772025729738543000,1.264543212890625,-0.09747610241174698,0.12120190262794495,-0.13945592939853668
1772025729748541000,1.274541015625,-0.022482819855213165,0.14451280236244202,-0.14720599353313446
1772025729758538000,1.2845380859375,0.06088462099432945,0.16923721134662628,-0.1385440081357956
1772025729768534800,1.29453466796875,0.1326749324798584,0.18971797823905945,-0.1225527971982956
1772025729778532900,1.304532958984375,0.19163095951080322,0.21717408299446106,-0.10498138517141342
1772025729788530000,1.314530029296875,0.2314249724149704,0.24489440023899078,-0.09873361140489578
1772025729798528000,1.324528076171875,0.26245585083961487,0.2515663802623749,-0.0940757468342781
1772025729808524800,1.33452490234375,0.2725795805454254,0.24494920670986176,-0.09470025449991226
1772025729818521900,1.34452197265625,0.27463582158088684,0.24069134891033173,-0.09723158925771713
1772025729828520000,1.35452001953125,0.25504374504089355,0.23999786376953125,-0.09508854150772095
1772025729838517000,1.36451708984375,0.2222764641046524,0.23374998569488525,-0.1044805720448494
1772025729848515000,1.37451513671875,0.1803191602230072,0.19681699573993683,-0.11435610800981522
1772025729858512000,1.384511962890625,0.13052283227443695,0.14196941256523132,-0.1311582624912262
1772025729868509000,1.394509033203125,0.08415986597537994,0.08536206185817719,-0.13892483711242676
1772025729878507000,1.404507080078125,0.045026011765003204,0.03705410286784172,-0.13985615968704224
1772025729888504000,1.414504150390625,0.021270083263516426,0.007436557672917843,-0.1344347596168518
1772025729898502000,1.424501953125,0.017199715599417686,0.008638862520456314,-0.12297557294368744
1772025729908499000,1.4344990234375,0.025631550699472427,0.02576911263167858,-0.1108856201171875
1772025729918496000,1.44449609375,0.05859607458114624,0.05176389589905739,-0.106160968542099
1772025729928494000,1.454494140625,0.10854100435972214,0.07816167920827866,-0.10887152701616287
1772025729938491000,1.464490966796875,0.15905727446079254,0.10202306509017944,-0.1215868666768074
1772025729948489000,1.474489013671875,0.20892709493637085,0.1320728361606598,-0.12620452046394348
1772025729958485800,1.48448583984375,0.25994062423706055,0.18231531977653503,-0.12526288628578186
1772025729968483000,1.494483154296875,0.29646506905555725,0.21392890810966492,-0.12561601400375366
1772025729978481200,1.504481201171875,0.3150261342525482,0.21273943781852722,-0.13264550268650055
1772025729988478000,1.51447802734375,0.3182451128959656,0.19958634674549103,-0.13810017704963684
1772025729998476000,1.52447607421875,0.3047303259372711,0.17858947813510895,-0.1466251015663147
1772025730008472800,1.534472900390625,0.28775376081466675,0.15483248233795166,-0.14306658506393433
1772025730018470100,1.54447021484375,0.2631923258304596,0.13791373372077942,-0.13422629237174988
1772025730028468000,1.554468017578125,0.22911664843559265,0.12117362767457962,-0.11566592007875443
1772025730038465000,1.564465087890625,0.19712196290493011,0.12851223349571228,-0.08472451567649841
1772025730048461800,1.5744619140625,0.18128280341625214,0.14926013350486755,-0.04240662604570389
1772025730058460000,1.5844599609375,0.180111825466156,0.1626521348953247,-0.0023348371032625437
1772025730068457000,1.59445703125,0.1758803278207779,0.1619810163974762,0.02913839928805828
1772025730078455000,1.604455078125,0.17589235305786133,0.16602832078933716,0.0368565134704113
1772025730088451800,1.614451904296875,0.16257867217063904,0.17254959046840668,0.039293572306632996
1772025730098449000,1.624448974609375,0.14604385197162628,0.18152976036071777,0.026414647698402405
1772025730108446700,1.63444677734375,0.13232190907001495,0.19363941252231598,0.014148393645882607
1772025730118444000,1.644444091796875,0.12780553102493286,0.20731331408023834,0.004700041841715574
1772025730128442000,1.654442138671875,0.13651832938194275,0.22649580240249634,-0.003984526265412569
1772025730138439000,1.66443896484375,0.15456710755825043,0.22918802499771118,-0.009075423702597618
1772025730148435700,1.674435791015625,0.16486209630966187,0.21385514736175537,-0.014963672496378422
1772025730158433800,1.684433837890625,0.16836076974868774,0.18012626469135284,-0.019510427489876747
1772025730168431000,1.69443115234375,0.17020128667354584,0.1546826958656311,-0.005106188356876373
1772025730178429000,1.704428955078125,0.17123515903949738,0.13869065046310425,0.02077428251504898
1772025730188426000,1.714426025390625,0.17597772181034088,0.12882551550865173,0.06242905184626579
1772025730198422800,1.7244228515625,0.18368208408355713,0.12017262727022171,0.10900873690843582
1772025730208420900,1.7344208984375,0.19616591930389404,0.10610341280698776,0.1612871140241623
1772025730218418000,1.74441796875,0.21549835801124573,0.09835008531808853,0.21770551800727844
1772025730228416000,1.754416015625,0.23105254769325256,0.1076599657535553,0.2706497013568878
1772025730238412800,1.764412841796875,0.2615346908569336,0.1254018247127533,0.32092705368995667
1772025730248410000,1.77441015625,0.3038909435272217,0.14973965287208557,0.3559657335281372
1772025730258408000,1.784407958984375,0.34271472692489624,0.14731891453266144,0.37375736236572266
1772025730268405000,1.794405029296875,0.36582404375076294,0.10912438482046127,0.3672366142272949
1772025730278401800,1.80440185546875,0.3799878656864166,0.07140844315290451,0.32991334795951843
1772025730288400000,1.81439990234375,0.3660382032394409,0.05280839279294014,0.27180051803588867
1772025730298397200,1.824397216796875,0.3329607844352722,0.051131244748830795,0.20422260463237762
1772025730308395000,1.83439501953125,0.2863091230392456,0.06687292456626892,0.12619145214557648
1772025730318392000,1.84439208984375,0.20927301049232483,0.06575073301792145,0.03560701012611389
1772025730328388900,1.854388916015625,0.12868015468120575,0.038040272891521454,-0.06347722560167313
1772025730338387000,1.864386962890625,0.044311001896858215,0.012432771734893322,-0.12961016595363617
1772025730348384000,1.874384033203125,-0.02185842953622341,-0.006701507605612278,-0.16738711297512054
1772025730358382000,1.884382080078125,-0.06346460431814194,-0.021262571215629578,-0.16987456381320953
1772025730368379000,1.89437890625,-0.0924544483423233,-0.027382249012589455,-0.15132750570774078
1772025730378376000,1.9043759765625,-0.11226874589920044,-0.028892675414681435,-0.11915019899606705
1772025730388373800,1.914373779296875,-0.11229830980300903,-0.02001609280705452,-0.08120840787887573
1772025730398371000,1.92437109375,-0.09105344116687775,-0.007740046363323927,-0.04033976048231125
1772025730408369200,1.934369140625,-0.059617750346660614,-0.008262825198471546,-0.01234434824436903
1772025730418366000,1.944365966796875,-0.02064349502325058,-0.010707966983318329,0.0016948606353253126
1772025730428362800,1.95436279296875,0.025371400639414787,-0.006671946495771408,0.004026990383863449
1772025730438360800,1.96436083984375,0.07119843363761902,-0.00898223277181387,-0.00843147374689579
1772025730448357000,1.974357177734375,0.11622422933578491,-0.016812991350889206,-0.03377304971218109
1772025730458355000,1.98435498046875,0.16161969304084778,-0.02817053347826004,-0.05194459483027458
1772025730468352000,1.99435205078125,0.2055666446685791,-0.03863808885216713,-0.05745574086904526
1772025730478349000,2.00434912109375,0.23820720613002777,-0.05478043481707573,-0.053944703191518784
1772025730488347100,2.01434716796875,0.26922744512557983,-0.05010818690061569,-0.03551589697599411
1772025730498344000,2.024343994140625,0.30537715554237366,-0.018750570714473724,0.006148987915366888
1772025730508342000,2.034342041015625,0.3665672838687897,0.032565344125032425,0.070956751704216
1772025730518338800,2.0443388671875,0.449329674243927,0.07976831495761871,0.15804444253444672
1772025730528336100,2.054336181640625,0.5320109724998474,0.1292828619480133,0.24768778681755066
1772025730538334200,2.064334228515625,0.5829181671142578,0.1527399718761444,0.31274881958961487
1772025730548331000,2.0743310546875,0.6041744947433472,0.14130541682243347,0.3465035855770111
1772025730558327800,2.084327880859375,0.6099591851234436,0.11394835263490677,0.3594471514225006
1772025730568326000,2.094325927734375,0.611186146736145,0.0775863528251648,0.3470064401626587
1772025730578323200,2.1043232421875,0.6059657335281372,0.061152227222919464,0.3234595060348511
1772025730588321000,2.114321044921875,0.58132404088974,0.05704829469323158,0.2823472321033478
1772025730598318000,2.124318115234375,0.5505437850952148,0.032388538122177124,0.2169574499130249
1772025730608315000,2.13431494140625,0.49380701780319214,-0.005955655127763748,0.1352607160806656
1772025730618313000,2.14431298828125,0.4092368185520172,-0.05918470770120621,0.023493945598602295
1772025730628310000,2.15431005859375,0.2922404110431671,-0.11970317363739014,-0.12277618050575256
1772025730638308000,2.16430810546875,0.1585969477891922,-0.17511685192584991,-0.28145942091941833
1772025730648305000,2.174304931640625,0.045762546360492706,-0.195337176322937,-0.4341549575328827
1772025730658302000,2.184302001953125,-0.023962819948792458,-0.16117873787879944,-0.5432516932487488
1772025730668300000,2.194300048828125,-0.06871218234300613,-0.0708184689283371,-0.6131410002708435
1772025730678297000,2.204297119140625,-0.08163457363843918,0.05894673988223076,-0.6466874480247498
1772025730688295200,2.214295166015625,-0.03325372561812401,0.17322590947151184,-0.6381440162658691
1772025730698292000,2.2242919921875,0.05909343808889389,0.2832026779651642,-0.597101092338562
1772025730708289000,2.2342890625,0.19061124324798584,0.3855511546134949,-0.5240164995193481
1772025730718287000,2.244287109375,0.32806146144866943,0.46548017859458923,-0.44141507148742676
1772025730728284200,2.2542841796875,0.445433646440506,0.5055844187736511,-0.36204567551612854
1772025730738282000,2.264281982421875,0.5315054059028625,0.5088496804237366,-0.29875293374061584
1772025730748279000,2.274279052734375,0.5949693322181702,0.49829745292663574,-0.24885697662830353
1772025730758276000,2.284276123046875,0.6498205065727234,0.47551387548446655,-0.20847801864147186
1772025730768274200,2.294274169921875,0.6983078718185425,0.4506540596485138,-0.18688564002513885
1772025730778271000,2.30427099609375,0.7330998778343201,0.4372920095920563,-0.17420260608196259
1772025730788268000,2.31426806640625,0.7386972904205322,0.41777849197387695,-0.16797800362110138
1772025730798265900,2.324265869140625,0.7058476805686951,0.3793048560619354,-0.16637523472309113
1772025730808263200,2.33426318359375,0.6365213394165039,0.3453809916973114,-0.16542422771453857
1772025730818261200,2.34426123046875,0.5559051036834717,0.3034669756889343,-0.1684546321630478
1772025730828258000,2.354258056640625,0.46996381878852844,0.24155300855636597,-0.16657310724258423
1772025730838254800,2.3642548828125,0.3894297182559967,0.1730678677558899,-0.16125120222568512
1772025730848253000,2.3742529296875,0.3239652216434479,0.11192541569471359,-0.13536792993545532
1772025730858250200,2.384250244140625,0.27700334787368774,0.08310776948928833,-0.08223586529493332
1772025730868248000,2.394248046875,0.24746541678905487,0.06480865925550461,-0.016376160085201263
1772025730878245000,2.4042451171875,0.22845420241355896,0.049413539469242096,0.04153668135404587
1772025730888242000,2.414241943359375,0.2255263328552246,0.02959136664867401,0.07985424250364304
1772025730898240000,2.424239990234375,0.22748740017414093,0.00855515617877245,0.08897954225540161
1772025730908237000,2.434237060546875,0.2266538292169571,-0.009639293886721134,0.07124635577201843
1772025730918235100,2.444235107421875,0.232667475938797,-0.007865231484174728,0.03799714148044586
1772025730928232000,2.45423193359375,0.24841448664665222,0.013357498683035374,-0.001301261712796986
1772025730938229000,2.46422900390625,0.2719753086566925,0.041702356189489365,-0.05167342349886894
1772025730948226800,2.474226806640625,0.29761943221092224,0.0614214688539505,-0.09666566550731659
1772025730958224100,2.48422412109375,0.3223370611667633,0.06716370582580566,-0.1279030740261078
1772025730968222200,2.49422216796875,0.34921953082084656,0.07749650627374649,-0.13636820018291473
1772025730978219000,2.504218994140625,0.3820934295654297,0.07567401975393295,-0.1209510937333107
1772025730988215800,2.5142158203125,0.4240366220474243,0.06928296387195587,-0.0854724645614624
1772025730998214000,2.5242138671875,0.46207529306411743,0.05911054089665413,-0.03267548978328705
1772025731008211200,2.534211181640625,0.4963075518608093,0.032903969287872314,0.02398805506527424
1772025731018208000,2.5442080078125,0.5264005064964294,0.0022556507028639317,0.08552750945091248
1772025731028206000,2.5542060546875,0.5590130686759949,-0.021154599264264107,0.14791524410247803
1772025731038203000,2.564202880859375,0.5903417468070984,-0.04777977988123894,0.20488107204437256
1772025731048201000,2.574200927734375,0.6146596074104309,-0.106657475233078,0.23813223838806152
1772025731058198000,2.584197998046875,0.6041406393051147,-0.19853736460208893,0.22548075020313263
1772025731068195000,2.594195068359375,0.5481431484222412,-0.2555534839630127,0.1699943244457245
1772025731078193000,2.60419287109375,0.47949284315109253,-0.27529552578926086,0.09596796333789825
1772025731088190000,2.61418994140625,0.43329498171806335,-0.2856203317642212,0.02770369127392769
1772025731098188000,2.62418798828125,0.39974522590637207,-0.2836921811103821,-0.03708396479487419
1772025731108185000,2.63418505859375,0.36858999729156494,-0.27729687094688416,-0.10123046487569809
1772025731118182000,2.644181884765625,0.3410937786102295,-0.25762876868247986,-0.14866141974925995
1772025731128180000,2.654179931640625,0.3197464346885681,-0.22103027999401093,-0.17817988991737366
1772025731138177000,2.664177001953125,0.31882089376449585,-0.17395798861980438,-0.1749892234802246
1772025731148175000,2.674175048828125,0.32582125067710876,-0.141055166721344,-0.15187405049800873
1772025731158172200,2.684172119140625,0.3384850025177002,-0.11927156895399094,-0.1110948696732521
1772025731168169000,2.6941689453125,0.35510605573654175,-0.09629088640213013,-0.05430162325501442
1772025731178167000,2.7041669921875,0.3631898760795593,-0.06956162303686142,0.011956416070461273
1772025731188164000,2.7141640625,0.36218374967575073,-0.03871529549360275,0.0817357674241066
1772025731198162200,2.724162109375,0.34814053773880005,-0.0061148894019424915,0.15457528829574585
1772025731208159000,2.734158935546875,0.3153761923313141,0.02561294659972191,0.2123911827802658
1772025731218156000,2.744156005859375,0.26856353878974915,0.043561242520809174,0.2613113820552826
1772025731228153900,2.75415380859375,0.2238626480102539,0.05526450648903847,0.2929801046848297
1772025731238151200,2.764151123046875,0.17816944420337677,0.07816247642040253,0.3192531168460846
1772025731248148000,2.77414794921875,0.1421472728252411,0.1259230673313141,0.34180769324302673
1772025731258146000,2.78414599609375,0.12427916377782822,0.18246623873710632,0.36581146717071533
1772025731268142800,2.794142822265625,0.11180011928081512,0.24118095636367798,0.37796586751937866
1772025731278141000,2.804140869140625,0.09920233488082886,0.2755315601825714,0.3739032447338104
1772025731288138000,2.814137939453125,0.07550739496946335,0.27357813715934753,0.35054653882980347
1772025731298135000,2.824135009765625,0.04275118559598923,0.24576324224472046,0.31353476643562317
1772025731308133000,2.834133056640625,-0.007591077126562595,0.207041934132576,0.2701827585697174
1772025731318130000,2.8441298828125,-0.0651123970746994,0.1851833313703537,0.2255932092666626
1772025731328128000,2.8541279296875,-0.12471074610948563,0.1827199012041092,0.17479154467582703
1772025731338125000,2.864125,-0.17577695846557617,0.1847122311592102,0.12008940428495407
1772025731348122000,2.8741220703125,-0.21435204148292542,0.1908409595489502,0.058971453458070755
1772025731358120000,2.884119873046875,-0.2411373257637024,0.18117302656173706,-0.01645916886627674
1772025731368117000,2.894116943359375,-0.26011526584625244,0.16410216689109802,-0.10390512645244598
1772025731378114800,2.90411474609375,-0.2810540497303009,0.16025951504707336,-0.20782801508903503
1772025731388112100,2.914112060546875,-0.29695072770118713,0.16640236973762512,-0.3243604898452759
1772025731398109000,2.92410888671875,-0.29777055978775024,0.1788593828678131,-0.4387688636779785
1772025731408107000,2.93410693359375,-0.264387845993042,0.1889066845178604,-0.5354067087173462
1772025731418103800,2.944103759765625,-0.20581699907779694,0.21159827709197998,-0.6020112633705139
1772025731428102100,2.95410205078125,-0.126089408993721,0.25296834111213684,-0.6275922656059265
1772025731438099200,2.96409912109375,-0.04217395931482315,0.2847723364830017,-0.6263223886489868
1772025731448096500,2.974096435546875,0.04220297187566757,0.2777644991874695,-0.5933955907821655
1772025731458094300,2.98409423828125,0.11125019937753677,0.25587591528892517,-0.5413435697555542
1772025731468091400,2.99409130859375,0.15823476016521454,0.22687038779258728,-0.482096791267395
1772025731478088400,3.00408837890625,0.18543711304664612,0.1795402318239212,-0.4164349138736725
1772025731488086500,3.01408642578125,0.19627617299556732,0.13907669484615326,-0.3497387170791626
1772025731498083300,3.024083251953125,0.1921360045671463,0.10873548686504364,-0.2882639467716217
1772025731508081400,3.034081298828125,0.18411801755428314,0.07994192093610764,-0.24261921644210815
1772025731518078200,3.044078125,0.16010916233062744,0.04896329715847969,-0.2204856276512146
1772025731528075500,3.054075439453125,0.13767309486865997,0.0323084220290184,-0.20227918028831482
1772025731538073300,3.0640732421875,0.11814215779304504,0.03805255889892578,-0.19035188853740692
1772025731548070400,3.0740703125,0.10144200921058655,0.05860976502299309,-0.1898496150970459
1772025731558068500,3.084068359375,0.0866301879286766,0.08733260631561279,-0.20332153141498566
1772025731568065300,3.094065185546875,0.08379525691270828,0.12900708615779877,-0.21382424235343933
1772025731578062300,3.104062255859375,0.10202023386955261,0.17894898355007172,-0.22251740097999573
1772025731588060400,3.114060302734375,0.13068249821662903,0.22087059915065765,-0.23792964220046997
1772025731598057500,3.124057373046875,0.1724243462085724,0.2379538118839264,-0.24432456493377686
1772025731608055300,3.13405517578125,0.21255925297737122,0.24905972182750702,-0.24365770816802979
1772025731618052600,3.144052490234375,0.247416153550148,0.25200387835502625,-0.23546403646469116
1772025731628049400,3.15404931640625,0.2839057147502899,0.24540936946868896,-0.21787385642528534
1772025731638047500,3.164047607421875,0.3169771432876587,0.24129071831703186,-0.19386638700962067
1772025731648044300,3.174044189453125,0.3508285880088806,0.23011156916618347,-0.15792302787303925
1772025731658042400,3.18404248046875,0.3753271698951721,0.21231302618980408,-0.10340099036693573
1772025731668039400,3.194039306640625,0.4034179449081421,0.18826255202293396,-0.03506508097052574
1772025731678036500,3.204036376953125,0.434402197599411,0.16916866600513458,0.04257857799530029
1772025731688034300,3.214034423828125,0.45776262879371643,0.1598055213689804,0.12189390510320663
1772025731698031400,3.22403125,0.4749530851840973,0.15048472583293915,0.19212493300437927
1772025731708028400,3.2340283203125,0.4618266224861145,0.13709382712841034,0.23947806656360626
1772025731718026500,3.244026611328125,0.4416712522506714,0.12300615012645721,0.27426081895828247
1772025731728023300,3.254023193359375,0.426829993724823,0.11237454414367676,0.29664042592048645
1772025731738021400,3.264021484375,0.41518616676330566,0.08358034491539001,0.29906123876571655
1772025731748018400,3.274018310546875,0.3950313627719879,0.05267169699072838,0.29043444991111755
1772025731758015500,3.284015380859375,0.37103572487831116,0.07269858568906784,0.2766645848751068
1772025731768013600,3.294013671875,0.34097397327423096,0.12678685784339905,0.2733393609523773
1772025731778010400,3.30401025390625,0.3201730251312256,0.18443430960178375,0.26736879348754883
1772025731788008400,3.314008544921875,0.32050061225891113,0.23155389726161957,0.2696785628795624
1772025731798005200,3.324005126953125,0.36103150248527527,0.27029159665107727,0.29304832220077515
1772025731808002600,3.33400244140625,0.4210999011993408,0.2574322521686554,0.3140004873275757
1772025731818000400,3.34400048828125,0.45818835496902466,0.19914928078651428,0.30703282356262207
1772025731827997400,3.35399755859375,0.4767910838127136,0.13416787981987,0.28871479630470276
1772025731837995300,3.363995361328125,0.49798819422721863,0.10032854229211807,0.28424346446990967
1772025731847992300,3.373992431640625,0.5173150897026062,0.07756970077753067,0.3024746775627136
1772025731857989400,3.3839892578125,0.5199036002159119,0.04833727329969406,0.3066793978214264
1772025731867987500,3.393987548828125,0.4900985658168793,0.006004730239510536,0.30629774928092957
1772025731877984500,3.403984619140625,0.45574507117271423,0.0003608628176152706,0.29869502782821655
1772025731887981300,3.413981201171875,0.4252702593803406,0.021450702100992203,0.2911604344844818
1772025731897979400,3.4239794921875,0.39796164631843567,0.03637870401144028,0.27165091037750244
1772025731907976400,3.4339765625,0.3653238117694855,0.037927329540252686,0.22599740326404572
1772025731917974500,3.443974609375,0.3264325261116028,0.04108487814664841,0.17295335233211517
1772025731927971300,3.453971435546875,0.28733333945274353,0.06168629229068756,0.11197255551815033
1772025731937968400,3.463968505859375,0.25200292468070984,0.09116212278604507,0.056587666273117065
1772025731947966500,3.473966552734375,0.23024968802928925,0.13103096187114716,0.009339991956949234
1772025731957963500,3.483963623046875,0.21584267914295197,0.16268828511238098,-0.02816496416926384
1772025731967961300,3.49396142578125,0.20590776205062866,0.18082387745380402,-0.05936363339424133
1772025731977958400,3.50395849609375,0.2088833451271057,0.1788506805896759,-0.0833088606595993
1772025731987955500,3.51395556640625,0.22973136603832245,0.1622900813817978,-0.09391436725854874
1772025731997953500,3.52395361328125,0.25353145599365234,0.13272643089294434,-0.08901353925466537
1772025732007950300,3.533950439453125,0.2701530456542969,0.09469727426767349,-0.07144387066364288
1772025732017948400,3.543948486328125,0.2733042538166046,0.059863023459911346,-0.0465572215616703
1772025732027945500,3.553945556640625,0.28576359152793884,0.049277760088443756,0.004905169364064932
1772025732037942500,3.563942626953125,0.3058012127876282,0.05879327654838562,0.08012030273675919
1772025732047940600,3.573940673828125,0.3414748013019562,0.07939255982637405,0.16990478336811066
1772025732057937400,3.5839375,0.391523540019989,0.09070281684398651,0.25294971466064453
1772025732067935500,3.593935546875,0.44101494550704956,0.08785615861415863,0.31491056084632874
1772025732077932300,3.603932373046875,0.4736436903476715,0.06803860515356064,0.34470731019973755
1772025732087929600,3.6139296875,0.4863094091415405,0.04082190617918968,0.3484421372413635
1772025732097927400,3.623927490234375,0.47907134890556335,0.026044223457574844,0.33593615889549255
1772025732107924500,3.633924560546875,0.472930908203125,0.01620570756494999,0.311138391494751
1772025732117921300,3.64392138671875,0.46278345584869385,0.009476699866354465,0.278181791305542
1772025732127919400,3.65391943359375,0.4499502182006836,0.012704983353614807,0.23826605081558228
1772025732137916400,3.66391650390625,0.4193752110004425,0.027484508231282234,0.19263073801994324
1772025732147914500,3.67391455078125,0.36806008219718933,0.040060486644506454,0.12708234786987305
1772025732157911300,3.683911376953125,0.3003558814525604,0.03509422391653061,0.047041576355695724
1772025732167908400,3.693908447265625,0.23413769900798798,0.014937290921807289,-0.04968763142824173
1772025732177906400,3.703906494140625,0.16523264348506927,-0.033176105469465256,-0.16651850938796997
1772025732187903500,3.713903564453125,0.09489589184522629,-0.09239761531352997,-0.29906588792800903
1772025732197901600,3.723901611328125,0.04234226420521736,-0.13391850888729095,-0.4303103983402252
1772025732207898400,3.7338984375,0.002271810546517372,-0.14888733625411987,-0.5341271162033081
1772025732217895400,3.7438955078125,-0.012964117340743542,-0.09820999950170517,-0.6090196967124939
1772025732227893200,3.753893310546875,-0.007419149857014418,0.005082299467176199,-0.636367678642273
1772025732237890600,3.763890625,0.049291063100099564,0.12195541709661484,-0.6147281527519226
1772025732247888400,3.773888427734375,0.13792505860328674,0.2355392426252365,-0.5745093822479248
1772025732257885400,3.783885498046875,0.24527357518672943,0.32313764095306396,-0.5257697105407715
1772025732267882200,3.79388232421875,0.34620949625968933,0.37744376063346863,-0.4837567210197449
1772025732277880300,3.80388037109375,0.41645026206970215,0.387393057346344,-0.45186087489128113
1772025732287877400,3.81387744140625,0.4566882252693176,0.36751601099967957,-0.42314109206199646
1772025732297875500,3.82387548828125,0.481844961643219,0.3131767809391022,-0.3906511962413788
1772025732307872300,3.833872314453125,0.5007645487785339,0.24504034221172333,-0.34922468662261963
1772025732317869300,3.843869384765625,0.5112522840499878,0.18855170905590057,-0.30907076597213745
1772025732327867400,3.853867431640625,0.5058348774909973,0.14392751455307007,-0.25543737411499023
1772025732337864400,3.863864501953125,0.49253520369529724,0.10848438739776611,-0.19764654338359833
1772025732347861200,3.873861328125,0.4572848081588745,0.06748475134372711,-0.14467574656009674
1772025732357859300,3.883859375,0.4114360213279724,0.03216171637177467,-0.11147104203701019
1772025732367856400,3.8938564453125,0.36060237884521484,0.01847812905907631,-0.09516290575265884
1772025732377854500,3.9038544921875,0.3091416358947754,-0.0010183820268139243,-0.09290430694818497
1772025732387851500,3.9138515625,0.2539241909980774,-0.025411605834960938,-0.11314299702644348
1772025732397848300,3.923848388671875,0.2015916258096695,-0.05925198271870613,-0.14272110164165497
1772025732407846400,3.933846435546875,0.1434156745672226,-0.09245840460062027,-0.16908346116542816
1772025732417843500,3.943843505859375,0.0856838971376419,-0.1374460756778717,-0.18512462079524994
1772025732427841500,3.953841552734375,0.030073363333940506,-0.18460799753665924,-0.19526593387126923
1772025732437838300,3.96383837890625,-0.007260433863848448,-0.21545875072479248,-0.18157236278057098
1772025732447835400,3.97383544921875,-0.02359519898891449,-0.23071041703224182,-0.15358254313468933
1772025732457833500,3.98383349609375,-0.02980630286037922,-0.23286737501621246,-0.11979880183935165
1772025732467830500,3.99383056640625,-0.032068125903606415,-0.22747473418712616,-0.0844338908791542
1772025732477828600,4.00382861328125,-0.02353094145655632,-0.20938615500926971,-0.04719258099794388
1772025732487825400,4.013825439453125,-0.00019233080092817545,-0.18606911599636078,-0.01245217677205801
1772025732497822500,4.023822509765625,0.03379819914698601,-0.17231078445911407,0.023044226691126823
1772025732507820300,4.0338203125,0.068332739174366,-0.15933719277381897,0.07039576768875122
1772025732517817600,4.043817626953125,0.10641646385192871,-0.1204538643360138,0.12299119681119919
1772025732527814400,4.053814453125,0.15120524168014526,-0.06335728615522385,0.17924009263515472
1772025732537812500,4.0638125,0.21677358448505402,-0.009604619815945625,0.23077437281608582
1772025732547809300,4.073809326171875,0.28821393847465515,0.029998984187841415,0.2723250091075897
1772025732557807400,4.083807373046875,0.3442726135253906,0.031361136585474014,0.2869648039340973
1772025732567804400,4.093804443359375,0.3556791841983795,0.004461877979338169,0.2653908133506775
1772025732577801500,4.103801513671875,0.33019518852233887,-0.03645693510770798,0.2111765742301941
1772025732587799600,4.113799560546875,0.2822665572166443,-0.07066763192415237,0.15719537436962128
1772025732597796400,4.12379638671875,0.22798101603984833,-0.10398654639720917,0.11309529095888138
1772025732607794400,4.13379443359375,0.17754793167114258,-0.13014304637908936,0.08497976511716843
1772025732617791500,4.14379150390625,0.13499538600444794,-0.1582367718219757,0.07766992598772049
1772025732627788500,4.15378857421875,0.10721569508314133,-0.1832880675792694,0.0840924084186554
1772025732637786400,4.163786376953125,0.10093612968921661,-0.21141116321086884,0.09801268577575684
1772025732647783400,4.173783447265625,0.11529909074306488,-0.2561112642288208,0.11938454955816269
1772025732657781200,4.18378125,0.14334742724895477,-0.29682713747024536,0.1298566311597824
1772025732667778600,4.193778564453125,0.16440238058567047,-0.3256334960460663,0.1260664165019989
1772025732677775400,4.203775390625,0.18215049803256989,-0.33871009945869446,0.11378072202205658
1772025732687773400,4.2137734375,0.18876366317272186,-0.32206401228904724,0.10276881605386734
1772025732697770200,4.223770263671875,0.18309316039085388,-0.2792420983314514,0.08409759402275085
1772025732707767600,4.233767578125,0.17292813956737518,-0.21700935065746307,0.07623274624347687
1772025732717765400,4.243765380859375,0.1645946502685547,-0.14958155155181885,0.07486899942159653
1772025732727762400,4.253762451171875,0.16464738547801971,-0.09251293540000916,0.07202847301959991
1772025732737760500,4.263760498046875,0.16190505027770996,-0.05900469049811363,0.05763309821486473
1772025732747757300,4.27375732421875,0.15176160633563995,-0.021109770983457565,0.03361857682466507
1772025732757754600,4.283754638671875,0.13979962468147278,0.031209856271743774,0.01778668351471424
1772025732767752400,4.29375244140625,0.13370072841644287,0.10113860666751862,0.01080361008644104
1772025732777749500,4.30374951171875,0.12275080382823944,0.1740424782037735,0.011977522633969784
1772025732787747300,4.313747314453125,0.10376539826393127,0.2218715101480484,0.013173814862966537
1772025732797744600,4.32374462890625,0.0771733969449997,0.2431047260761261,0.02390243299305439
1772025732807741400,4.333741455078125,0.03488798812031746,0.25866156816482544,0.04250967502593994
1772025732817739500,4.343739501953125,-0.010437188670039177,0.26431310176849365,0.06666094809770584
1772025732827736300,4.353736328125,-0.06707437336444855,0.2562112510204315,0.10060665756464005
1772025732837734400,4.363734375,-0.1246928796172142,0.23847657442092896,0.12800046801567078
1772025732847731500,4.3737314453125,-0.17047527432441711,0.22251571714878082,0.13852155208587646
1772025732857728500,4.383728515625,-0.2159498929977417,0.19458122551441193,0.12072430551052094
1772025732867726600,4.3937265625,-0.24900025129318237,0.16889424622058868,0.07639811933040619
1772025732877723400,4.403723388671875,-0.2713754177093506,0.15999214351177216,0.009765639901161194
1772025732887721500,4.413721435546875,-0.2823109030723572,0.1621602177619934,-0.07956503331661224
1772025732897718500,4.423718505859375,-0.2830275595188141,0.17400164902210236,-0.18176597356796265
1772025732907715600,4.433715576171875,-0.2621702253818512,0.19157958030700684,-0.292252779006958
1772025732917713400,4.44371337890625,-0.2320946305990219,0.21087095141410828,-0.3913884460926056
1772025732927710500,4.45371044921875,-0.1861814707517624,0.2332977056503296,-0.46727442741394043
1772025732937707500,4.46370751953125,-0.12550731003284454,0.25835856795310974,-0.5068129897117615
1772025732947705600,4.47370556640625,-0.060547761619091034,0.27421340346336365,-0.5158568024635315
1772025732957702400,4.483702392578125,-0.0061462074518203735,0.26884669065475464,-0.4999672770500183
1772025732967700500,4.493700439453125,0.03222941234707832,0.2501353323459625,-0.47003597021102905
1772025732977697300,4.503697265625,0.05054313689470291,0.2236272096633911,-0.42850905656814575
1772025732987694600,4.513694580078125,0.060434382408857346,0.19216009974479675,-0.3793271481990814
1772025732997692400,4.5236923828125,0.0601399764418602,0.1643887311220169,-0.3388253152370453
1772025733007689500,4.533689453125,0.04334475100040436,0.1285226047039032,-0.3153173327445984
1772025733017687600,4.5436875,0.02926802448928356,0.11334991455078125,-0.29447081685066223
1772025733027684400,4.553684326171875,0.0032292334362864494,0.10483339428901672,-0.2820644974708557
1772025733037681400,4.563681396484375,-0.0327061228454113,0.09955969452857971,-0.27401918172836304
1772025733047679500,4.573679443359375,-0.062029656022787094,0.10246013849973679,-0.2726418077945709
1772025733057676500,4.583676513671875,-0.08981657028198242,0.10548076778650284,-0.2759850323200226
1772025733067674400,4.59367431640625,-0.1154034286737442,0.10117284208536148,-0.2840413451194763
1772025733077671400,4.60367138671875,-0.13761788606643677,0.10219556838274002,-0.28411486744880676
1772025733087668500,4.61366845703125,-0.14774535596370697,0.11960012465715408,-0.27351734042167664
1772025733097666600,4.62366650390625,-0.1509731560945511,0.1376185417175293,-0.26829981803894043
1772025733107663400,4.633663330078125,-0.14064913988113403,0.1373935043811798,-0.26347923278808594
1772025733117660400,4.643660400390625,-0.12144868820905685,0.12993352115154266,-0.2524830996990204
1772025733127658200,4.653658203125,-0.09309347718954086,0.1200191080570221,-0.2389822006225586
1772025733137655600,4.663655517578125,-0.05232924595475197,0.09509211778640747,-0.22022674977779388
1772025733147653400,4.6736533203125,-0.0095564816147089,0.07732297480106354,-0.19177405536174774
1772025733157650400,4.683650390625,0.028013836592435837,0.08002845197916031,-0.14521682262420654
1772025733167647500,4.6936474609375,0.06679798662662506,0.09978298097848892,-0.08548238128423691
1772025733177645600,4.7036455078125,0.10122526437044144,0.11747864633798599,-0.023578474298119545
1772025733187642400,4.713642333984375,0.12360592931509018,0.1449478268623352,0.03902605175971985
1772025733197640400,4.723640380859375,0.14020779728889465,0.1684855967760086,0.09956342726945877
1772025733207637500,4.733637451171875,0.14425286650657654,0.18504059314727783,0.15631964802742004
1772025733217634600,4.743634521484375,0.13812921941280365,0.2038096934556961,0.20032000541687012
1772025733227632600,4.753632568359375,0.12841640412807465,0.19598744809627533,0.23892785608768463
1772025733237629400,4.76362939453125,0.12021323293447495,0.17533555626869202,0.2679480016231537
1772025733247627500,4.77362744140625,0.09690125286579132,0.1498107612133026,0.29434871673583984
1772025733257624300,4.783624267578125,0.06868190318346024,0.11491026729345322,0.312046617269516
1772025733267621600,4.79362158203125,0.015085255727171898,0.09802769124507904,0.31654229760169983
1772025733277619500,4.803619384765625,-0.031975794583559036,0.13472428917884827,0.33349356055259705
1772025733287616500,4.813616455078125,-0.06094992160797119,0.1911311000585556,0.34282928705215454
1772025733297614300,4.8236142578125,-0.0892668142914772,0.19527648389339447,0.3303103744983673
1772025733307611400,4.833611328125,-0.1274387091398239,0.16324612498283386,0.28675782680511475
1772025733317608400,4.8436083984375,-0.15037834644317627,0.13224910199642181,0.2396152764558792
1772025733327606500,4.8536064453125,-0.1556335687637329,0.12447986751794815,0.2089255452156067
1772025733337603300,4.863603271484375,-0.15121319890022278,0.14675067365169525,0.19730937480926514
1772025733347600400,4.873600341796875,-0.147122323513031,0.19619251787662506,0.19764652848243713
1772025733357598500,4.883598388671875,-0.1294877827167511,0.252114474773407,0.21955832839012146
1772025733367595500,4.893595458984375,-0.09361288696527481,0.28953373432159424,0.24933220446109772
1772025733377593600,4.903593505859375,-0.05593924969434738,0.313175231218338,0.27154436707496643
1772025733387590400,4.91359033203125,-0.02715846709907055,0.29549476504325867,0.28278425335884094
1772025733397587500,4.92358740234375,-0.01485647913068533,0.2316550463438034,0.2706458866596222
1772025733407585300,4.933585205078125,-0.02776668407022953,0.13550081849098206,0.23406711220741272
1772025733417582600,4.94358251953125,-0.06307707726955414,0.034045394510030746,0.19014260172843933
1772025733427580400,4.953580322265625,-0.1040271744132042,-0.02833888679742813,0.1437375545501709
1772025733437577500,4.963577392578125,-0.1451972872018814,-0.04019669443368912,0.09980951249599457
1772025733447574300,4.97357421875,-0.180291086435318,-0.03618357703089714,0.04108361154794693
1772025733457572600,4.983572509765625,-0.2057405412197113,-0.02667921595275402,-0.0326719731092453
1772025733467570000,4.99356982421875,-0.20974886417388916,-0.005612013395875692,-0.1056407168507576
1772025733477567700,5.003567626953125,-0.21515363454818726,0.014516951516270638,-0.1748153418302536
1772025733487564800,5.013564697265625,-0.21345001459121704,0.011061498895287514,-0.23680734634399414
1772025733497561600,5.0235615234375,-0.17241661250591278,-0.0021112775430083275,-0.2502387762069702
1772025733507559700,5.0335595703125,-0.08625990152359009,0.019451804459095,-0.20373626053333282
1772025733517556700,5.043556640625,0.0407508946955204,0.07846041023731232,-0.09661905467510223
1772025733527554800,5.053554931640625,0.18222840130329132,0.1533184051513672,0.035694241523742676
1772025733537552000,5.0635517578125,0.31667450070381165,0.2195030301809311,0.1709410697221756
1772025733547548700,5.073548583984375,0.40202030539512634,0.2595125138759613,0.27289512753486633
1772025733557546800,5.083546630859375,0.43868088722229004,0.2709394693374634,0.32220637798309326
1772025733567543800,5.093543701171875,0.45221105217933655,0.2672360837459564,0.337659627199173
1772025733577540900,5.103540771484375,0.4494810104370117,0.24688491225242615,0.30921468138694763
1772025733587538700,5.11353857421875,0.42717409133911133,0.21289019286632538,0.24639974534511566
1772025733597535700,5.12353564453125,0.39420512318611145,0.14069819450378418,0.17228791117668152
1772025733607533600,5.133533447265625,0.3431185185909271,0.047629229724407196,0.09276485443115234
1772025733617531000,5.14353076171875,0.2706792950630188,-0.042281150817871094,0.024575473740696907
1772025733627527700,5.153527587890625,0.1606675684452057,-0.11132200062274933,-0.035307034850120544
1772025733637525800,5.16352587890625,0.04001357778906822,-0.1570853888988495,-0.08665904402732849
1772025733647522600,5.1735224609375,-0.07481925934553146,-0.1911296397447586,-0.1342068463563919
1772025733657521000,5.18352099609375,-0.1652936190366745,-0.2067050188779831,-0.1884451061487198
1772025733667517700,5.193517578125,-0.22116141021251678,-0.2024191915988922,-0.24796037375926971
1772025733677514800,5.2035146484375,-0.25799989700317383,-0.17603671550750732,-0.30403271317481995
1772025733687512800,5.213512939453125,-0.266806423664093,-0.1379561722278595,-0.33373627066612244
1772025733697510000,5.223510009765625,-0.23444907367229462,-0.07683101296424866,-0.33200153708457947
1772025733707508000,5.233508056640625,-0.16581888496875763,0.022266007959842682,-0.2884117066860199
1772025733717504800,5.2435048828125,-0.06857774406671524,0.14189259707927704,-0.2348075658082962
1772025733727501800,5.253501708984375,0.04078230634331703,0.25020256638526917,-0.18468846380710602
1772025733737499600,5.263499755859375,0.1425708681344986,0.3321962058544159,-0.15738779306411743
1772025733747497000,5.2734970703125,0.21828480064868927,0.38295871019363403,-0.15466471016407013
1772025733757493800,5.28349365234375,0.2684544622898102,0.4004712998867035,-0.16835737228393555
1772025733767491800,5.293491943359375,0.3072551488876343,0.3812645971775055,-0.1870913803577423
1772025733777488600,5.303488525390625,0.33832332491874695,0.3472197651863098,-0.20368751883506775
1772025733787486000,5.31348583984375,0.36923062801361084,0.30767396092414856,-0.20953954756259918
1772025733797482800,5.323482666015625,0.39164599776268005,0.2625727951526642,-0.2028464376926422
1772025733807480800,5.333480712890625,0.4021790623664856,0.19508083164691925,-0.18609276413917542
1772025733817477600,5.3434775390625,0.38786581158638,0.12103838473558426,-0.16164885461330414
1772025733827475700,5.353475830078125,0.3556961715221405,0.045959342271089554,-0.12496089190244675
1772025733837472800,5.36347265625,0.3000952899456024,-0.015605965629220009,-0.08529429137706757
1772025733847469800,5.3734697265625,0.23638875782489777,-0.07804138213396072,-0.039744652807712555
1772025733857468000,5.383468017578125,0.16452623903751373,-0.1350277066230774,0.01589796505868435
1772025733867464700,5.393464599609375,0.08731693029403687,-0.18175846338272095,0.06695928424596786
1772025733877462800,5.403462890625,0.014746759086847305,-0.21397936344146729,0.12455514073371887
1772025733887459800,5.4134599609375,-0.047893717885017395,-0.24572716653347015,0.16772417724132538
1772025733897457000,5.423456787109375,-0.10394085198640823,-0.27620241045951843,0.18929758667945862
1772025733907454700,5.433454833984375,-0.15150704979896545,-0.3019266724586487,0.19152559340000153
1772025733917451800,5.44345166015625,-0.19892172515392303,-0.3224850296974182,0.16859549283981323
1772025733927448800,5.45344873046875,-0.23230284452438354,-0.35093557834625244,0.12873010337352753
1772025733937447000,5.463447021484375,-0.25814583897590637,-0.36233624815940857,0.07765766233205795
1772025733947443700,5.473443603515625,-0.2664407789707184,-0.3534364700317383,0.025847995653748512
1772025733957441800,5.48344189453125,-0.2654857933521271,-0.3263089656829834,-0.019247984513640404
1772025733967438600,5.4934384765625,-0.2554107904434204,-0.30284011363983154,-0.05203655734658241
1772025733977436000,5.503435791015625,-0.23361054062843323,-0.27607762813568115,-0.0641806349158287
1772025733987433700,5.513433837890625,-0.21032865345478058,-0.23655526340007782,-0.0678107887506485
1772025733997430800,5.5234306640625,-0.16954892873764038,-0.20396462082862854,-0.05816373974084854
1772025734007428900,5.533428955078125,-0.12398702651262283,-0.18431395292282104,-0.03126075491309166
1772025734017425700,5.54342578125,-0.06097537651658058,-0.15885552763938904,0.01019493117928505
1772025734027422700,5.553422607421875,0.01030865777283907,-0.11513572931289673,0.06271752715110779
1772025734037420800,5.5634208984375,0.09400194883346558,-0.08141560107469559,0.11641572415828705
1772025734047417900,5.57341796875,0.15571750700473785,-0.08173385262489319,0.14422419667243958
1772025734057415700,5.583415771484375,0.18599411845207214,-0.10626199096441269,0.13171930611133575
1772025734067412700,5.593412841796875,0.19506964087486267,-0.15592674911022186,0.08239810168743134
1772025734077409800,5.603409912109375,0.1999368965625763,-0.20022456347942352,0.03382542356848717
1772025734087407900,5.613407958984375,0.2002202570438385,-0.21719501912593842,0.0006727952277287841
1772025734097404700,5.62340478515625,0.20833411812782288,-0.20324775576591492,-0.00745969545096159
1772025734107401700,5.633401611328125,0.21748527884483337,-0.17283152043819427,0.006099256221204996
1772025734117399800,5.64339990234375,0.23862622678279877,-0.1501939296722412,0.037879280745983124
1772025734127396900,5.65339697265625,0.25097769498825073,-0.15900206565856934,0.06294522434473038
1772025734137394700,5.663394775390625,0.2506677806377411,-0.18993090093135834,0.07520070672035217
1772025734147391700,5.673391845703125,0.23090100288391113,-0.22826923429965973,0.07374581694602966
1772025734157388800,5.683388916015625,0.19731135666370392,-0.27728310227394104,0.05966808646917343
1772025734167387000,5.693386962890625,0.14725138247013092,-0.3124929964542389,0.03788129612803459
1772025734177384000,5.703384033203125,0.09759807586669922,-0.3345072269439697,0.019871138036251068
1772025734187381800,5.7133818359375,0.04473166912794113,-0.33608993887901306,0.012384725734591484
1772025734197378800,5.72337890625,-0.0031502479687333107,-0.33534419536590576,0.020276134833693504
1772025734207376000,5.7333759765625,-0.05410370975732803,-0.33178675174713135,0.034721922129392624
1772025734217374000,5.7433740234375,-0.10874970257282257,-0.3341427445411682,0.053980108350515366
1772025734227370800,5.753370849609375,-0.15182580053806305,-0.32381901144981384,0.07875922322273254
1772025734237368800,5.763368896484375,-0.18266049027442932,-0.3010864555835724,0.11462028324604034
1772025734247365600,5.77336572265625,-0.19266384840011597,-0.25191357731819153,0.1565578728914261
1772025734257363000,5.783363037109375,-0.18582792580127716,-0.1863202601671219,0.2106906771659851
1772025734267360800,5.79336083984375,-0.16580602526664734,-0.09934435784816742,0.2704821228981018
1772025734277357800,5.80335791015625,-0.14685596525669098,0.013374743051826954,0.32273533940315247
1772025734287354600,5.813354736328125,-0.12808841466903687,0.12109481543302536,0.3625461161136627
1772025734297352700,5.823352783203125,-0.11767899990081787,0.1964251548051834,0.3771134912967682
1772025734307349800,5.833349853515625,-0.11667898297309875,0.240126833319664,0.36653247475624084
1772025734317347800,5.843347900390625,-0.1202126145362854,0.262927383184433,0.339831680059433
1772025734327345000,5.853344970703125,-0.12845563888549805,0.26677536964416504,0.3061610758304596
1772025734337341700,5.863341796875,-0.13306470215320587,0.2589985728263855,0.2801697254180908
1772025734347339800,5.87333984375,-0.14002248644828796,0.24231946468353271,0.2492559850215912
1772025734357336800,5.8833369140625,-0.15703600645065308,0.22204206883907318,0.2118813693523407
1772025734367335000,5.8933349609375,-0.17678362131118774,0.1843482255935669,0.15854650735855103
1772025734377331700,5.903331787109375,-0.19362036883831024,0.11670887470245361,0.09434742480516434
1772025734387328800,5.913328857421875,-0.2056243121623993,0.05923333391547203,0.018081149086356163
1772025734397326600,5.92332666015625,-0.22035153210163116,0.011419747024774551,-0.07205286622047424
1772025734407324700,5.93332470703125,-0.23680827021598816,-0.018542412668466568,-0.18013352155685425
1772025734417321700,5.94332177734375,-0.24426941573619843,-0.03501361235976219,-0.2941908538341522
1772025734427319800,5.95331982421875,-0.23610016703605652,-0.03518512099981308,-0.4121931195259094
1772025734437316900,5.96331689453125,-0.20327110588550568,-0.022224273532629013,-0.514144241809845
1772025734447313700,5.973313720703125,-0.15142256021499634,-0.0012697239872068167,-0.5966836214065552
1772025734457312000,5.98331201171875,-0.09091394394636154,0.01673613302409649,-0.6380800008773804
1772025734467309300,5.993309326171875,-0.03038002923130989,0.03899510204792023,-0.6380696296691895
1772025734477307100,6.00330712890625,0.027968909591436386,0.06797131896018982,-0.5950211882591248
1772025734487304200,6.01330419921875,0.08255784958600998,0.10402386635541916,-0.5188694596290588
1772025734497301000,6.023301025390625,0.12447645515203476,0.13304799795150757,-0.42190566658973694
1772025734507299000,6.033299072265625,0.14899617433547974,0.1321992427110672,-0.3314255475997925
1772025734517296400,6.04329638671875,0.151413694024086,0.11731761693954468,-0.2629624307155609
1772025734527294200,6.053294189453125,0.1409410685300827,0.08406059443950653,-0.21372883021831512
1772025734537291300,6.063291259765625,0.13004538416862488,0.05431239306926727,-0.1914985626935959
1772025734547288000,6.0732880859375,0.09171103686094284,0.03276395797729492,-0.18555545806884766
1772025734557286100,6.0832861328125,0.027850689366459846,0.002390376292169094,-0.19624757766723633
1772025734567283200,6.093283203125,-0.04696948826313019,-0.00637435307726264,-0.2179187834262848
1772025734577280300,6.1032802734375,-0.11452080309391022,0.003814449766650796,-0.23345938324928284
1772025734587278000,6.113278076171875,-0.15977643430233002,0.028624724596738815,-0.2337842881679535
1772025734597275100,6.123275146484375,-0.16953209042549133,0.07010061293840408,-0.22668936848640442
1772025734607273200,6.133273193359375,-0.15508365631103516,0.10434672981500626,-0.20738278329372406
1772025734617270300,6.143270263671875,-0.12016051262617111,0.1236436665058136,-0.1934908777475357
1772025734627267000,6.15326708984375,-0.07986422628164291,0.13143528997898102,-0.17329053580760956
1772025734637265200,6.16326513671875,-0.0302489772439003,0.12521353363990784,-0.15687893331050873
1772025734647262200,6.17326220703125,0.023162048310041428,0.11508766561746597,-0.13867223262786865
1772025734657260300,6.18326025390625,0.07126132398843765,0.1146220788359642,-0.120295949280262
1772025734667257300,6.19325732421875,0.1164327934384346,0.1147531047463417,-0.09298496693372726
1772025734677254100,6.203254150390625,0.15033286809921265,0.11680427193641663,-0.07075896114110947
1772025734687252200,6.213252197265625,0.17121152579784393,0.11779070645570755,-0.04598516970872879
1772025734697249300,6.223249267578125,0.1939878612756729,0.11575520783662796,-0.014513134956359863
1772025734707247400,6.233247314453125,0.21497224271297455,0.108085036277771,0.03038855828344822
1772025734717244200,6.243244140625,0.2305707335472107,0.10119383782148361,0.08225435018539429
1772025734727241200,6.2532412109375,0.23960179090499878,0.0982489138841629,0.14816412329673767
1772025734737239000,6.263239013671875,0.23486974835395813,0.09527222067117691,0.216319277882576
1772025734747236400,6.273236328125,0.21610724925994873,0.09254061430692673,0.2763589024543762
1772025734757233200,6.283233154296875,0.1841711401939392,0.08152440935373306,0.31463679671287537
1772025734767231200,6.293231201171875,0.16279101371765137,0.07765057682991028,0.34574705362319946
1772025734777228000,6.30322802734375,0.1485629379749298,0.10731305181980133,0.3720298409461975
1772025734787226000,6.31322607421875,0.1570024937391281,0.14940591156482697,0.396466463804245
1772025734797223200,6.32322314453125,0.16421222686767578,0.1727854609489441,0.4104554057121277
1772025734807220200,6.33322021484375,0.1494159698486328,0.16988234221935272,0.386300265789032
1772025734817218300,6.34321826171875,0.12275268137454987,0.17972810566425323,0.35548853874206543
1772025734827215000,6.353215087890625,0.1084110289812088,0.22516456246376038,0.32439374923706055
1772025734837213200,6.363213134765625,0.11207632720470428,0.2531956434249878,0.3009275794029236
1772025734847210200,6.373210205078125,0.11091039329767227,0.2523181140422821,0.28109315037727356
1772025734857207300,6.383207275390625,0.09981200844049454,0.2303294986486435,0.25629207491874695
1772025734867205000,6.393205078125,0.07312420010566711,0.1822999268770218,0.23825395107269287
1772025734877202200,6.4032021484375,0.038101810961961746,0.11359206587076187,0.22149379551410675
1772025734887200000,6.413199951171875,-0.01290917582809925,0.047653794288635254,0.19968463480472565
1772025734897197300,6.423197265625,-0.07526831328868866,-0.00499078119173646,0.16417238116264343
1772025734907194000,6.433194091796875,-0.14316028356552124,-0.04101616144180298,0.10938502848148346
1772025734917192200,6.443192138671875,-0.19960860908031464,-0.0477764718234539,0.04814032092690468
1772025734927189000,6.45318896484375,-0.2357058823108673,-0.02724403142929077,-0.005697610788047314
1772025734937186300,6.463186279296875,-0.2767854332923889,-0.004446139093488455,-0.061097677797079086
1772025734947184000,6.47318408203125,-0.2713904082775116,0.0015222713118419051,-0.08622779697179794
1772025734957181200,6.48318115234375,-0.219809889793396,0.003965435549616814,-0.08334866911172867
1772025734967179300,6.49317919921875,-0.13640767335891724,-0.00980550330132246,-0.05398225411772728
1772025734977176000,6.503176025390625,-0.04481925815343857,-0.04063793644309044,-0.008213095366954803
1772025734987173000,6.513173095703125,0.035767197608947754,-0.06536858528852463,0.0480634905397892
1772025734997171200,6.523171142578125,0.10514172166585922,-0.0828554779291153,0.11958348006010056
1772025735007168300,6.533168212890625,0.16432009637355804,-0.0617067813873291,0.2123328596353531
1772025735017166000,6.543166015625,0.2161557525396347,0.005865458399057388,0.31924113631248474
1772025735027163400,6.553163330078125,0.2599969804286957,0.08889296650886536,0.4160297214984894
1772025735037160200,6.56316015625,0.29891592264175415,0.13723063468933105,0.4783813953399658
1772025735047158300,6.573158203125,0.32183030247688293,0.1255742460489273,0.4975478947162628
1772025735057155000,6.583155029296875,0.32091817259788513,0.07178068161010742,0.47279927134513855
1772025735067153200,6.593153076171875,0.29716676473617554,0.010920792818069458,0.43206411600112915
1772025735077150200,6.603150146484375,0.26649656891822815,-0.03978355601429939,0.3801463842391968
1772025735087147300,6.613147216796875,0.2471042275428772,-0.0803016871213913,0.3316448926925659
1772025735097145000,6.62314501953125,0.23964081704616547,-0.13859854638576508,0.26976439356803894
1772025735107142100,6.63314208984375,0.22922678291797638,-0.19966590404510498,0.21022702753543854
1772025735117139200,6.64313916015625,0.20749753713607788,-0.2649368941783905,0.1474471390247345
1772025735127137300,6.65313720703125,0.15444017946720123,-0.31116989254951477,0.0744517594575882
1772025735137134300,6.66313427734375,0.06829874962568283,-0.3317229449748993,-0.028529688715934753
1772025735147132200,6.673132080078125,-0.04184320569038391,-0.3345986306667328,-0.15771269798278809
1772025735157129200,6.683129150390625,-0.16571734845638275,-0.3460676372051239,-0.3107384145259857
1772025735167126300,6.693126220703125,-0.27658021450042725,-0.35328346490859985,-0.47280508279800415
1772025735177124400,6.703124267578125,-0.37289944291114807,-0.32643845677375793,-0.6004153490066528
1772025735187121200,6.71312109375,-0.4473813772201538,-0.25869667530059814,-0.6794853806495667
1772025735197119200,6.723119140625,-0.4706769585609436,-0.16729886829853058,-0.7084577679634094
1772025735207116000,6.733115966796875,-0.4426650106906891,-0.07035926729440689,-0.6852443218231201
1772025735217113300,6.74311328125,-0.36030957102775574,0.03506051003932953,-0.6183353066444397
1772025735227111200,6.753111083984375,-0.25112849473953247,0.1290445327758789,-0.5251976251602173
1772025735237108200,6.763108154296875,-0.13266214728355408,0.20193886756896973,-0.4210098087787628
1772025735247106300,6.773106201171875,-0.014263328164815903,0.248462975025177,-0.3203284740447998
1772025735257103000,6.78310302734375,0.08322679251432419,0.2635323405265808,-0.2518797218799591
1772025735267100200,6.79310009765625,0.1370338350534439,0.23918144404888153,-0.22072070837020874
1772025735277098200,6.80309814453125,0.16573600471019745,0.19082990288734436,-0.2087053805589676
1772025735287095300,6.81309521484375,0.18243296444416046,0.13371895253658295,-0.2030743956565857
1772025735297092000,6.823092041015625,0.19448499381542206,0.07393085211515427,-0.20606447756290436
1772025735307090200,6.833090087890625,0.20643939077854156,0.023142775520682335,-0.20399120450019836
1772025735317087200,6.843087158203125,0.21307487785816193,-0.023513127118349075,-0.19484169781208038
1772025735327085300,6.853085205078125,0.21084873378276825,-0.08317965269088745,-0.1873515546321869
1772025735337082000,6.86308203125,0.1945541501045227,-0.13839931786060333,-0.17977114021778107
1772025735347079200,6.8730791015625,0.17430028319358826,-0.18428638577461243,-0.16248801350593567
1772025735357077200,6.8830771484375,0.15036040544509888,-0.23625297844409943,-0.13246673345565796
1772025735367074300,6.89307421875,0.1195545569062233,-0.28832921385765076,-0.09416434913873672
1772025735377072000,6.903072021484375,0.08656954020261765,-0.31846171617507935,-0.05304774269461632
1772025735387069200,6.913069091796875,0.050647493451833725,-0.337613582611084,-0.0067521496675908566
1772025735397066200,6.923066162109375,0.01781078428030014,-0.346888929605484,0.03605949878692627
1772025735407064300,6.933064208984375,-0.014115191996097565,-0.3672559857368469,0.05902473255991936
1772025735417061000,6.94306103515625,-0.04828790947794914,-0.39313390851020813,0.06773646175861359
1772025735427058200,6.95305810546875,-0.07582392543554306,-0.41656893491744995,0.05786625295877457
1772025735437056300,6.96305615234375,-0.10627073049545288,-0.42965638637542725,0.044575221836566925
1772025735447053300,6.97305322265625,-0.12872198224067688,-0.43037089705467224,0.02637837454676628
1772025735457050400,6.98305029296875,-0.1390066146850586,-0.4147532880306244,0.01743081398308277
1772025735467047200,6.993047119140625,-0.13518019020557404,-0.385646790266037,0.016688060015439987
1772025735477044200,7.003044189453125,-0.11064848303794861,-0.34859147667884827,0.03181867301464081
1772025735487042300,7.013042236328125,-0.06732630729675293,-0.2983940839767456,0.07123612612485886
1772025735497039400,7.023039306640625,0.005515331402420998,-0.2410682588815689,0.11844342947006226
1772025735507037200,7.033037109375,0.07680469006299973,-0.23176343739032745,0.15380674600601196
1772025735517034200,7.0430341796875,0.10365989059209824,-0.278093159198761,0.14521759748458862
1772025735527031300,7.05303125,0.07913989573717117,-0.3263416290283203,0.09626016765832901
1772025735537029400,7.063029296875,0.04331435263156891,-0.37249690294265747,0.026840100064873695
1772025735547026400,7.0730263671875,0.017906196415424347,-0.40083053708076477,-0.02777520939707756
1772025735557024300,7.083024169921875,0.018786678090691566,-0.3748767375946045,-0.04862762242555618
1772025735567021300,7.093021240234375,0.0429852232336998,-0.3199453353881836,-0.037211183458566666
1772025735577018400,7.103018310546875,0.0711846798658371,-0.28083083033561707,-0.0005312784342095256
1772025735587016400,7.113016357421875,0.09970153868198395,-0.2634963095188141,0.0608641691505909
1772025735597013200,7.12301318359375,0.12732967734336853,-0.261283814907074,0.13696354627609253
1772025735607011300,7.13301123046875,0.1456516981124878,-0.2922273576259613,0.20789790153503418
1772025735617008000,7.143008056640625,0.15153901278972626,-0.35545939207077026,0.2571488618850708
1772025735627005400,7.15300537109375,0.14140941202640533,-0.42427122592926025,0.27414649724960327
1772025735637003300,7.163003173828125,0.11478783935308456,-0.46769532561302185,0.2594738006591797
1772025735647000300,7.173000244140625,0.07101186364889145,-0.4973416328430176,0.2161782681941986
1772025735656997000,7.1829970703125,0.01879889704287052,-0.5189197659492493,0.15075285732746124
1772025735666995200,7.1929951171875,-0.04116324335336685,-0.5216569900512695,0.06917224079370499
1772025735676992300,7.2029921875,-0.09816917777061462,-0.49697989225387573,-0.011773011647164822
1772025735686990300,7.212990234375,-0.14265036582946777,-0.4518076181411743,-0.07081369310617447
1772025735696987400,7.2229873046875,-0.1658397763967514,-0.3853122889995575,-0.09899108111858368
1772025735706984200,7.232984130859375,-0.1662062257528305,-0.28830716013908386,-0.09219309687614441
1772025735716982300,7.242982177734375,-0.15791912376880646,-0.1714361608028412,-0.05372798070311546
1772025735726979300,7.252979248046875,-0.13557733595371246,-0.05312256142497063,0.016496116295456886
1772025735736977400,7.262977294921875,-0.11237481236457825,0.04770364984869957,0.09683623164892197
1772025735746974200,7.27297412109375,-0.11549896746873856,0.10440848022699356,0.15613576769828796
1772025735756971300,7.28297119140625,-0.14861848950386047,0.12365228682756424,0.18939445912837982
1772025735766969000,7.292968994140625,-0.19320006668567657,0.1259111613035202,0.19855813682079315
1772025735776966400,7.30296630859375,-0.23529982566833496,0.13838453590869904,0.1874222606420517
1772025735786964200,7.312964111328125,-0.2862415611743927,0.16018837690353394,0.15506644546985626
1772025735796961300,7.322961181640625,-0.3223140239715576,0.15422935783863068,0.11109878122806549
1772025735806958000,7.3329580078125,-0.35453346371650696,0.1211576908826828,0.04997577145695686
1772025735816956200,7.3429560546875,-0.39300498366355896,0.08758500218391418,-0.023254506289958954
1772025735826953200,7.352953125,-0.4182424247264862,0.06958123296499252,-0.09015524387359619
1772025735836950300,7.3629501953125,-0.42536523938179016,0.054281268268823624,-0.1527046263217926
1772025735846948400,7.3729482421875,-0.4058639705181122,0.045560747385025024,-0.20649196207523346
1772025735856945200,7.382945068359375,-0.372546523809433,0.04571767896413803,-0.2543240785598755
1772025735866943200,7.392943115234375,-0.32656705379486084,0.058085665106773376,-0.29510319232940674
1772025735876940300,7.402940185546875,-0.2761731743812561,0.07878511399030685,-0.32973721623420715
1772025735886937300,7.412937255859375,-0.22081324458122253,0.11086395382881165,-0.3539600074291229
1772025735896935200,7.42293505859375,-0.16099324822425842,0.1389906108379364,-0.3584953546524048
1772025735906932500,7.432932373046875,-0.11407207697629929,0.16012172400951385,-0.3604855239391327
1772025735916930300,7.442930419921875,-0.07842904329299927,0.18240860104560852,-0.3445569574832916
1772025735926927400,7.45292724609375,-0.0523335225880146,0.19051526486873627,-0.32172727584838867
1772025735936924200,7.462924072265625,-0.035577964037656784,0.1893339306116104,-0.2949683666229248
1772025735946922200,7.472922119140625,-0.017702026292681694,0.17604289948940277,-0.2648930251598358
1772025735956919300,7.482919189453125,-0.0041756536811590195,0.14570288360118866,-0.2297312319278717
1772025735966917400,7.49291748046875,0.006588577292859554,0.10598130524158478,-0.21127551794052124
1772025735976914200,7.5029140625,0.006703375373035669,0.06588398665189743,-0.2021680474281311
1772025735986911200,7.5129111328125,0.0007671897765249014,0.020474694669246674,-0.20437952876091003
1772025735996909300,7.522909423828125,-0.015363408252596855,-0.0017459027003496885,-0.21157781779766083
1772025736006906400,7.53290625,-0.030537834390997887,-0.00985656026750803,-0.2285621166229248
1772025736016903200,7.542903076171875,-0.03924113139510155,0.0006685658590868115,-0.24222272634506226
1772025736026901200,7.5529013671875,-0.03473186865448952,0.025273511186242104,-0.25308871269226074
1772025736036898300,7.562898193359375,-0.016744596883654594,0.05051951855421066,-0.2598115801811218
1772025736046896000,7.572896240234375,0.008964495733380318,0.08127636462450027,-0.26246196031570435
1772025736056893400,7.5828935546875,0.04326815903186798,0.10649361461400986,-0.26560553908348083
1772025736066890200,7.59289013671875,0.07316533476114273,0.13727550208568573,-0.25670525431632996
1772025736076888300,7.602888427734375,0.1041855737566948,0.1647685319185257,-0.24520666897296906
1772025736086885000,7.612885009765625,0.136178657412529,0.18833403289318085,-0.22795550525188446
1772025736096883200,7.62288330078125,0.17117689549922943,0.2158360481262207,-0.20344242453575134
1772025736106880300,7.63288037109375,0.2019214928150177,0.22786954045295715,-0.1817682981491089
1772025736116877300,7.642877197265625,0.22335278987884521,0.240907683968544,-0.15767902135849
1772025736126875100,7.652875244140625,0.23398731648921967,0.2416515052318573,-0.13033074140548706
1772025736136872200,7.6628720703125,0.24107162654399872,0.2407785952091217,-0.09128667414188385
1772025736146870300,7.672870361328125,0.23894377052783966,0.25073161721229553,-0.03796166926622391
1772025736156867300,7.682867431640625,0.2178044468164444,0.276583731174469,0.018605606630444527
1772025736166864400,7.692864501953125,0.18095135688781738,0.2843271493911743,0.0772998109459877
1772025736176862200,7.7028623046875,0.13061274588108063,0.2792469561100006,0.13088341057300568
1772025736186859300,7.712859375,0.07528263330459595,0.26600441336631775,0.18763643503189087
1772025736196856300,7.722856201171875,0.019396234303712845,0.2513169050216675,0.23594243824481964
1772025736206854400,7.7328544921875,-0.0357636883854866,0.24158088862895966,0.279866486787796
1772025736216851200,7.742851318359375,-0.09026775509119034,0.2444610297679901,0.30526846647262573
1772025736226849300,7.752849365234375,-0.12634533643722534,0.26575779914855957,0.32187432050704956
1772025736236846300,7.762846435546875,-0.1455940157175064,0.30848997831344604,0.3284047245979309
1772025736246843400,7.772843505859375,-0.15536755323410034,0.36433884501457214,0.323357492685318
1772025736256841200,7.78284130859375,-0.14690567553043365,0.4245908856391907,0.3049401640892029
1772025736266838300,7.79283837890625,-0.12454178184270859,0.4481004774570465,0.2699528634548187
1772025736276836400,7.80283642578125,-0.12254147976636887,0.413398414850235,0.21370291709899902
1772025736286833400,7.81283349609375,-0.14804629981517792,0.34690913558006287,0.1464458554983139
1772025736296830200,7.822830322265625,-0.17526212334632874,0.3166019022464752,0.09910822659730911
1772025736306828300,7.832828369140625,-0.20286446809768677,0.31787702441215515,0.09172087907791138
1772025736316825300,7.842825439453125,-0.22944742441177368,0.323627233505249,0.09643860906362534
1772025736326823200,7.8528232421875,-0.2587030231952667,0.325981467962265,0.10829846560955048
1772025736336820500,7.862820556640625,-0.27027687430381775,0.30723148584365845,0.1297033578157425
1772025736346817300,7.8728173828125,-0.28060486912727356,0.2727893590927124,0.15309816598892212
1772025736356815400,7.8828154296875,-0.29323261976242065,0.24136917293071747,0.16663748025894165
1772025736366812200,7.892812255859375,-0.31159350275993347,0.21476979553699493,0.16262489557266235
1772025736376809500,7.9028095703125,-0.3256039023399353,0.1884068101644516,0.1408919095993042
1772025736386807300,7.912807373046875,-0.34102705121040344,0.17465637624263763,0.10365025699138641
1772025736396804400,7.922804443359375,-0.34692707657814026,0.17168842256069183,0.06630687415599823
1772025736406802200,7.93280224609375,-0.3454767167568207,0.16110502183437347,0.03326183930039406
1772025736416799200,7.94279931640625,-0.35172274708747864,0.141530379652977,0.005469026509672403
1772025736426796300,7.95279638671875,-0.35366392135620117,0.10137976706027985,-0.01288548018783331
1772025736436794400,7.96279443359375,-0.3516024351119995,0.07129610329866409,-0.011844512075185776
1772025736446791200,7.972791259765625,-0.3252297043800354,0.05116100609302521,0.016517089679837227
1772025736456789000,7.9827890625,-0.29564493894577026,0.03323567658662796,0.06067602336406708
1772025736466786000,7.9927861328125,-0.2647362947463989,0.024967094883322716,0.11602742969989777
1772025736476783000,8.002783203125,-0.21292239427566528,0.04692257195711136,0.18217328190803528
1772025736486781200,8.01278125,-0.1467292606830597,0.07325751334428787,0.25833195447921753
1772025736496778000,8.022778076171875,-0.08088521659374237,0.09034500271081924,0.3253736197948456
1772025736506776000,8.032776123046874,-0.017891868948936462,0.11541306972503662,0.3855844736099243
1772025736516772900,8.04277294921875,0.02665943279862404,0.12496989220380783,0.43451133370399475
1772025736526770200,8.052770263671874,0.05487003177404404,0.13351304829120636,0.4599993824958801
1772025736536768000,8.06276806640625,0.07254599779844284,0.12177258729934692,0.4621509611606598
1772025736546765000,8.07276513671875,0.09923113137483597,0.09903398156166077,0.4499070644378662
1772025736556761900,8.082761962890626,0.13167262077331543,0.06677291542291641,0.4352870583534241
1772025736566760000,8.092760009765625,0.16054527461528778,0.020192893221974373,0.41646915674209595
1772025736576757000,8.102757080078124,0.1722899079322815,-0.017995435744524002,0.3898448050022125
1772025736586755000,8.112755126953125,0.162611186504364,-0.052019715309143066,0.3455788195133209
1772025736596752000,8.122751953125,0.1364433616399765,-0.09396625310182571,0.28355878591537476
1772025736606749200,8.132749267578125,0.09340748935937881,-0.13828682899475098,0.1849174201488495
1772025736616747300,8.142747314453125,0.0284869447350502,-0.17877496778964996,0.0640597715973854
1772025736626744000,8.152744140625,-0.06269329786300659,-0.21462564170360565,-0.08644264936447144
1772025736636742100,8.1627421875,-0.16299766302108765,-0.23729214072227478,-0.24904879927635193
1772025736646739000,8.172739013671874,-0.2512047588825226,-0.2327256202697754,-0.39569151401519775
1772025736656736300,8.182736328125,-0.29792124032974243,-0.18146933615207672,-0.4981742203235626
1772025736666734000,8.192734130859375,-0.3052113652229309,-0.07137132436037064,-0.5457888841629028
1772025736676731100,8.202731201171876,-0.27965348958969116,0.06341084837913513,-0.5432671308517456
1772025736686728000,8.21272802734375,-0.23249663412570953,0.18784864246845245,-0.5146746635437012
1772025736696726000,8.22272607421875,-0.15781919658184052,0.2537480294704437,-0.4729865491390228
1772025736706723000,8.23272314453125,-0.06406048685312271,0.260414183139801,-0.4258565902709961
1772025736716721200,8.24272119140625,0.011593294329941273,0.23345856368541718,-0.3878447711467743
1772025736726718000,8.252718017578125,0.06210147589445114,0.17563042044639587,-0.36480310559272766
1772025736736715000,8.262715087890625,0.09266295284032822,0.10561312735080719,-0.33982738852500916
1772025736746712800,8.272712890625,0.1124369278550148,0.0377935990691185,-0.31014007329940796
1772025736756710100,8.282710205078125,0.12498842924833298,-0.02628718689084053,-0.2907904386520386
1772025736766708200,8.292708251953124,0.1241772249341011,-0.09107257425785065,-0.2675226926803589
1772025736776705000,8.302705078125,0.12412834167480469,-0.14284747838974,-0.24061909317970276
1772025736786701800,8.312701904296874,0.11977141350507736,-0.19012178480625153,-0.21873563528060913
1772025736796700000,8.322699951171876,0.112357497215271,-0.23645997047424316,-0.19403283298015594
1772025736806697200,8.332697265625,0.10938967019319534,-0.2773629128932953,-0.16122561693191528
1772025736816695000,8.342695068359374,0.11496569216251373,-0.3108970522880554,-0.1244158074259758
1772025736826692000,8.352692138671875,0.112984299659729,-0.33754435181617737,-0.09338119626045227
1772025736836689000,8.36268896484375,0.10212714970111847,-0.3505256175994873,-0.07330628484487534
1772025736846687000,8.37268701171875,0.08631543070077896,-0.3606956899166107,-0.06174309924244881
1772025736856684000,8.38268408203125,0.06877079606056213,-0.35540398955345154,-0.06280118227005005
1772025736866681000,8.39268115234375,0.06321623921394348,-0.3416093587875366,-0.06474421918392181
1772025736876679000,8.402678955078125,0.055688317865133286,-0.3041563034057617,-0.0713646337389946
1772025736886676000,8.412676025390626,0.04422127828001976,-0.28204938769340515,-0.08016850799322128
1772025736896673800,8.422673828125,0.027424342930316925,-0.2494318187236786,-0.08383301645517349
1772025736906671000,8.432671142578124,0.008623490110039711,-0.2152046114206314,-0.0817837193608284
1772025736916668000,8.44266796875,-0.0005454905331134796,-0.1940927505493164,-0.07174196094274521
1772025736926666000,8.452666015625,-0.0024400632828474045,-0.1743030697107315,-0.047214772552251816
1772025736936663000,8.4626630859375,-0.0005761574720963836,-0.16957472264766693,-0.010391159914433956
1772025736946661000,8.4726611328125,-0.012074088677763939,-0.1721385419368744,0.03234511613845825
1772025736956658200,8.482658203125,-0.019981442019343376,-0.1781218945980072,0.06826922297477722
1772025736966655000,8.492655029296875,-0.024903228506445885,-0.17179927229881287,0.1075628325343132
1772025736976653000,8.502653076171875,-0.022912219166755676,-0.15688574314117432,0.13930372893810272
1772025736986650000,8.512650146484376,-0.020787814632058144,-0.15139324963092804,0.1762404441833496
1772025736996648200,8.522648193359375,-0.02437073551118374,-0.15470026433467865,0.2000691443681717
1772025737006645000,8.53264501953125,-0.013491988182067871,-0.16421599686145782,0.21957919001579285
1772025737016642000,8.54264208984375,0.012015881016850471,-0.1603657305240631,0.23716036975383759
1772025737026640000,8.552639892578124,0.051934801042079926,-0.16004107892513275,0.26699256896972656
1772025737036637200,8.56263720703125,0.09055205434560776,-0.20413653552532196,0.28652432560920715
1772025737046634000,8.572634033203125,0.07674116641283035,-0.25311794877052307,0.2784043550491333
1772025737056632000,8.582632080078126,0.04357457160949707,-0.2662534713745117,0.2607998549938202
1772025737066628900,8.59262890625,0.021998176351189613,-0.26098254323005676,0.2422453612089157
1772025737076627000,8.602626953125,0.015230759978294373,-0.2601889371871948,0.2302151918411255
1772025737086624300,8.612624267578125,0.013898114673793316,-0.25263968110084534,0.21250197291374207
1772025737096621000,8.62262109375,0.014260740950703621,-0.23692020773887634,0.195248082280159
1772025737106619100,8.632619140625,0.023555172607302666,-0.21276159584522247,0.17761103808879852
1772025737116616000,8.642615966796875,0.05095044896006584,-0.1959732323884964,0.15777282416820526
1772025737126614000,8.652614013671876,0.08426472544670105,-0.19099284708499908,0.1345609724521637
1772025737136611000,8.662611083984375,0.1083146408200264,-0.1986355185508728,0.09559959173202515
1772025737146608000,8.672608154296874,0.10714311897754669,-0.21050868928432465,0.0476917140185833
1772025737156606000,8.68260595703125,0.09290832281112671,-0.20102636516094208,0.01711881533265114
1772025737166603000,8.69260302734375,0.08143462240695953,-0.17903637886047363,-0.002200022106990218
1772025737176600000,8.70260009765625,0.06161068379878998,-0.15499936044216156,-0.005863850470632315
1772025737186598100,8.71259814453125,0.03580119460821152,-0.12307950109243393,0.00997503288090229
1772025737196595000,8.722594970703126,0.014107560738921165,-0.06042465567588806,0.038657404482364655
1772025737206593000,8.732593017578125,0.0013952270383015275,0.00847744569182396,0.07919178158044815
1772025737216589800,8.74258984375,0.0018625796074047685,0.06955110281705856,0.11907926946878433
1772025737226587100,8.752587158203125,0.01017723511904478,0.13362649083137512,0.1567550152540207
1772025737236585200,8.762585205078125,0.019241392612457275,0.17838074266910553,0.1921999603509903
1772025737246582000,8.77258203125,0.027352049946784973,0.2103690356016159,0.2194070816040039
1772025737256580000,8.782580078125,0.028760241344571114,0.23692357540130615,0.24248936772346497
1772025737266577000,8.792576904296874,0.017278287559747696,0.2526889741420746,0.25077205896377563
1772025737276574200,8.80257421875,-0.009813686832785606,0.24884586036205292,0.24573686718940735
1772025737286572000,8.812572021484375,-0.05418248102068901,0.2381330281496048,0.2398661971092224
1772025737296569000,8.822569091796876,-0.09691955894231796,0.24380436539649963,0.22194387018680573
1772025737306567000,8.83256689453125,-0.12841756641864777,0.26355811953544617,0.2075074166059494
1772025737316564000,8.84256396484375,-0.14359433948993683,0.28188851475715637,0.1767749935388565
1772025737326561000,8.85256103515625,-0.15094944834709167,0.2883394956588745,0.11887840181589127
1772025737336559000,8.86255908203125,-0.16145268082618713,0.26950496435165405,0.028854908421635628
1772025737346556000,8.872555908203125,-0.18380406498908997,0.22033290565013885,-0.08165881782770157
1772025737356553000,8.882552978515625,-0.205391988158226,0.14648693799972534,-0.19445666670799255
1772025737366551000,8.892551025390626,-0.22196617722511292,0.07532462477684021,-0.2878153920173645
1772025737376548000,8.902548095703125,-0.21737246215343475,0.03314502537250519,-0.3522106111049652
1772025737386546200,8.912546142578124,-0.18260543048381805,0.021446557715535164,-0.3791274428367615
1772025737396543000,8.92254296875,-0.12600086629390717,0.0515495203435421,-0.3765108287334442
1772025737406540000,8.9325400390625,-0.05178177356719971,0.09500991553068161,-0.34849119186401367
1772025737416538000,8.9425380859375,0.02211880125105381,0.13268880546092987,-0.32456719875335693
1772025737426535200,8.95253515625,0.08747729659080505,0.14899934828281403,-0.3034094572067261
1772025737436533000,8.962532958984376,0.1435706466436386,0.1388101577758789,-0.2872186303138733
1772025737446530000,8.972530029296875,0.17161959409713745,0.10845731198787689,-0.2781822383403778
1772025737456527400,8.98252734375,0.17165382206439972,0.06384868174791336,-0.2711571455001831
1772025737466525400,8.992525390625,0.1583838164806366,0.008046136237680912,-0.25352969765663147
1772025737476522200,9.002522216796875,0.12917262315750122,-0.024349743500351906,-0.22183942794799805
1772025737486520300,9.012520263671876,0.08696312457323074,-0.02099522575736046,-0.18879999220371246
1772025737496517000,9.02251708984375,0.040588732808828354,-0.011114283464848995,-0.15341642498970032
1772025737506514400,9.032514404296874,-0.005515643395483494,0.008227456361055374,-0.14020474255084991
1772025737516512300,9.04251220703125,-0.050205472856760025,0.033710408955812454,-0.14519676566123962
1772025737526509300,9.05250927734375,-0.09361845999956131,0.06898078322410583,-0.1665438711643219
1772025737536506000,9.062506103515625,-0.12349686026573181,0.09407715499401093,-0.20281299948692322
1772025737546504200,9.072504150390625,-0.14206841588020325,0.11685703694820404,-0.24217532575130463
1772025737556501200,9.082501220703126,-0.13741789758205414,0.12161050736904144,-0.27999281883239746
1772025737566499300,9.092499267578125,-0.11975181847810745,0.11964163184165955,-0.3058377206325531
1772025737576496000,9.10249609375,-0.0930827409029007,0.12112745642662048,-0.3219452500343323
1772025737586493200,9.1124931640625,-0.05434307083487511,0.13568030297756195,-0.32998424768447876
1772025737596491000,9.122490966796875,-0.003409478347748518,0.14664267003536224,-0.3194344937801361
1772025737606488300,9.13248828125,0.05882992967963219,0.14162181317806244,-0.28725552558898926
1772025737616486400,9.142486328125,0.12204147130250931,0.12349256128072739,-0.23399557173252106
1772025737626483200,9.152483154296876,0.17665305733680725,0.09190507233142853,-0.16203296184539795
1772025737636480000,9.16247998046875,0.21271532773971558,0.060956861823797226,-0.08542772382497787
1772025737646478000,9.17247802734375,0.22489529848098755,0.04540932923555374,-0.014082435518503189
1772025737656475400,9.182475341796875,0.22913768887519836,0.034109607338905334,0.053531091660261154
1772025737666472200,9.19247216796875,0.21841581165790558,0.027070339769124985,0.10980980843305588
1772025737676470300,9.20247021484375,0.1980777531862259,0.01622919924557209,0.15362462401390076
1772025737686467000,9.212467041015625,0.16743355989456177,0.008288717828691006,0.1969025880098343
1772025737696465200,9.222465087890624,0.1376217156648636,0.015969423577189445,0.23003104329109192
1772025737706462200,9.232462158203125,0.1174091175198555,0.0343947671353817,0.25360292196273804
1772025737716459300,9.242459228515624,0.10855010151863098,0.06158708781003952,0.2741940915584564
1772025737726457000,9.25245703125,0.10910803824663162,0.10385198891162872,0.28411784768104553
1772025737736454100,9.2624541015625,0.10564299672842026,0.1303914487361908,0.27598029375076294
1772025737746452000,9.272451904296876,0.08222661912441254,0.11294189095497131,0.24325668811798096
1772025737756449300,9.28244921875,0.032550323754549026,0.09526253491640091,0.18811547756195068
1772025737766446000,9.292446044921874,-0.02062554657459259,0.1175697073340416,0.13335342705249786
1772025737776444200,9.302444091796875,-0.05802050977945328,0.17209400236606598,0.10738607496023178
1772025737786441000,9.31244091796875,-0.08800025284290314,0.22140483558177948,0.09197036176919937
1772025737796438300,9.322438232421876,-0.10648517310619354,0.23657450079917908,0.08793074637651443
1772025737806435000,9.33243505859375,-0.11649679392576218,0.2387724071741104,0.09548134356737137
1772025737816433200,9.34243310546875,-0.10914316028356552,0.2426581233739853,0.11190193146467209
1772025737826430200,9.35243017578125,-0.09318789839744568,0.21414366364479065,0.13129214942455292
1772025737836427300,9.36242724609375,-0.08568152785301208,0.16668927669525146,0.13267485797405243
1772025737846425300,9.37242529296875,-0.09006348997354507,0.10931679606437683,0.1198543980717659
1772025737856422100,9.382422119140625,-0.09581933915615082,0.042816322296857834,0.08700303733348846
1772025737866420200,9.392420166015626,-0.10021728277206421,-0.005271845497190952,0.03857478126883507
1772025737876417300,9.402417236328125,-0.09335744380950928,-0.019361669197678566,-0.015237577259540558
1772025737886414300,9.412414306640626,-0.08324223011732101,-0.007230437360703945,-0.07446760684251785
1772025737896412200,9.422412109375,-0.07556965947151184,0.013213052414357662,-0.13712087273597717
1772025737906409200,9.4324091796875,-0.060248229652643204,0.02683059312403202,-0.19335031509399414
1772025737916407000,9.442406982421875,-0.04057672992348671,0.03618375584483147,-0.22272028028964996
1772025737926404400,9.452404296875,0.0026205393951386213,0.040501538664102554,-0.22285476326942444
1772025737936401200,9.462401123046876,0.05697077512741089,0.03513718023896217,-0.19897732138633728
1772025737946399200,9.472399169921875,0.10487145930528641,0.009260307997465134,-0.15800698101520538
1772025737956396000,9.48239599609375,0.1368810385465622,-0.03178996592760086,-0.11176358908414841
1772025737966393300,9.492393310546875,0.155520498752594,-0.056962162256240845,-0.03790267929434776
1772025737976391400,9.502391357421875,0.1762833446264267,-0.06320985406637192,0.061858538538217545
1772025737986388200,9.51238818359375,0.20588703453540802,-0.04722955822944641,0.1806776076555252
1772025737996386300,9.52238623046875,0.24671109020709991,-0.026361992582678795,0.3035057783126831
1772025738006383000,9.532383056640626,0.2933174669742584,0.0056513347662985325,0.40692138671875
1772025738016380400,9.54238037109375,0.33374473452568054,0.023102808743715286,0.4768744111061096
1772025738026378200,9.552378173828124,0.36429065465927124,0.01108742505311966,0.5095450282096863
1772025738036375300,9.562375244140625,0.3849220275878906,-0.025890029966831207,0.5038959980010986
1772025738046373000,9.572373046875,0.3974231779575348,-0.0678662434220314,0.47639113664627075
1772025738056370200,9.5823701171875,0.39993977546691895,-0.09222513437271118,0.44245633482933044
1772025738066367200,9.5923671875,0.38955050706863403,-0.10298057645559311,0.39100274443626404
1772025738076365300,9.602365234375,0.36228397488594055,-0.11894186586141586,0.330425888299942
1772025738086362000,9.612362060546875,0.3006770610809326,-0.11767580360174179,0.26196402311325073
1772025738096359200,9.622359130859374,0.21640411019325256,-0.10593167692422867,0.18218667805194855
1772025738106357000,9.63235693359375,0.11530411243438721,-0.10852613300085068,0.08347421884536743
1772025738116354300,9.642354248046875,0.007007863372564316,-0.1204606369137764,-0.03193167224526405
1772025738126352400,9.652352294921876,-0.09401435405015945,-0.14465704560279846,-0.15711702406406403
1772025738136349200,9.66234912109375,-0.16860148310661316,-0.15539057552814484,-0.27403032779693604
1772025738146346000,9.672345947265624,-0.20003530383110046,-0.1391032189130783,-0.3575233519077301
1772025738156344000,9.682343994140625,-0.21233949065208435,-0.10410425066947937,-0.4087617099285126
1772025738166341400,9.69234130859375,-0.1969490796327591,-0.04886709898710251,-0.41762790083885193
1772025738176339200,9.702339111328126,-0.14414359629154205,0.03594022989273071,-0.3885780870914459
1772025738186336300,9.712336181640625,-0.052093300968408585,0.15132968127727509,-0.34278449416160583
1772025738196333000,9.7223330078125,0.0619434230029583,0.25861698389053345,-0.3006129860877991
1772025738206331100,9.7323310546875,0.18627922236919403,0.3342949450016022,-0.2726932168006897
1772025738216328200,9.742328125,0.29578036069869995,0.3717169463634491,-0.27552029490470886
1772025738226325200,9.7523251953125,0.3748283088207245,0.37826672196388245,-0.29929086565971375
1772025738236323000,9.762322998046875,0.42680007219314575,0.37796831130981445,-0.334109365940094
1772025738246320000,9.772320068359376,0.4610259532928467,0.3635544776916504,-0.36666545271873474
1772025738256318200,9.782318115234375,0.4797549247741699,0.31819626688957214,-0.3897930085659027
1772025738266315300,9.792315185546874,0.47794902324676514,0.24141602218151093,-0.3801206648349762
1772025738276312000,9.80231201171875,0.4525274336338043,0.1637898087501526,-0.33257198333740234
1772025738286310100,9.81231005859375,0.4169555902481079,0.10021190345287323,-0.2719411253929138
1772025738296307200,9.82230712890625,0.3859579265117645,0.024915138259530067,-0.20151856541633606
1772025738306305300,9.83230517578125,0.3661402761936188,-0.06288208812475204,-0.12813249230384827
1772025738316302300,9.84230224609375,0.34661683440208435,-0.13225577771663666,-0.06043868139386177
1772025738326299100,9.852299072265625,0.31620004773139954,-0.16307546198368073,0.0024366872385144234
1772025738336297200,9.862297119140624,0.28538984060287476,-0.16343864798545837,0.04871170595288277
1772025738346294300,9.872294189453125,0.2538928985595703,-0.15564757585525513,0.08549688756465912
1772025738356292400,9.882292236328125,0.21466094255447388,-0.1523027867078781,0.10760211944580078
1772025738366289200,9.8922890625,0.1675751954317093,-0.15306471288204193,0.12335791438817978
1772025738376286200,9.9022861328125,0.13314436376094818,-0.1507026106119156,0.13023559749126434
1772025738386284000,9.912283935546874,0.1135416328907013,-0.1549181342124939,0.12801317870616913
1772025738396282000,9.9222822265625,0.1097339317202568,-0.16818977892398834,0.12051311880350113
1772025738406280200,9.9322802734375,0.10523691773414612,-0.18828172981739044,0.10837709158658981
1772025738416277200,9.94227734375,0.09900187700986862,-0.2089053839445114,0.09893733263015747
1772025738426275300,9.952275390625,0.09843622148036957,-0.22002488374710083,0.10103084146976471
1772025738436272000,9.962272216796874,0.1047079861164093,-0.2325838953256607,0.12334666401147842
1772025738446269200,9.972269287109375,0.11092620342969894,-0.23224034905433655,0.15356102585792542
1772025738456268000,9.98226806640625,0.12458116561174393,-0.21459108591079712,0.18801681697368622
1772025738466265000,9.99226513671875,0.14248798787593842,-0.20136529207229614,0.22630082070827484
1772025738476263200,10.00226318359375,0.1713324934244156,-0.19634561240673065,0.269514799118042
1772025738486260000,10.012260009765624,0.20376873016357422,-0.17366187274456024,0.32014521956443787
1772025738496257000,10.022257080078125,0.24141825735569,-0.14996133744716644,0.372787207365036
1772025738506255000,10.032255126953125,0.2706155478954315,-0.17382511496543884,0.3939976692199707
1772025738516252200,10.042252197265626,0.26431822776794434,-0.23000895977020264,0.3737260699272156
1772025738526249000,10.0522490234375,0.23732654750347137,-0.2694770097732544,0.328522652387619
1772025738536247000,10.0622470703125,0.20816124975681305,-0.2838001549243927,0.28335118293762207
1772025738546244000,10.072244140625,0.20367330312728882,-0.2772948741912842,0.2602386772632599
1772025738556242000,10.082241943359374,0.22306157648563385,-0.23986296355724335,0.25367265939712524
1772025738566239200,10.0922392578125,0.2598148286342621,-0.20172090828418732,0.2656707167625427
1772025738576236000,10.102236083984375,0.28247836232185364,-0.18245041370391846,0.2725680470466614
1772025738586234000,10.112234130859376,0.2882789969444275,-0.1892199069261551,0.27230358123779297
1772025738596231000,10.12223095703125,0.2858043313026428,-0.21911945939064026,0.2575037181377411
1772025738606229000,10.13222900390625,0.2665233314037323,-0.2849709093570709,0.21763968467712402
1772025738616226000,10.14222607421875,0.21338802576065063,-0.3637329936027527,0.15301066637039185
1772025738626223000,10.15222314453125,0.14767266809940338,-0.42669305205345154,0.0701642632484436
1772025738636221000,10.162220947265626,0.09783267229795456,-0.45893338322639465,0.009604380466043949
1772025738646218000,10.172218017578125,0.06847718358039856,-0.4562603533267975,-0.01509830355644226
1772025738656215000,10.182215087890626,0.051446571946144104,-0.40959596633911133,-0.012447785586118698
1772025738666213000,10.192213134765625,0.05141168460249901,-0.33549830317497253,0.02009790763258934
1772025738676210000,10.2022099609375,0.07311028987169266,-0.25492870807647705,0.08137723803520203
1772025738686208000,10.2122080078125,0.12121284008026123,-0.15340925753116608,0.17968995869159698
1772025738696205000,10.222205078125,0.17940066754817963,-0.038598258048295975,0.28736138343811035
1772025738706202000,10.2322021484375,0.22312258183956146,0.05337081477046013,0.3765639364719391
1772025738716200200,10.2422001953125,0.24896705150604248,0.10886747390031815,0.42971163988113403
1772025738726197000,10.252197021484376,0.2582803964614868,0.12581954896450043,0.4565674960613251
1772025738736195000,10.262195068359375,0.2560634911060333,0.13410156965255737,0.4492858350276947
1772025738746192000,10.27219189453125,0.22338755428791046,0.14836359024047852,0.39935609698295593
1772025738756189200,10.282189208984375,0.15563364326953888,0.1594220995903015,0.32199570536613464
1772025738766187000,10.29218701171875,0.0679948702454567,0.15324543416500092,0.22700153291225433
1772025738776184000,10.30218408203125,-0.01596667803823948,0.15106438100337982,0.12844601273536682
1772025738786180900,10.312180908203125,-0.08239950239658356,0.15785038471221924,0.04265574738383293
1772025738796179000,10.322178955078124,-0.1242862194776535,0.1781313270330429,-0.026845699176192284
1772025738806176000,10.332176025390625,-0.1460604965686798,0.18683692812919617,-0.09316320717334747
1772025738816174000,10.342174072265625,-0.15678834915161133,0.18907009065151215,-0.1585361510515213
1772025738826171000,10.3521708984375,-0.16198843717575073,0.17285038530826569,-0.221451997756958
1772025738836168000,10.36216796875,-0.16450506448745728,0.15684375166893005,-0.2815704047679901
1772025738846166000,10.372166015625,-0.15622103214263916,0.13616909086704254,-0.3482852578163147
1772025738856163000,10.3821630859375,-0.1324712038040161,0.13413554430007935,-0.40576720237731934
1772025738866161200,10.3921611328125,-0.08856527507305145,0.13356296718120575,-0.45238181948661804
1772025738876158000,10.402157958984375,-0.032096944749355316,0.14700005948543549,-0.48077815771102905
1772025738886155000,10.412155029296875,0.013786657713353634,0.19123569130897522,-0.4848461449146271
1772025738896153000,10.422153076171876,0.07011517882347107,0.2410215139389038,-0.4716511368751526
1772025738906150100,10.432150146484375,0.12671402096748352,0.26840972900390625,-0.4386194050312042
1772025738916148000,10.44214794921875,0.1881900429725647,0.28126928210258484,-0.39559727907180786
1772025738926145000,10.45214501953125,0.23279187083244324,0.2760782539844513,-0.34686464071273804
1772025738936142000,10.46214208984375,0.2671028971672058,0.2346508651971817,-0.2968564033508301
1772025738946140200,10.47214013671875,0.282328724861145,0.16627180576324463,-0.24704252183437347
1772025738956137000,10.482136962890625,0.27855637669563293,0.09282232075929642,-0.20027832686901093
1772025738966134000,10.492134033203126,0.2580881118774414,0.03790554776787758,-0.14448776841163635
1772025738976131800,10.5021318359375,0.2286951094865799,0.02079681307077408,-0.09521391242742538
1772025738986129200,10.512129150390624,0.20062938332557678,0.029021186754107475,-0.05095882713794708
1772025738996127200,10.522127197265625,0.17929629981517792,0.05764336138963699,-0.026211202144622803
1772025739006124000,10.5321240234375,0.17083384096622467,0.11342860013246536,-0.024346722289919853
1772025739016121000,10.54212109375,0.18553917109966278,0.17995862662792206,-0.04955853521823883
1772025739026119000,10.552118896484375,0.2147415280342102,0.24240495264530182,-0.08707740902900696
1772025739036116200,10.5621162109375,0.24805112183094025,0.2880391776561737,-0.1334858536720276
1772025739046114000,10.572114013671875,0.2738132178783417,0.3219262957572937,-0.18009890615940094
1772025739056111000,10.582111083984374,0.29989978671073914,0.3487682640552521,-0.2092944085597992
1772025739066108000,10.59210791015625,0.3317527770996094,0.3652564287185669,-0.22607125341892242
1772025739076106000,10.60210595703125,0.3637273609638214,0.3561868667602539,-0.21996894478797913
1772025739086103000,10.61210302734375,0.38718369603157043,0.3356248736381531,-0.19021105766296387
1772025739096101000,10.62210107421875,0.3914392590522766,0.3317187428474426,-0.13062423467636108
1772025739106098000,10.632097900390624,0.39035800099372864,0.3409612476825714,-0.06352615356445312
1772025739116095000,10.642094970703125,0.3995317816734314,0.34406471252441406,-0.002157128881663084
1772025739126093000,10.652093017578125,0.4151591956615448,0.34343141317367554,0.05684360861778259
1772025739136090000,10.662090087890626,0.42669251561164856,0.3267408609390259,0.10494095832109451
1772025739146087000,10.6720869140625,0.42180773615837097,0.29244494438171387,0.12914936244487762
1772025739156085000,10.6820849609375,0.4123556315898895,0.25751861929893494,0.16145457327365875
1772025739166082000,10.69208203125,0.3686757981777191,0.20540082454681396,0.21736736595630646
1772025739176080000,10.702079833984374,0.31627506017684937,0.1363755762577057,0.24529321491718292
1772025739186077200,10.7120771484375,0.2863808274269104,0.08851084858179092,0.24481144547462463
1772025739196074000,10.722073974609375,0.26886671781539917,0.08465626835823059,0.2199983149766922
1772025739206072000,10.732072021484376,0.2606394290924072,0.12747244536876678,0.17885832488536835
1772025739216068900,10.74206884765625,0.2618442475795746,0.21974295377731323,0.13142849504947662
1772025739226067000,10.75206689453125,0.2797390818595886,0.3156755864620209,0.08380824327468872
1772025739236064000,10.76206396484375,0.30901023745536804,0.3663179576396942,0.041968852281570435
1772025739246061000,10.77206103515625,0.3417585790157318,0.3530343770980835,0.0077805230394005775
1772025739256059000,10.782058837890625,0.34020838141441345,0.3025347590446472,-0.015284049324691296
