time,seconds_elapsed,z,y,x
1772459230837259800,0.078259765625,1.0675570964813232,0.06484684348106384,0.17398035526275635
1772459230847256600,0.088256591796875,1.1082165241241455,0.04168251156806946,0.21749791502952576
1772459230857254700,0.098254638671875,1.1458913087844849,0.004345527850091457,0.2427673190832138
1772459230867251700,0.108251708984375,1.1716333627700806,-0.04267701506614685,0.2594177722930908
1772459230877248800,0.118248779296875,1.1818382740020752,-0.09122671186923981,0.2565399706363678
1772459230887245600,0.12824560546875,1.1838756799697876,-0.14062747359275818,0.2509353756904602
1772459230897243000,0.138242919921875,1.1745452880859375,-0.1906813234090805,0.23531141877174377
1772459230907240700,0.14824072265625,1.1547117233276367,-0.2183341681957245,0.21742218732833862
1772459230917237800,0.15823779296875,1.132205605506897,-0.22641579806804657,0.19668787717819214
1772459230927234600,0.168234619140625,1.1113009452819824,-0.21693897247314453,0.1776704639196396
1772459230937232000,0.17823193359375,1.094292402267456,-0.173679918050766,0.16534508764743805
1772459230947228700,0.188228759765625,1.0869107246398926,-0.1020500659942627,0.16878928244113922
1772459230957226800,0.198226806640625,1.0769134759902954,-0.02120102196931839,0.1754077672958374
1772459230967223600,0.2082236328125,1.0610525608062744,0.03639977425336838,0.18756990134716034
1772459230977220900,0.218220947265625,1.0398995876312256,0.06800857186317444,0.19902096688747406
1772459230987217700,0.2282177734375,1.0164978504180908,0.08534379303455353,0.21542975306510925
1772459230997214700,0.238214599609375,0.9867075085639954,0.11881839483976364,0.23813027143478394
1772459231007211800,0.248211669921875,0.9485594630241394,0.16516701877117157,0.2541946768760681
1772459231017209900,0.2582099609375,0.9063893556594849,0.2031133472919464,0.2459370195865631
1772459231027206700,0.26820654296875,0.8593095541000366,0.23088422417640686,0.21819807589054108
1772459231037203700,0.27820361328125,0.8201690316200256,0.276930570602417,0.18755441904067993
1772459231047200800,0.28820068359375,0.7892855405807495,0.3359840512275696,0.15787789225578308
1772459231057197600,0.298197509765625,0.7641085386276245,0.4068036377429962,0.11911825835704803
1772459231067195600,0.308195556640625,0.7602389454841614,0.4410977363586426,0.07339344918727875
1772459231077192700,0.318192626953125,0.7566567063331604,0.4391144812107086,0.01051701046526432
1772459231087189800,0.328189697265625,0.7610179781913757,0.4045052230358124,-0.05969564616680145
1772459231097186600,0.3381865234375,0.7670066356658936,0.3721608817577362,-0.1342281997203827
1772459231107183600,0.34818359375,0.7872883677482605,0.33409467339515686,-0.20363280177116394
1772459231117181700,0.358181640625,0.8105374574661255,0.304679274559021,-0.2726067900657654
1772459231127178800,0.3681787109375,0.8349775075912476,0.2819983661174774,-0.3232363164424896
1772459231137175600,0.378175537109375,0.8560385704040527,0.26805564761161804,-0.35977301001548767
1772459231147172600,0.388172607421875,0.8793522119522095,0.2520390450954437,-0.37610459327697754
1772459231157169700,0.398169677734375,0.8984076380729675,0.2290184050798416,-0.37686678767204285
1772459231167167700,0.408167724609375,0.9128699898719788,0.20740818977355957,-0.3651052713394165
1772459231177164800,0.418164794921875,0.9358203411102295,0.1967984288930893,-0.3322514593601227
1772459231187161600,0.42816162109375,0.9647166132926941,0.19348473846912384,-0.28820011019706726
1772459231197158700,0.43815869140625,0.9949032664299011,0.18559779226779938,-0.24121394753456116
1772459231207155700,0.44815576171875,1.02275812625885,0.1691037267446518,-0.19729802012443542
1772459231217153800,0.45815380859375,1.0366653203964233,0.14129845798015594,-0.16525273025035858
1772459231227150600,0.468150634765625,1.0412439107894897,0.10305771976709366,-0.14694492518901825
1772459231237147600,0.478147705078125,1.046809434890747,0.09909653663635254,-0.132987841963768
1772459231247144700,0.488144775390625,1.0526024103164673,0.11607372015714645,-0.104331374168396
1772459231257141500,0.4981416015625,1.0529552698135376,0.13605408370494843,-0.06904155761003494
1772459231267139600,0.5081396484375,1.0547581911087036,0.15298879146575928,-0.03899715468287468
1772459231277136600,0.51813671875,1.046377420425415,0.15686768293380737,-0.0345962792634964
1772459231287133700,0.5281337890625,1.0352953672409058,0.1454673856496811,-0.0518595427274704
1772459231297130500,0.538130615234375,1.0187160968780518,0.12778373062610626,-0.0842750072479248
1772459231307127800,0.5481279296875,0.9978887438774109,0.11917242407798767,-0.1256742924451828
1772459231317124600,0.55812451171875,0.9760191440582275,0.11392306536436081,-0.1779758483171463
1772459231327122700,0.568122802734375,0.9583187699317932,0.1138404831290245,-0.22478266060352325
1772459231337119500,0.578119384765625,0.9523692727088928,0.13041678071022034,-0.2665191888809204
1772459231347116800,0.58811669921875,0.9593998789787292,0.14974623918533325,-0.2996523380279541
1772459231357113600,0.598113525390625,0.9732791781425476,0.15437854826450348,-0.33577919006347656
1772459231367110700,0.608110595703125,0.9764577150344849,0.143731489777565,-0.3675239682197571
1772459231377108500,0.6181083984375,0.9742262363433838,0.12465127557516098,-0.39559635519981384
1772459231387105800,0.628105712890625,0.9683257937431335,0.11656243354082108,-0.41243496537208557
1772459231397102600,0.6381025390625,0.9636673927307129,0.11045580357313156,-0.41114068031311035
1772459231407099600,0.648099609375,0.9619680643081665,0.11629875749349594,-0.38826483488082886
1772459231417096700,0.6580966796875,0.9672736525535583,0.1338369995355606,-0.3455360233783722
1772459231427094800,0.6680947265625,0.9725650548934937,0.15807202458381653,-0.29504966735839844
1772459231437091600,0.678091552734375,0.9756916165351868,0.17443928122520447,-0.25423991680145264
1772459231447088600,0.688088623046875,0.9801384210586548,0.1789194792509079,-0.22017502784729004
1772459231457085700,0.698085693359375,0.9872445464134216,0.1702287793159485,-0.19299322366714478
1772459231467082800,0.708082763671875,0.9862168431282043,0.15231165289878845,-0.1668563187122345
1772459231477080600,0.71808056640625,0.9697118997573853,0.12216519564390182,-0.15546543896198273
1772459231487077600,0.72807763671875,0.933516263961792,0.08433212339878082,-0.16086333990097046
1772459231497074700,0.73807470703125,0.8789533972740173,0.06999286264181137,-0.1599770337343216
1772459231507071700,0.74807177734375,0.828864336013794,0.07497654855251312,-0.16702276468276978
1772459231517068500,0.758068603515625,0.788967490196228,0.07358025759458542,-0.18929292261600494
1772459231527067100,0.768067138671875,0.7573049068450928,0.06414226442575455,-0.21956045925617218
1772459231537064200,0.778064208984375,0.7318648099899292,0.06126711517572403,-0.26035821437835693
1772459231547061200,0.788061279296875,0.7273502945899963,0.08616864681243896,-0.2853061258792877
1772459231557058000,0.79805810546875,0.7467063665390015,0.14828580617904663,-0.2885485291481018
1772459231567055000,0.80805517578125,0.7914167046546936,0.23345136642456055,-0.277286559343338
1772459231577053200,0.81805322265625,0.8597004413604736,0.3025830090045929,-0.27387183904647827
1772459231587050200,0.82805029296875,0.9374209642410278,0.3557218015193939,-0.2821093201637268
1772459231597047000,0.838047119140625,1.0042264461517334,0.37149330973625183,-0.3085699677467346
1772459231607044000,0.848044189453125,1.0446466207504272,0.3485627770423889,-0.35956650972366333
1772459231617041200,0.858041259765625,1.0790599584579468,0.3076954782009125,-0.40217816829681396
1772459231627038200,0.8680380859375,1.1078033447265625,0.27904799580574036,-0.415374755859375
1772459231637036000,0.8780361328125,1.1231902837753296,0.293387770652771,-0.3784433603286743
1772459231647033000,0.888033203125,1.1457672119140625,0.3570948541164398,-0.2913040220737457
1772459231657030100,0.898030029296875,1.1593431234359741,0.4516109824180603,-0.16514448821544647
1772459231667027200,0.908027099609375,1.1723668575286865,0.5405542254447937,-0.014778127893805504
1772459231677024000,0.91802392578125,1.1916431188583374,0.5981083512306213,0.12991540133953094
1772459231687022300,0.928022216796875,1.1964399814605713,0.6156061291694641,0.24606749415397644
1772459231697019100,0.93801904296875,1.188103199005127,0.6047281622886658,0.3251820206642151
1772459231707016200,0.94801611328125,1.1638376712799072,0.5645710825920105,0.37608155608177185
1772459231717013200,0.95801318359375,1.1424837112426758,0.5100793838500977,0.4148779511451721
1772459231727010300,0.96801025390625,1.1188255548477173,0.4486367404460907,0.44823378324508667
1772459231737008000,0.978008056640625,1.1035337448120117,0.39552319049835205,0.4776414930820465
1772459231747005200,0.988005126953125,1.089112401008606,0.38174453377723694,0.5054931044578552
1772459231757002200,0.998002197265625,1.0888357162475586,0.3808039128780365,0.5336354970932007
1772459231766999300,1.007999267578125,1.1011968851089478,0.3893420994281769,0.5464940071105957
1772459231776996000,1.01799609375,1.122243881225586,0.41648343205451965,0.5596404075622559
1772459231786994200,1.027994140625,1.1520016193389893,0.4597663879394531,0.5709748864173889
1772459231796991200,1.0379912109375,1.1874794960021973,0.5156365633010864,0.5790693163871765
1772459231806988300,1.04798828125,1.2264132499694824,0.5669485330581665,0.5783171653747559
1772459231816985000,1.057985107421875,1.2745485305786133,0.6096866726875305,0.576068639755249
1772459231826982100,1.067982177734375,1.3165096044540405,0.6240119338035583,0.5523009300231934
1772459231836980200,1.077980224609375,1.3440898656845093,0.6032277941703796,0.5009344220161438
1772459231846977300,1.087977294921875,1.345206379890442,0.5349929332733154,0.4107358157634735
1772459231856974000,1.09797412109375,1.3263394832611084,0.43491584062576294,0.2965799570083618
1772459231866971100,1.10797119140625,1.2982873916625977,0.34258413314819336,0.1728823482990265
1772459231876968200,1.11796826171875,1.267848014831543,0.26560279726982117,0.0608772411942482
1772459231886965200,1.12796533203125,1.2419413328170776,0.21304744482040405,-0.03145844489336014
1772459231896963000,1.137963134765625,1.2007148265838623,0.15915146470069885,-0.11432962119579315
1772459231906960100,1.147960205078125,1.13453209400177,0.11168643087148666,-0.20069892704486847
1772459231916957200,1.157957275390625,1.0492396354675293,0.04223598167300224,-0.30003803968429565
1772459231926954200,1.167954345703125,0.945571780204773,-0.05486553534865379,-0.4166029095649719
1772459231936951000,1.177950927734375,0.8443623185157776,-0.15631039440631866,-0.5407932996749878
1772459231946949000,1.18794921875,0.7426536679267883,-0.2660549581050873,-0.6548562049865723
1772459231956946200,1.1979462890625,0.6443508267402649,-0.3740306794643402,-0.749774694442749
1772459231966943200,1.207943115234375,0.552627444267273,-0.46092408895492554,-0.8200186491012573
1772459231976940000,1.21793994140625,0.48004966974258423,-0.5138405561447144,-0.8553633093833923
1772459231986937300,1.227937255859375,0.43997707962989807,-0.5192670226097107,-0.8489187359809875
1772459231996935200,1.23793505859375,0.42949196696281433,-0.46345943212509155,-0.8148803114891052
1772459232006932200,1.24793212890625,0.4446422755718231,-0.3620332181453705,-0.7758393287658691
1772459232016929000,1.257928955078125,0.5106324553489685,-0.22366657853126526,-0.7132995128631592
1772459232026926300,1.26792626953125,0.6176639795303345,-0.03993727266788483,-0.6376616358757019
1772459232036923100,1.277923095703125,0.7603532075881958,0.15472115576267242,-0.5517512559890747
1772459232046921200,1.287921142578125,0.9189832806587219,0.33903998136520386,-0.46824097633361816
1772459232056918300,1.297918212890625,1.0685522556304932,0.48996052145957947,-0.40483003854751587
1772459232066915300,1.307915283203125,1.174164056777954,0.5755627155303955,-0.375663161277771
1772459232076912000,1.317912109375,1.2236096858978271,0.6098389029502869,-0.3877677619457245
1772459232086909200,1.3279091796875,1.2571176290512085,0.6128047108650208,-0.4241364896297455
1772459232096906200,1.33790625,1.2688120603561401,0.5975570678710938,-0.4805150628089905
1772459232106904300,1.347904296875,1.2706751823425293,0.5705448985099792,-0.5532472133636475
1772459232116901000,1.357901123046875,1.249836802482605,0.5252091288566589,-0.6330165863037109
1772459232126898200,1.367898193359375,1.2087188959121704,0.4629058539867401,-0.7024194598197937
1772459232136895200,1.377895263671875,1.14507257938385,0.3779488801956177,-0.755374014377594
1772459232146892000,1.38789208984375,1.0677803754806519,0.2801821827888489,-0.7818179130554199
1772459232156890000,1.39789013671875,0.9860011339187622,0.18073949217796326,-0.7557554244995117
1772459232166887200,1.40788720703125,0.9133669137954712,0.09123055636882782,-0.6757148504257202
1772459232176884200,1.41788427734375,0.8504042029380798,-0.002661848906427622,-0.5638863444328308
1772459232186881000,1.427881103515625,0.8007138967514038,-0.09825178980827332,-0.43518680334091187
1772459232196878000,1.437878173828125,0.7699208855628967,-0.19135083258152008,-0.31300097703933716
1772459232206876200,1.447876220703125,0.7566707134246826,-0.28192687034606934,-0.1987115442752838
1772459232216873200,1.457873291015625,0.7642878890037537,-0.3507844805717468,-0.09922569245100021
1772459232226870000,1.4678701171875,0.7825088500976562,-0.3953990638256073,-0.032276593148708344
1772459232236867000,1.4778671875,0.7950401306152344,-0.43689537048339844,-0.003943753894418478
1772459232246864100,1.487864013671875,0.797694206237793,-0.46635791659355164,0.001333566033281386
1772459232256862200,1.4978623046875,0.798588216304779,-0.47945109009742737,-0.017255298793315887
1772459232266859300,1.507859375,0.8027303218841553,-0.5015723705291748,-0.037743162363767624
1772459232276856000,1.51785595703125,0.809695303440094,-0.5279746651649475,-0.05565478280186653
1772459232286853000,1.52785302734375,0.8203638792037964,-0.5456020832061768,-0.06692436337471008
1772459232296850200,1.53785009765625,0.8309395909309387,-0.5423218607902527,-0.05096084624528885
1772459232306847000,1.547846923828125,0.8475525379180908,-0.5006923079490662,-0.009724647738039494
1772459232316845000,1.557844970703125,0.8899405002593994,-0.43000665307044983,0.07515774667263031
1772459232326842000,1.567842041015625,0.9467016458511353,-0.3706115484237671,0.18232420086860657
1772459232336839200,1.577839111328125,0.9810771942138672,-0.3384448289871216,0.2919313907623291
1772459232346836000,1.5878359375,0.9930123090744019,-0.3185977637767792,0.3727067708969116
1772459232356833300,1.597833251953125,0.9821418523788452,-0.311548113822937,0.4327791631221771
1772459232366831000,1.6078310546875,0.9667763710021973,-0.30037710070610046,0.4606403708457947
1772459232376828200,1.617828125,0.9406779408454895,-0.2795535624027252,0.46373283863067627
1772459232386825000,1.627824951171875,0.8949771523475647,-0.24055951833724976,0.44425639510154724
1772459232396822300,1.637822265625,0.8391482830047607,-0.1908063441514969,0.42204856872558594
1772459232406819000,1.647819091796875,0.7747462391853333,-0.12298597395420074,0.40507984161376953
1772459232416817200,1.657817138671875,0.7007806897163391,-0.05929887294769287,0.3900207281112671
1772459232426814000,1.66781396484375,0.6331610083580017,0.007097948342561722,0.39091140031814575
1772459232436811300,1.677811279296875,0.580460786819458,0.0599217489361763,0.4058040678501129
1772459232446808000,1.68780810546875,0.5461822748184204,0.0950796902179718,0.4414842426776886
1772459232456805000,1.69780517578125,0.5242239832878113,0.12121648341417313,0.4826655089855194
1772459232466803200,1.70780322265625,0.5063828825950623,0.15412501990795135,0.5327830910682678
1772459232476800300,1.71780029296875,0.4902856647968292,0.16607914865016937,0.5793663263320923
1772459232486797000,1.727797119140625,0.4746527671813965,0.17949113249778748,0.6309249997138977
1772459232496794000,1.737794189453125,0.4546005129814148,0.20800186693668365,0.695695161819458
1772459232506791200,1.747791259765625,0.4313218295574188,0.2421453595161438,0.7652783393859863
1772459232516788200,1.757788330078125,0.4188110828399658,0.2734614610671997,0.8307854533195496
1772459232526784800,1.76778466796875,0.4012916088104248,0.29753002524375916,0.8821504712104797
1772459232536781800,1.77778173828125,0.3915918469429016,0.3156515061855316,0.9149585366249084
1772459232546778600,1.787778564453125,0.3755594789981842,0.3355731666088104,0.9254031181335449
1772459232556775700,1.797775634765625,0.3484751284122467,0.3437306880950928,0.9084177613258362
1772459232566772700,1.807772705078125,0.310677707195282,0.3429122865200043,0.8650020360946655
1772459232576770800,1.817770751953125,0.26310670375823975,0.3242453932762146,0.7944375872612
1772459232586767600,1.827767578125,0.20728696882724762,0.29169440269470215,0.7089143991470337
1772459232596764700,1.8377646484375,0.1325911581516266,0.253523051738739,0.6020004749298096
1772459232606761700,1.84776171875,0.048598337918519974,0.220094695687294,0.4813043177127838
1772459232616758500,1.857758544921875,-0.038767196238040924,0.19058233499526978,0.3620151877403259
1772459232626756600,1.867756591796875,-0.13129520416259766,0.1496434062719345,0.24575649201869965
1772459232636753700,1.877753662109375,-0.224199578166008,0.11867909878492355,0.13238999247550964
1772459232646750700,1.887750732421875,-0.30499082803726196,0.08785424381494522,0.035272032022476196
1772459232656747500,1.89774755859375,-0.3726247251033783,0.052136994898319244,-0.05489115044474602
1772459232666744800,1.907744873046875,-0.4224412143230438,0.012471849098801613,-0.13926398754119873
1772459232676743000,1.917742919921875,-0.44731542468070984,-0.03467196226119995,-0.22691234946250916
1772459232686739700,1.92773974609375,-0.4568288326263428,-0.0851222351193428,-0.3290577828884125
1772459232696736500,1.937736572265625,-0.4443444609642029,-0.13059304654598236,-0.4174180030822754
1772459232706733800,1.94773388671875,-0.4125089645385742,-0.15194958448410034,-0.49350443482398987
1772459232716730600,1.957730712890625,-0.365042120218277,-0.15085981786251068,-0.5556027293205261
1772459232726727700,1.967727783203125,-0.30690881609916687,-0.1389845758676529,-0.6084460020065308
1772459232736725500,1.9777255859375,-0.2391686588525772,-0.10669082403182983,-0.6501665711402893
1772459232746722800,1.987722900390625,-0.1787681132555008,-0.05654032528400421,-0.6753405928611755
1772459232756719600,1.9977197265625,-0.11707545816898346,-0.001522348029538989,-0.6802621483802795
1772459232766716700,2.007716552734375,-0.06444979459047318,0.029723454266786575,-0.6673689484596252
1772459232776713700,2.017713623046875,-0.03569597750902176,0.03674055263400078,-0.643393874168396
1772459232786711800,2.0277119140625,-0.024448513984680176,0.02481948770582676,-0.605489194393158
1772459232796708600,2.03770849609375,-0.03157779574394226,-0.00733551848679781,-0.5525063872337341
1772459232806705700,2.04770556640625,-0.04503866657614708,-0.042475778609514236,-0.49336785078048706
1772459232816702700,2.05770263671875,-0.0678262710571289,-0.08084846287965775,-0.4302631616592407
1772459232826699800,2.06769970703125,-0.09205467253923416,-0.12953290343284607,-0.37919995188713074
1772459232836697600,2.077697509765625,-0.1231103241443634,-0.17674648761749268,-0.33633849024772644
1772459232846694700,2.087694580078125,-0.14738111197948456,-0.2073361575603485,-0.30721500515937805
1772459232856691700,2.097691650390625,-0.15605396032333374,-0.2108730971813202,-0.2709832191467285
1772459232866688800,2.107688720703125,-0.1569923758506775,-0.202913299202919,-0.24216842651367188
1772459232876685600,2.117685546875,-0.15318351984024048,-0.19675900042057037,-0.228185772895813
1772459232886682600,2.1276826171875,-0.14149315655231476,-0.18980872631072998,-0.21713905036449432
1772459232896680700,2.1376806640625,-0.13117952644824982,-0.17150747776031494,-0.2081356942653656
1772459232906677800,2.147677734375,-0.12578897178173065,-0.1466069519519806,-0.1973690390586853
1772459232916674600,2.157674560546875,-0.1190575659275055,-0.12213835120201111,-0.1696426272392273
1772459232926671600,2.167671630859375,-0.10860879719257355,-0.09567128121852875,-0.1163543090224266
1772459232936668700,2.177668701171875,-0.09507221728563309,-0.07226476073265076,-0.05314790830016136
1772459232946666800,2.187666748046875,-0.0832616314291954,-0.04781268164515495,0.019017096608877182
1772459232956663600,2.19766357421875,-0.07508625835180283,-0.018166106194257736,0.1024044007062912
1772459232966660900,2.207660888671875,-0.07007299363613129,0.006094270385801792,0.18419767916202545
1772459232976657700,2.21765771484375,-0.06430245190858841,0.031041432172060013,0.266557514667511
1772459232986654700,2.22765478515625,-0.05233202874660492,0.061177827417850494,0.34317848086357117
1772459232996652500,2.237652587890625,-0.04401630908250809,0.09208753705024719,0.40824562311172485
1772459233006649900,2.24764990234375,-0.026033621281385422,0.13096891343593597,0.46575427055358887
1772459233016646700,2.257646728515625,0.00657625263556838,0.19877831637859344,0.5147271752357483
1772459233026643700,2.267643798828125,0.05575012043118477,0.29444441199302673,0.5458657741546631
1772459233036640800,2.277640869140625,0.12645304203033447,0.4055972993373871,0.5695487260818481
1772459233046637800,2.287637939453125,0.20960646867752075,0.47463259100914,0.5703971982002258
1772459233056635600,2.2976357421875,0.2716093957424164,0.5119703412055969,0.5339502692222595
1772459233066632700,2.3076328125,0.2899854779243469,0.5159884095191956,0.459261417388916
1772459233076629800,2.317629638671875,0.2771250605583191,0.4897189438343048,0.35025477409362793
1772459233086626800,2.327626708984375,0.2526266276836395,0.45217493176460266,0.2339015156030655
1772459233096623600,2.33762353515625,0.21960823237895966,0.40181484818458557,0.12431961297988892
1772459233106621700,2.34762158203125,0.1730063110589981,0.3410970866680145,0.0115410927683115
1772459233116618800,2.35761865234375,0.10472739487886429,0.26253464818000793,-0.09103774279356003
1772459233126615800,2.36761572265625,0.02033790573477745,0.18984436988830566,-0.17121058702468872
1772459233136612600,2.377612548828125,-0.062072813510894775,0.12913069128990173,-0.2196343094110489
1772459233146609700,2.387609619140625,-0.13495618104934692,0.08700201660394669,-0.2301175594329834
1772459233156607700,2.397607666015625,-0.20112349092960358,0.0688198134303093,-0.22166389226913452
1772459233166604800,2.407604736328125,-0.24682478606700897,0.08227929472923279,-0.19259421527385712
1772459233176601600,2.4176015625,-0.24688898026943207,0.14770758152008057,-0.12259171158075333
1772459233186598700,2.4275986328125,-0.19705024361610413,0.2434951514005661,-0.017727568745613098
1772459233196595700,2.437595703125,-0.10981067270040512,0.35369381308555603,0.10531073808670044
1772459233206593800,2.44759375,-0.003583842422813177,0.4605584740638733,0.2356005758047104
1772459233216590600,2.457590576171875,0.10104057192802429,0.5537779331207275,0.34844163060188293
1772459233226587600,2.467587646484375,0.2012341022491455,0.6276764273643494,0.43764063715934753
1772459233236584700,2.477584716796875,0.2924233675003052,0.7102754712104797,0.5027713775634766
1772459233246581800,2.487581787109375,0.38036322593688965,0.7771516442298889,0.5453671216964722
1772459233256578600,2.49757861328125,0.4668610990047455,0.8012610077857971,0.5711129307746887
1772459233266576600,2.50757666015625,0.540851891040802,0.7626790404319763,0.5806398987770081
1772459233276573700,2.51757373046875,0.5981950759887695,0.6776235103607178,0.585045337677002
1772459233286570800,2.52757080078125,0.6303418278694153,0.575395941734314,0.5790364146232605
1772459233296567600,2.537567626953125,0.6469323039054871,0.46294233202934265,0.5514660477638245
1772459233306564600,2.547564697265625,0.657227098941803,0.33122801780700684,0.5125533938407898
1772459233316562700,2.557562744140625,0.6697911024093628,0.18575817346572876,0.46111148595809937
1772459233326559700,2.567559814453125,0.6807664632797241,0.041013170033693314,0.4130212068557739
1772459233336556800,2.577556884765625,0.6676820516586304,-0.08967826515436172,0.37787333130836487
1772459233346553600,2.5875537109375,0.6111754775047302,-0.2156900316476822,0.3484749495983124
1772459233356550700,2.597550537109375,0.513015627861023,-0.34000107645988464,0.3274010717868805
1772459233366547700,2.607547607421875,0.38141438364982605,-0.445453405380249,0.3055182993412018
1772459233376545800,2.6175458984375,0.22721867263317108,-0.542140781879425,0.25670522451400757
1772459233386542600,2.62754248046875,0.07379017025232315,-0.6173328161239624,0.18838629126548767
1772459233396539600,2.63753955078125,-0.05456539988517761,-0.6462798118591309,0.10114061087369919
1772459233406536700,2.64753662109375,-0.1462126225233078,-0.6306225657463074,0.0015203949296846986
1772459233416533800,2.65753369140625,-0.2060099095106125,-0.5795226693153381,-0.08124292641878128
1772459233426531800,2.66753173828125,-0.21451106667518616,-0.4844074547290802,-0.13926449418067932
1772459233436528600,2.677528564453125,-0.18615639209747314,-0.35497143864631653,-0.16717655956745148
1772459233446525700,2.687525634765625,-0.12848642468452454,-0.20970560610294342,-0.16852454841136932
1772459233456522800,2.697522705078125,-0.05062038451433182,-0.053820930421352386,-0.1410394012928009
1772459233466519600,2.70751953125,0.03669879958033562,0.09522198885679245,-0.0963079035282135
1772459233476517600,2.717517578125,0.11144601553678513,0.2191964089870453,-0.05751124396920204
1772459233486514700,2.7275146484375,0.15447810292243958,0.31607112288475037,-0.035759590566158295
1772459233496511700,2.73751171875,0.19066034257411957,0.395782470703125,-0.028366925194859505
1772459233506508500,2.747508544921875,0.22944507002830505,0.45275944471359253,-0.04043938219547272
1772459233516505600,2.757505615234375,0.2580546438694,0.472785085439682,-0.07898863404989243
1772459233526504700,2.767504638671875,0.26722773909568787,0.45140543580055237,-0.1462802141904831
1772459233536501800,2.777501708984375,0.2606007158756256,0.39028164744377136,-0.22348259389400482
1772459233546498800,2.787498779296875,0.23371028900146484,0.31278833746910095,-0.2997942268848419
1772459233556495600,2.79749560546875,0.19047200679779053,0.21152111887931824,-0.37203752994537354
1772459233566492700,2.80749267578125,0.13238686323165894,0.1015458032488823,-0.43076398968696594
1772459233576489700,2.81748974609375,0.05186910554766655,-0.013106214813888073,-0.47221770882606506
1772459233586487800,2.82748779296875,-0.037432555109262466,-0.10450829565525055,-0.4890822470188141
1772459233596484600,2.837484619140625,-0.1186738833785057,-0.17368577420711517,-0.48479723930358887
1772459233606481700,2.847481689453125,-0.19030067324638367,-0.23940956592559814,-0.46991583704948425
1772459233616478700,2.857478759765625,-0.2524135708808899,-0.2894764542579651,-0.4488063156604767
1772459233626475500,2.8674755859375,-0.29828497767448425,-0.3239365816116333,-0.4161399304866791
1772459233636473600,2.8774736328125,-0.34125909209251404,-0.3564828038215637,-0.3964828848838806
1772459233646471000,2.887470947265625,-0.37771502137184143,-0.39764440059661865,-0.3864860534667969
1772459233656467700,2.8974677734375,-0.4076468348503113,-0.4400184750556946,-0.39210399985313416
1772459233666464500,2.907464599609375,-0.4358536899089813,-0.47225871682167053,-0.397798627614975
1772459233676461800,2.9174619140625,-0.46325576305389404,-0.49457788467407227,-0.41028672456741333
1772459233686458600,2.927458740234375,-0.47626063227653503,-0.49730008840560913,-0.4135495722293854
1772459233696456700,2.937456787109375,-0.47952327132225037,-0.49155059456825256,-0.40567299723625183
1772459233706453500,2.94745361328125,-0.47348371148109436,-0.493915855884552,-0.39528074860572815
1772459233716450800,2.957450927734375,-0.4648779630661011,-0.5002778768539429,-0.3835117220878601
1772459233726447600,2.967447509765625,-0.46779000759124756,-0.5122786164283752,-0.3681424558162689
1772459233736444700,2.977444580078125,-0.4838384687900543,-0.5330920219421387,-0.35390761494636536
1772459233746442500,2.9874423828125,-0.5014115571975708,-0.5604888796806335,-0.33458495140075684
1772459233756439800,2.997439697265625,-0.5106897354125977,-0.5848447680473328,-0.3045351803302765
1772459233766436600,3.0074365234375,-0.5029484629631042,-0.5911784768104553,-0.25865551829338074
1772459233776433700,3.01743359375,-0.4574142396450043,-0.5808355808258057,-0.19318757951259613
1772459233786430700,3.0274306640625,-0.37147626280784607,-0.5933001041412354,-0.11444634199142456
1772459233796428800,3.0374287109375,-0.3017845153808594,-0.6198398470878601,-0.04577673226594925
1772459233806425600,3.047425537109375,-0.279437780380249,-0.6309217810630798,-0.016141992062330246
1772459233816422700,3.057422607421875,-0.26395443081855774,-0.6115714907646179,-0.009252925403416157
1772459233826419700,3.067419677734375,-0.2298257052898407,-0.564418613910675,-0.00938783772289753
1772459233836416800,3.077416748046875,-0.189529150724411,-0.513603925704956,-0.033541109412908554
1772459233846413600,3.08741357421875,-0.17410239577293396,-0.48746901750564575,-0.08411016315221786
1772459233856411600,3.09741162109375,-0.1922512948513031,-0.4561947286128998,-0.15854604542255402
1772459233866408700,3.10740869140625,-0.21631023287773132,-0.41592660546302795,-0.24496905505657196
1772459233876405800,3.11740576171875,-0.2224339097738266,-0.3939744234085083,-0.338228702545166
1772459233886402600,3.127402587890625,-0.22002388536930084,-0.387050986289978,-0.4341907501220703
1772459233896399600,3.137399658203125,-0.21274812519550323,-0.38036859035491943,-0.5312653183937073
1772459233906397700,3.147397705078125,-0.20050422847270966,-0.3598715364933014,-0.6089445948600769
1772459233916394800,3.157394775390625,-0.17437249422073364,-0.31477251648902893,-0.657952070236206
1772459233926391600,3.1673916015625,-0.14131775498390198,-0.24712543189525604,-0.6723015308380127
1772459233936388600,3.177388671875,-0.10258101671934128,-0.1800452023744583,-0.6575965881347656
1772459233946385700,3.1873857421875,-0.051933664828538895,-0.09795889258384705,-0.6078115105628967
1772459233956383700,3.1973837890625,-0.0075257220305502415,-0.043446917086839676,-0.5357053279876709
1772459233966380500,3.207380615234375,0.017774052917957306,-0.0184630099684,-0.45051607489585876
1772459233976377600,3.217377685546875,0.024018365889787674,-0.0018187853274866939,-0.35130932927131653
1772459233986374700,3.227374755859375,0.028586704283952713,0.014898937195539474,-0.22954300045967102
1772459233996371700,3.237371826171875,0.024876920506358147,0.012271462008357048,-0.1031070277094841
1772459234006368500,3.247368408203125,0.01583939790725708,-0.01922551542520523,0.015059469267725945
1772459234016366800,3.257366943359375,-0.00663661677390337,-0.04297611862421036,0.12487944215536118
1772459234026363600,3.26736376953125,-0.043183792382478714,-0.05520959198474884,0.22728629410266876
1772459234036360700,3.277360595703125,-0.09376414120197296,-0.05449133738875389,0.30992820858955383
1772459234046357500,3.287357421875,-0.1535012573003769,-0.04667114093899727,0.37602829933166504
1772459234056354800,3.297354736328125,-0.2227591574192047,-0.04241754114627838,0.40710553526878357
1772459234066352600,3.3073525390625,-0.29167088866233826,-0.056765031069517136,0.4059982895851135
1772459234076349700,3.317349609375,-0.34234872460365295,-0.07160016894340515,0.3821360766887665
1772459234086346800,3.3273466796875,-0.38127395510673523,-0.09316576272249222,0.3469376266002655
1772459234096343800,3.33734375,-0.42502784729003906,-0.11327715218067169,0.29493698477745056
1772459234106340600,3.347340576171875,-0.48014548420906067,-0.1372307538986206,0.2206684648990631
1772459234116338700,3.357338623046875,-0.5449931621551514,-0.15565131604671478,0.13417963683605194
1772459234126335700,3.367335693359375,-0.6172372698783875,-0.16821487247943878,0.03157657012343407
1772459234136332800,3.377332763671875,-0.6861937046051025,-0.1756376326084137,-0.08206664025783539
1772459234146329600,3.38732958984375,-0.7467709183692932,-0.1696084588766098,-0.20350058376789093
1772459234156326700,3.39732666015625,-0.7969536185264587,-0.12994839251041412,-0.31729987263679504
1772459234166323700,3.40732373046875,-0.834369421005249,-0.06995715200901031,-0.41786304116249084
1772459234176321800,3.41732177734375,-0.8490383625030518,-0.007464748807251453,-0.5080437660217285
1772459234186318600,3.427318603515625,-0.8425992131233215,0.03552563861012459,-0.583099901676178
1772459234196315600,3.437315673828125,-0.8133808970451355,0.0658758208155632,-0.6355854868888855
1772459234206312700,3.447312744140625,-0.7763827443122864,0.07098068296909332,-0.6586507558822632
1772459234216309800,3.457309814453125,-0.7503519058227539,0.05157342553138733,-0.6660135984420776
1772459234226307600,3.4673076171875,-0.7399333119392395,0.021623317152261734,-0.658549964427948
1772459234236304600,3.4773046875,-0.7387069463729858,-0.016291840001940727,-0.6419720649719238
1772459234246301700,3.4873017578125,-0.7542993426322937,-0.09359537065029144,-0.630683958530426
1772459234256298800,3.497298828125,-0.8025544881820679,-0.17552140355110168,-0.6255373954772949
1772459234266295600,3.507295654296875,-0.8673306107521057,-0.2614589333534241,-0.6301429867744446
1772459234276293600,3.517293701171875,-0.9358396530151367,-0.34291037917137146,-0.6361822485923767
1772459234286290700,3.527290771484375,-1.0059094429016113,-0.40300819277763367,-0.6367302536964417
1772459234296287700,3.537287841796875,-1.072514533996582,-0.42840835452079773,-0.6331525444984436
1772459234306284500,3.547284423828125,-1.1398353576660156,-0.42990642786026,-0.6193617582321167
1772459234316281600,3.557281494140625,-1.2019582986831665,-0.42071533203125,-0.6031071543693542
1772459234326279700,3.56727978515625,-1.2581679821014404,-0.41050440073013306,-0.5948692560195923
1772459234336276700,3.57727685546875,-1.3192534446716309,-0.41964834928512573,-0.6074599027633667
1772459234346273500,3.5872734375,-1.3692220449447632,-0.4357968866825104,-0.628226101398468
1772459234356270800,3.597270751953125,-1.4109179973602295,-0.4482618272304535,-0.6504533886909485
1772459234366267600,3.607267578125,-1.4439711570739746,-0.4479568302631378,-0.6694623827934265
1772459234376264400,3.617264404296875,-1.4633389711380005,-0.44056737422943115,-0.6718381643295288
1772459234386262500,3.627262451171875,-1.4781652688980103,-0.42290815711021423,-0.6631335616111755
1772459234396259800,3.637259765625,-1.5061811208724976,-0.39100003242492676,-0.6514145731925964
1772459234406256600,3.647256591796875,-1.541988730430603,-0.33751827478408813,-0.6424359679222107
1772459234416253400,3.65725341796875,-1.572841763496399,-0.2729238271713257,-0.6221940517425537
1772459234426250800,3.667250732421875,-1.6038323640823364,-0.21461886167526245,-0.6065066456794739
1772459234436248800,3.677248779296875,-1.6324384212493896,-0.16585424542427063,-0.5988250374794006
1772459234446245600,3.68724560546875,-1.6547132730484009,-0.11557967960834503,-0.5876701474189758
1772459234456242700,3.69724267578125,-1.6679304838180542,-0.06344830244779587,-0.5701513290405273
1772459234466239700,3.70723974609375,-1.6709263324737549,-0.006233327556401491,-0.5312886834144592
1772459234476236500,3.717236572265625,-1.6532108783721924,0.05800744518637657,-0.4841230511665344
1772459234486234600,3.727234619140625,-1.6104896068572998,0.11052100360393524,-0.4364143908023834
1772459234496231700,3.737231689453125,-1.561142086982727,0.1672665774822235,-0.3963223695755005
1772459234506228700,3.747228759765625,-1.4951914548873901,0.2064564973115921,-0.37303227186203003
1772459234516225500,3.7572255859375,-1.4401447772979736,0.23531877994537354,-0.3785551190376282
1772459234526222600,3.76722265625,-1.411534070968628,0.2801953852176666,-0.3878230154514313
1772459234536219600,3.7772197265625,-1.4014042615890503,0.36561334133148193,-0.38036325573921204
1772459234546217500,3.787217529296875,-1.4029104709625244,0.4603744149208069,-0.3539485037326813
1772459234556214500,3.797214599609375,-1.4057528972625732,0.572512149810791,-0.3103877007961273
1772459234566211600,3.807211669921875,-1.4030696153640747,0.6894263625144958,-0.25217652320861816
1772459234576208600,3.817208740234375,-1.3907568454742432,0.7828836441040039,-0.17795102298259735
1772459234586205400,3.827205322265625,-1.3719316720962524,0.8336458802223206,-0.1073736920952797
1772459234596203500,3.83720361328125,-1.3515139818191528,0.8175105452537537,-0.06317240744829178
1772459234606200600,3.84720068359375,-1.3375139236450195,0.7491811513900757,-0.045825399458408356
1772459234616197600,3.85719775390625,-1.3347183465957642,0.6556163430213928,-0.04958205297589302
1772459234626194400,3.8671943359375,-1.3507500886917114,0.5769923329353333,-0.06836947053670883
1772459234636191500,3.87719140625,-1.3655668497085571,0.525305986404419,-0.0803140178322792
1772459234646189600,3.887189453125,-1.364428997039795,0.49962761998176575,-0.08605743199586868
1772459234656186600,3.8971865234375,-1.3487008810043335,0.49310049414634705,-0.08594797551631927
1772459234666183400,3.907183349609375,-1.31942617893219,0.5015259981155396,-0.07479002326726913
1772459234676180500,3.917180419921875,-1.2901556491851807,0.5053926110267639,-0.05008760839700699
1772459234686177500,3.927177490234375,-1.2653391361236572,0.50116366147995,-0.021062005311250687
1772459234696174600,3.937174560546875,-1.2450284957885742,0.46994850039482117,-0.0023455764167010784
1772459234706172400,3.94717236328125,-1.2256875038146973,0.4228513240814209,0.00766865024343133
1772459234716169500,3.95716943359375,-1.2018314599990845,0.3754532039165497,0.009644981473684311
1772459234726166500,3.96716650390625,-1.1661734580993652,0.3172408938407898,0.027832800522446632
1772459234736163600,3.97716357421875,-1.1196504831314087,0.2512594759464264,0.06348373740911484
1772459234746160400,3.987160400390625,-1.0643361806869507,0.18215316534042358,0.11832024157047272
1772459234756158500,3.997158447265625,-1.0077341794967651,0.11658799648284912,0.20574702322483063
1772459234766155500,4.007155517578125,-0.9498464465141296,0.07562179118394852,0.3246716260910034
1772459234776152600,4.017152587890625,-0.9001505374908447,0.07730863988399506,0.4716557562351227
1772459234786149400,4.0271494140625,-0.8429909348487854,0.10131457448005676,0.6417992115020752
1772459234796146700,4.037146728515625,-0.7614569067955017,0.1351870447397232,0.8182996511459351
1772459234806143500,4.0471435546875,-0.652294933795929,0.18573400378227234,1.002860188484192
1772459234816141600,4.0571416015625,-0.5235896706581116,0.22862021625041962,1.1804306507110596
1772459234826138600,4.067138671875,-0.3952177166938782,0.2517208755016327,1.3296645879745483
1772459234836135700,4.0771357421875,-0.27653661370277405,0.23538531363010406,1.4198914766311646
1772459234846132500,4.087132568359375,-0.18098652362823486,0.17564089596271515,1.4399523735046387
1772459234856129500,4.097129638671875,-0.10389333218336105,0.07850182056427002,1.3956369161605835
1772459234866127600,4.107127685546875,-0.043291300535202026,-0.04624062031507492,1.3094593286514282
1772459234876124700,4.117124755859375,-0.01389053463935852,-0.170906662940979,1.1931031942367554
1772459234886121500,4.12712158203125,-0.030853889882564545,-0.2631513178348541,1.0665860176086426
1772459234896118500,4.137118408203125,-0.08444520831108093,-0.3246663510799408,0.9351925849914551
1772459234906115600,4.147115478515625,-0.17767837643623352,-0.3655375838279724,0.8025094270706177
1772459234916113700,4.15711376953125,-0.30331724882125854,-0.41439327597618103,0.6501190662384033
1772459234926110500,4.1671103515625,-0.4560178816318512,-0.48747947812080383,0.46449077129364014
1772459234936107500,4.177107421875,-0.6328973174095154,-0.5717371106147766,0.2527063488960266
1772459234946104600,4.1871044921875,-0.7929214239120483,-0.6202691793441772,0.03265276923775673
1772459234956101600,4.1971015625,-0.9153264164924622,-0.6312395334243774,-0.16885611414909363
1772459234966098400,4.207098388671875,-1.0236272811889648,-0.594578742980957,-0.3406846821308136
1772459234976096500,4.217096435546875,-1.0983787775039673,-0.5165228247642517,-0.4550037980079651
1772459234986093600,4.227093505859375,-1.1264525651931763,-0.40821823477745056,-0.4946134686470032
1772459234996090600,4.237090576171875,-1.0941518545150757,-0.28995710611343384,-0.4706609845161438
1772459235006087400,4.24708740234375,-1.0081727504730225,-0.15826353430747986,-0.3844262361526489
1772459235016084500,4.25708447265625,-0.9168116450309753,-0.02053176984190941,-0.28086283802986145
1772459235026082600,4.26708251953125,-0.811129093170166,0.07869572937488556,-0.19171777367591858
1772459235036079600,4.27707958984375,-0.6930858492851257,0.14526596665382385,-0.11657481640577316
1772459235046076400,4.287076416015625,-0.5774939656257629,0.20836715400218964,-0.061579570174217224
1772459235056073700,4.29707373046875,-0.4759702682495117,0.2569780945777893,-0.0397363156080246
1772459235066070500,4.307070556640625,-0.3979628384113312,0.29951030015945435,-0.053919993340969086
1772459235076068600,4.317068603515625,-0.33860498666763306,0.34643998742103577,-0.07972096651792526
1772459235086065400,4.3270654296875,-0.2948717474937439,0.38877543807029724,-0.1101207360625267
1772459235096062700,4.337062744140625,-0.2547171413898468,0.410650372505188,-0.13279195129871368
1772459235106059500,4.3470595703125,-0.21579402685165405,0.41124585270881653,-0.156802237033844
1772459235116056300,4.357056396484375,-0.1787276268005371,0.3947180211544037,-0.17097237706184387
1772459235126054400,4.367054443359375,-0.14472278952598572,0.35023221373558044,-0.1892552673816681
1772459235136051700,4.3770517578125,-0.11864884197711945,0.26559215784072876,-0.22605855762958527
1772459235146048500,4.387048583984375,-0.09719055145978928,0.17315895855426788,-0.27205705642700195
1772459235156045300,4.39704541015625,-0.07312409579753876,0.10335857421159744,-0.30717721581459045
1772459235166042600,4.407042724609375,-0.04798147454857826,0.04519646242260933,-0.33342036604881287
1772459235176039400,4.417039306640625,-0.03515835106372833,-0.032692741602659225,-0.35877498984336853
1772459235186037500,4.42703759765625,-0.03259820491075516,-0.11650785803794861,-0.38828420639038086
1772459235196034300,4.437034423828125,-0.030109213665127754,-0.18663129210472107,-0.4077947735786438
1772459235206031600,4.447031494140625,-0.024562036618590355,-0.23658226430416107,-0.41783607006073
1772459235216028400,4.4570283203125,-0.009655258618295193,-0.2695479393005371,-0.42008671164512634
1772459235226025500,4.467025390625,0.0040061622858047485,-0.2854665219783783,-0.4072607159614563
1772459235236023600,4.4770234375,0.023475468158721924,-0.2926703691482544,-0.38834190368652344
1772459235246020600,4.4870205078125,0.04312479496002197,-0.3159170150756836,-0.3642480671405792
1772459235256017400,4.497017333984375,0.05111800134181976,-0.35210856795310974,-0.340508371591568
1772459235266014500,4.507014404296875,0.06553716957569122,-0.3981296718120575,-0.3134266436100006
1772459235276011500,4.517011474609375,0.08598971366882324,-0.4460950791835785,-0.27841484546661377
1772459235286009600,4.527009521484375,0.09793552756309509,-0.49291369318962097,-0.25322508811950684
1772459235296006400,4.53700634765625,0.10029429197311401,-0.5546103715896606,-0.24025388062000275
1772459235306003500,4.54700341796875,0.085573710501194,-0.6301692128181458,-0.24112001061439514
1772459235316000500,4.55700048828125,0.05625683814287186,-0.6838907599449158,-0.2450455129146576
1772459235325997600,4.56699755859375,0.030959205701947212,-0.7017195820808411,-0.2313816249370575
1772459235335994400,4.576994384765625,0.014840429648756981,-0.6675537824630737,-0.19472798705101013
1772459235345992400,4.586992431640625,0.019224800169467926,-0.5881530046463013,-0.12573125958442688
1772459235355989500,4.596989501953125,0.04757121950387955,-0.5114481449127197,-0.03067505732178688
1772459235365986600,4.606986572265625,0.11479885876178741,-0.4458017945289612,0.07985582947731018
1772459235375983400,4.6169833984375,0.20697619020938873,-0.38603833317756653,0.20525741577148438
1772459235385980700,4.626980712890625,0.3125411570072174,-0.3625221848487854,0.32786253094673157
1772459235395978500,4.636978515625,0.39680516719818115,-0.40535804629325867,0.4227597713470459
1772459235405975600,4.6469755859375,0.41230857372283936,-0.46316713094711304,0.4675931930541992
1772459235415972400,4.656972412109375,0.3823176324367523,-0.4953082799911499,0.4737357795238495
1772459235425969700,4.6669697265625,0.3480014204978943,-0.5084772706031799,0.44928160309791565
1772459235435966500,4.676966552734375,0.3135411739349365,-0.5004329085350037,0.3948705494403839
1772459235445964500,4.686964599609375,0.2866099774837494,-0.4626876711845398,0.3343997597694397
1772459235455961300,4.69696142578125,0.2668732702732086,-0.3898976147174835,0.2780728340148926
1772459235465958700,4.706958740234375,0.24461239576339722,-0.29840904474258423,0.23479047417640686
1772459235475955500,4.71695556640625,0.2344209998846054,-0.207513228058815,0.2240467518568039
1772459235485952500,4.726952392578125,0.21924638748168945,-0.14512160420417786,0.2331855446100235
1772459235495949600,4.736949462890625,0.2051665186882019,-0.11286060512065887,0.25012484192848206
1772459235505947600,4.74694775390625,0.1927742213010788,-0.1087040901184082,0.27183929085731506
1772459235515944400,4.7569443359375,0.18941810727119446,-0.13633491098880768,0.30719542503356934
1772459235525941500,4.76694140625,0.18453073501586914,-0.17812561988830566,0.3397434949874878
1772459235535939000,4.77693896484375,0.1685784012079239,-0.22087495028972626,0.38952916860580444
1772459235545936100,4.78693603515625,0.14759807288646698,-0.23711687326431274,0.4625142216682434
1772459235555934000,4.796933837890625,0.11950412392616272,-0.23205474019050598,0.5419257283210754
1772459235565931000,4.806930908203125,0.0887976884841919,-0.22032584249973297,0.6207689642906189
1772459235575928000,4.816927978515625,0.065701425075531,-0.19368784129619598,0.7005418539047241
1772459235585925000,4.826925048828125,0.05551715940237045,-0.16879764199256897,0.7610844373703003
1772459235595922000,4.836921875,0.04633511230349541,-0.14552535116672516,0.802862823009491
1772459235605920000,4.846919921875,0.045623257756233215,-0.10706380009651184,0.8285732865333557
1772459235615917000,4.8569169921875,0.05227423831820488,-0.06079430878162384,0.8411255478858948
1772459235625914000,4.8669140625,0.06002861633896828,-0.0025593384634703398,0.8451818227767944
1772459235635911000,4.876910888671875,0.07546136528253555,0.050357136875391006,0.8360346555709839
1772459235645908200,4.886908203125,0.08698080480098724,0.105340875685215,0.818711519241333
1772459235655905000,4.896905029296875,0.09263096749782562,0.15769143402576447,0.786654531955719
1772459235665903000,4.906903076171875,0.08693233877420425,0.21437397599220276,0.7454429268836975
1772459235675900000,4.91689990234375,0.07778198271989822,0.2688089907169342,0.6967121362686157
1772459235685897200,4.926897216796875,0.06157026067376137,0.31385716795921326,0.6408219933509827
1772459235695894000,4.93689404296875,0.051798589527606964,0.35027775168418884,0.577519953250885
1772459235705891000,4.94689111328125,0.039785344153642654,0.3884143829345703,0.5097545385360718
1772459235715889000,4.956888916015625,0.04203225299715996,0.41186219453811646,0.43742066621780396
1772459235725886200,4.96688623046875,0.048723503947257996,0.4217258095741272,0.3627779185771942
1772459235735883000,4.976883056640625,0.06084807962179184,0.41328758001327515,0.2739127576351166
1772459235745880000,4.986880126953125,0.08570388704538345,0.39364588260650635,0.17248409986495972
1772459235755877000,4.996877197265625,0.11752040684223175,0.37667807936668396,0.056667760014534
1772459235765875200,5.006875244140625,0.15803155303001404,0.3538179099559784,-0.07137683033943176
1772459235775872000,5.0168720703125,0.20330476760864258,0.3387220501899719,-0.21426288783550262
1772459235785869000,5.026869140625,0.2568228244781494,0.30220288038253784,-0.3650865852832794
1772459235795866000,5.0368662109375,0.3249041438102722,0.24505944550037384,-0.5148822069168091
1772459235805863200,5.04686328125,0.4050956666469574,0.18385069072246552,-0.6472667455673218
1772459235815860000,5.05685986328125,0.49582555890083313,0.13450656831264496,-0.7501829862594604
1772459235825858000,5.066858154296875,0.5826514363288879,0.08289535343647003,-0.8257752060890198
1772459235835855000,5.076855224609375,0.6524105072021484,0.027606530115008354,-0.8796552419662476
1772459235845852200,5.08685205078125,0.7205864787101746,-0.02631773240864277,-0.9003661274909973
1772459235855849000,5.096848876953125,0.7783156037330627,-0.07953701168298721,-0.8931114077568054
1772459235865846300,5.10684619140625,0.8280880451202393,-0.140319362282753,-0.8398677706718445
1772459235875844000,5.116843994140625,0.8562414050102234,-0.1809442788362503,-0.7601252794265747
1772459235885841200,5.126841064453125,0.8730350732803345,-0.21357709169387817,-0.6629310846328735
1772459235895838000,5.136837890625,0.881520688533783,-0.23378302156925201,-0.5698277950286865
1772459235905835300,5.146835205078125,0.8733869194984436,-0.24807754158973694,-0.47896718978881836
1772459235915832000,5.15683203125,0.8412092328071594,-0.2536182403564453,-0.4145980775356293
1772459235925830100,5.166830078125,0.7841033935546875,-0.26378121972084045,-0.38958707451820374
1772459235935827000,5.176826904296875,0.7163727879524231,-0.2713131904602051,-0.39645349979400635
1772459235945824300,5.18682421875,0.6558581590652466,-0.27891552448272705,-0.41363269090652466
1772459235955821000,5.196821044921875,0.6117697954177856,-0.2842881977558136,-0.4321326017379761
1772459235965818000,5.206818115234375,0.5730261206626892,-0.2782062590122223,-0.44709083437919617
1772459235975815200,5.216815185546875,0.5420498251914978,-0.2539656460285187,-0.4515175521373749
1772459235985813200,5.226813232421875,0.518474817276001,-0.22634415328502655,-0.4424019753932953
1772459235995810000,5.23681005859375,0.5142377018928528,-0.19215929508209229,-0.417205274105072
1772459236005807000,5.24680712890625,0.5177329778671265,-0.1440078765153885,-0.3765961229801178
1772459236015804200,5.25680419921875,0.5306623578071594,-0.09985772520303726,-0.3247172236442566
1772459236025801000,5.266801025390625,0.5604882836341858,-0.05083099752664566,-0.2598859667778015
1772459236035799000,5.276799072265625,0.5861161351203918,-0.008462767116725445,-0.1884853094816208
1772459236045796000,5.286796142578125,0.6043270230293274,0.027195734903216362,-0.11454388499259949
1772459236055793200,5.296793212890625,0.6121729612350464,0.06472580134868622,-0.04476560652256012
1772459236065790000,5.3067900390625,0.6090065836906433,0.09247349947690964,0.0199920441955328
1772459236075787000,5.316787109375,0.602681040763855,0.13466942310333252,0.0776745155453682
1772459236085783000,5.326782958984375,0.6075336337089539,0.18275153636932373,0.14398060739040375
1772459236095780000,5.336780029296875,0.6180243492126465,0.22730489075183868,0.2135186791419983
1772459236105777200,5.346777099609375,0.6406835913658142,0.2725082337856293,0.28423959016799927
1772459236115774200,5.356774169921875,0.6706098318099976,0.30036675930023193,0.3546178936958313
1772459236125771000,5.36677099609375,0.6942804455757141,0.3237694799900055,0.42275261878967285
1772459236135768000,5.37676806640625,0.7272181510925293,0.3642178475856781,0.49028265476226807
1772459236145766100,5.38676611328125,0.7649391293525696,0.4222535490989685,0.5591627955436707
1772459236155763200,5.39676318359375,0.8185781240463257,0.44202297925949097,0.6219944953918457
1772459236165760000,5.406760009765625,0.8568639755249023,0.4346904456615448,0.6528339385986328
1772459236175757000,5.416757080078125,0.8687251806259155,0.4172810912132263,0.656415581703186
1772459236185754000,5.426754150390625,0.8769301772117615,0.4166925847530365,0.6396278738975525
1772459236195752200,5.436752197265625,0.8940534591674805,0.4221475422382355,0.6178032755851746
1772459236205749000,5.4467490234375,0.9161902666091919,0.4479573667049408,0.5938726663589478
1772459236215746000,5.45674609375,0.9454246163368225,0.46454912424087524,0.586378276348114
1772459236225743000,5.4667431640625,0.9836974143981934,0.47187572717666626,0.586335301399231
1772459236235740000,5.476739990234375,1.0179712772369385,0.45666882395744324,0.5962912440299988
1772459236245738000,5.486738037109375,1.0508579015731812,0.4221234917640686,0.5975977182388306
1772459236255735000,5.496735107421875,1.0866577625274658,0.3740238845348358,0.5886287689208984
1772459236265732000,5.506732177734375,1.1252425909042358,0.3085966408252716,0.5683353543281555
1772459236275729000,5.51672900390625,1.15827214717865,0.25289130210876465,0.5420867204666138
1772459236285726000,5.526725830078125,1.1748629808425903,0.2052117884159088,0.5087717771530151
1772459236295723000,5.536722900390625,1.1841329336166382,0.1685083657503128,0.47174686193466187
1772459236305721000,5.54672119140625,1.1867619752883911,0.14315997064113617,0.43230459094047546
1772459236315718000,5.5567177734375,1.1831285953521729,0.12987959384918213,0.3788994252681732
1772459236325715000,5.56671484375,1.1787595748901367,0.13266848027706146,0.3218667507171631
1772459236335712000,5.5767119140625,1.1846047639846802,0.1508685201406479,0.2731362581253052
1772459236345709000,5.586708984375,1.2004597187042236,0.18948838114738464,0.23213770985603333
1772459236355707100,5.59670703125,1.2238789796829224,0.2444203495979309,0.209018275141716
1772459236365704000,5.606703857421875,1.271047592163086,0.3125759959220886,0.21320132911205292
1772459236375701000,5.616700927734375,1.3357347249984741,0.36636999249458313,0.23670612275600433
1772459236385698000,5.626697998046875,1.4010764360427856,0.4003660976886749,0.27778229117393494
1772459236395694800,5.63669482421875,1.4543588161468506,0.41163232922554016,0.31921178102493286
1772459236405693000,5.64669287109375,1.4934301376342773,0.4104384183883667,0.36862441897392273
1772459236415690000,5.65668994140625,1.527686357498169,0.4056013226509094,0.4146963059902191
1772459236425687000,5.66668701171875,1.549344539642334,0.40258875489234924,0.4663113057613373
1772459236435683800,5.676683837890625,1.56728196144104,0.3773672878742218,0.5008927583694458
1772459236445681200,5.68668115234375,1.5825419425964355,0.3271520137786865,0.495395302772522
1772459236455678000,5.696677978515625,1.583247423171997,0.25767120718955994,0.4587142765522003
1772459236465676000,5.706676025390625,1.56259024143219,0.21701835095882416,0.39620736241340637
1772459236475673000,5.716673095703125,1.537918210029602,0.1725105494260788,0.3138427138328552
1772459236485670100,5.726670166015625,1.522377371788025,0.13546514511108398,0.2247956246137619
1772459236495667000,5.7366669921875,1.5108672380447388,0.08990193158388138,0.12629728019237518
1772459236505664000,5.7466640625,1.497983455657959,0.03599841147661209,0.014691448770463467
1772459236515662000,5.756662109375,1.4689581394195557,-0.00671523017808795,-0.08993376046419144
1772459236525659100,5.7666591796875,1.4152156114578247,-0.057113438844680786,-0.19380314648151398
1772459236535655400,5.776655517578125,1.3147265911102295,-0.13085344433784485,-0.30153387784957886
1772459236545652700,5.78665283203125,1.173599362373352,-0.21132327616214752,-0.3992018401622772
1772459236555649500,5.7966494140625,1.0108367204666138,-0.2745797336101532,-0.4752095341682434
1772459236565647600,5.806647705078125,0.8483448624610901,-0.3108612596988678,-0.5216946601867676
1772459236575644400,5.81664453125,0.6979705691337585,-0.31723979115486145,-0.5462386608123779
1772459236585641700,5.826641845703125,0.5806223750114441,-0.2667851746082306,-0.5395035147666931
1772459236595638500,5.836638427734375,0.5122031569480896,-0.16876088082790375,-0.4970652461051941
1772459236605635600,5.846635498046875,0.4942372143268585,-0.036847613751888275,-0.41655150055885315
1772459236615632600,5.856632568359375,0.5204648375511169,0.1176077350974083,-0.3201935291290283
1772459236625630700,5.866630615234375,0.6042627096176147,0.28645265102386475,-0.19147463142871857
1772459236635627500,5.87662744140625,0.7306350469589233,0.4336540699005127,-0.045173339545726776
1772459236645624600,5.88662451171875,0.8642457723617554,0.5359012484550476,0.0846775621175766
1772459236655621600,5.89662158203125,0.9685335755348206,0.6050946712493896,0.17102336883544922
1772459236665618700,5.90661865234375,1.022939682006836,0.6443557739257812,0.2080100029706955
1772459236675616500,5.916616455078125,1.0525678396224976,0.6648671627044678,0.2026945948600769
1772459236685613600,5.926613525390625,1.0626469850540161,0.6643182039260864,0.15758097171783447
1772459236695610600,5.936610595703125,1.0633697509765625,0.6606283783912659,0.10275102406740189
1772459236705607700,5.946607666015625,1.0566731691360474,0.6386967897415161,0.04389186576008797
1772459236715604500,5.9566044921875,1.0328341722488403,0.5826423168182373,-0.025911984965205193
1772459236725601500,5.9666015625,1.0067510604858398,0.5095876455307007,-0.08472006767988205
1772459236735599600,5.976599609375,0.9803439378738403,0.4198574721813202,-0.11796403676271439
1772459236745597700,5.98659765625,0.9643489122390747,0.3377813696861267,-0.13013483583927155
1772459236755594500,5.996594482421875,0.95677250623703,0.2646680176258087,-0.12165240943431854
1772459236765591600,6.006591552734375,0.9503170847892761,0.20791706442832947,-0.09769965708255768
1772459236775588600,6.016588623046875,0.9411755204200745,0.15899160504341125,-0.06160584092140198
1772459236785585700,6.026585693359375,0.9284816384315491,0.10966460406780243,-0.02809327282011509
1772459236795582500,6.03658251953125,0.9162452220916748,0.04937995970249176,0.0034097915049642324
1772459236805580500,6.04658056640625,0.8999812602996826,0.005398652516305447,0.03259856998920441
1772459236815577600,6.05657763671875,0.8801599144935608,-0.029597681015729904,0.07006072252988815
1772459236825574700,6.06657470703125,0.8568251729011536,-0.06160653010010719,0.10751110315322876
1772459236835571500,6.076571533203125,0.8319405913352966,-0.09292396903038025,0.13291499018669128
1772459236845568800,6.08656884765625,0.815985381603241,-0.12943913042545319,0.1523464024066925
1772459236855566600,6.096566650390625,0.8128148913383484,-0.17591767013072968,0.15287476778030396
1772459236865563600,6.106563720703125,0.8061200380325317,-0.21246609091758728,0.15386849641799927
1772459236875560400,6.116560546875,0.8054111003875732,-0.23596608638763428,0.16117063164710999
1772459236885557800,6.126557861328125,0.7928845882415771,-0.2585591971874237,0.17291028797626495
1772459236895554600,6.136554443359375,0.7772979140281677,-0.2793462574481964,0.19553864002227783
1772459236905551400,6.14655126953125,0.7625362873077393,-0.28750625252723694,0.22958393394947052
1772459236915549400,6.156549560546875,0.7548280358314514,-0.2829911410808563,0.2766866981983185
1772459236925546800,6.166546630859375,0.7611554861068726,-0.269978404045105,0.3338676691055298
1772459236935543600,6.17654345703125,0.7763485908508301,-0.24173586070537567,0.4004115164279938
1772459236945540600,6.18654052734375,0.8173878788948059,-0.20711103081703186,0.47249922156333923
1772459236955537700,6.19653759765625,0.8620259165763855,-0.21836794912815094,0.5428029894828796
1772459236965535700,6.20653564453125,0.8763265609741211,-0.2620348334312439,0.5749728679656982
1772459236975532500,6.216532470703125,0.8387336134910583,-0.3180842697620392,0.5632850527763367
1772459236985529600,6.226529541015625,0.7762852311134338,-0.38038724660873413,0.5024577975273132
1772459236995526700,6.236526611328125,0.7116284966468811,-0.4099467396736145,0.4186582565307617
1772459237005523500,6.2465234375,0.6593817472457886,-0.3857421875,0.3274051547050476
1772459237015521500,6.256521484375,0.6342830061912537,-0.3208217918872833,0.25886020064353943
1772459237025518600,6.2665185546875,0.6366273164749146,-0.23832547664642334,0.22174355387687683
1772459237035515600,6.276515625,0.651679515838623,-0.1600373387336731,0.21555116772651672
1772459237045512400,6.286512451171875,0.6777960658073425,-0.09957760572433472,0.2301543653011322
1772459237055509500,6.296509521484375,0.7084575295448303,-0.06823965907096863,0.2554384171962738
1772459237065506600,6.306506591796875,0.7445686459541321,-0.05679543316364288,0.2881917655467987
1772459237075504600,6.316504638671875,0.7759984731674194,-0.04805920273065567,0.3289375901222229
1772459237085501400,6.32650146484375,0.7954922318458557,-0.032830338925123215,0.38825729489326477
1772459237095498500,6.33649853515625,0.7952773571014404,-0.02943560481071472,0.45428186655044556
1772459237105495600,6.34649560546875,0.7719724178314209,-0.033125102519989014,0.5224545001983643
1772459237115492600,6.35649267578125,0.7272334694862366,-0.044861920177936554,0.5932666063308716
1772459237125490700,6.36649072265625,0.6764258742332458,-0.06078620254993439,0.6582940220832825
1772459237135487500,6.376487548828125,0.6215397119522095,-0.06873095035552979,0.7142528891563416
1772459237145484500,6.386484619140625,0.5709545016288757,-0.06836817413568497,0.7605867385864258
1772459237155481600,6.396481689453125,0.5239382386207581,-0.0603288970887661,0.7829549312591553
1772459237165478400,6.406478515625,0.4820842742919922,-0.0263785682618618,0.7897330522537231
1772459237175475700,6.416475830078125,0.44941821694374084,0.023777276277542114,0.7811219692230225
1772459237185473500,6.4264736328125,0.41680145263671875,0.07717789709568024,0.7423902750015259
1772459237195470600,6.436470703125,0.37765246629714966,0.1430317461490631,0.6763074398040771
1772459237205467400,6.44646728515625,0.34573864936828613,0.2084663361310959,0.5958147644996643
1772459237215464700,6.456464599609375,0.32059386372566223,0.27943184971809387,0.5152405500411987
1772459237225461500,6.46646142578125,0.3016972243785858,0.3574686050415039,0.4340219497680664
1772459237235459600,6.47645947265625,0.2853715419769287,0.420751690864563,0.3431152105331421
1772459237245456400,6.486456298828125,0.26452505588531494,0.4668952524662018,0.2435411959886551
1772459237255453700,6.49645361328125,0.24352280795574188,0.5085436105728149,0.13660436868667603
1772459237265450500,6.506450439453125,0.21310079097747803,0.5411416888237,0.028666261583566666
1772459237275447600,6.516447509765625,0.19895409047603607,0.5515482425689697,-0.09211315214633942
1772459237285445400,6.5264453125,0.19755138456821442,0.5559287667274475,-0.21076500415802002
1772459237295442700,6.536442626953125,0.2302779108285904,0.5593836903572083,-0.3079770505428314
1772459237305439500,6.546439453125,0.2773244380950928,0.5553596019744873,-0.3796535134315491
1772459237315436500,6.5564365234375,0.33768898248672485,0.5649855732917786,-0.4286588728427887
1772459237325433600,6.56643359375,0.4108581840991974,0.5623128414154053,-0.45525410771369934
1772459237335430700,6.5764306640625,0.4926856756210327,0.5483157634735107,-0.4565769135951996
1772459237345428500,6.586428466796875,0.5768755078315735,0.5198925137519836,-0.43570688366889954
1772459237355425500,6.596425537109375,0.6581258773803711,0.4716189503669739,-0.3997427821159363
1772459237365422600,6.606422607421875,0.7461634874343872,0.4134753346443176,-0.3518313467502594
1772459237375419600,6.616419677734375,0.827632486820221,0.33401671051979065,-0.2988283336162567
1772459237385416400,6.62641650390625,0.9070352911949158,0.2523335814476013,-0.24907401204109192
1772459237395414500,6.63641455078125,0.9740763902664185,0.16993725299835205,-0.20765572786331177
1772459237405411600,6.64641162109375,1.0212386846542358,0.08969759941101074,-0.18057933449745178
1772459237415408600,6.65640869140625,1.0569261312484741,0.027835829183459282,-0.15807348489761353
1772459237425405400,6.666405517578125,1.0782549381256104,-0.003383565228432417,-0.11558457463979721
1772459237435402800,6.67640283203125,1.0795483589172363,-0.019457073882222176,-0.07115239650011063
1772459237445400600,6.686400634765625,1.0659724473953247,-0.026058074086904526,-0.024990158155560493
1772459237455397600,6.696397705078125,1.0450924634933472,-0.027316417545080185,0.01870805397629738
1772459237465394400,6.70639453125,1.0331106185913086,-0.028877295553684235,0.046067506074905396
1772459237475391700,6.716391845703125,1.01991605758667,-0.006971198134124279,0.06161877140402794
1772459237485388500,6.726388427734375,1.0071719884872437,0.01807882823050022,0.04602812975645065
1772459237495385600,6.736385498046875,0.9990088939666748,0.038436561822891235,0.008958794176578522
1772459237505383400,6.746383544921875,0.9950564503669739,0.05964739993214607,-0.040880631655454636
1772459237515380700,6.756380615234375,0.9938428401947021,0.1060284823179245,-0.0808940976858139
1772459237525377500,6.76637744140625,1.0184742212295532,0.16819214820861816,-0.09873635321855545
1772459237535374000,6.7763740234375,1.0550761222839355,0.23838455975055695,-0.08951515704393387
1772459237545371100,6.78637109375,1.1027953624725342,0.3058009147644043,-0.07149487733840942
1772459237555369200,6.796369140625,1.151814579963684,0.36430415511131287,-0.054180603474378586
1772459237565366000,6.806365966796875,1.198524832725525,0.42107218503952026,-0.04199938476085663
1772459237575363000,6.816363037109375,1.2401691675186157,0.46021851897239685,-0.041620150208473206
1772459237585360100,6.826360107421875,1.265541434288025,0.4730985462665558,-0.05005042999982834
1772459237595357000,6.83635693359375,1.289438009262085,0.49742040038108826,-0.051167625933885574
1772459237605355000,6.84635498046875,1.3027513027191162,0.5114075541496277,-0.043390315026044846
1772459237615352000,6.85635205078125,1.3087860345840454,0.5020459890365601,-0.03289106860756874
1772459237625349000,6.86634912109375,1.3011443614959717,0.48829153180122375,-0.020241381600499153
1772459237635346000,6.876345947265625,1.2884880304336548,0.45847105979919434,0.002460468327626586
1772459237645343000,6.886343017578125,1.2733099460601807,0.43156394362449646,0.013243217021226883
1772459237655340000,6.896340087890625,1.2492141723632812,0.4178880751132965,0.027887405827641487
1772459237665338000,6.906338134765625,1.2368382215499878,0.4175187945365906,0.03982686623930931
1772459237675335200,6.916335205078125,1.2293193340301514,0.4333094656467438,0.060791537165641785
1772459237685332000,6.92633203125,1.240844964981079,0.4585670232772827,0.08861980587244034
1772459237695329000,6.9363291015625,1.2699615955352783,0.503523051738739,0.12267417460680008
1772459237705326000,6.946326171875,1.3205630779266357,0.5510293245315552,0.16027219593524933
1772459237715324200,6.95632421875,1.390723466873169,0.5623173713684082,0.18431921303272247
1772459237725321000,6.966321044921875,1.4438990354537964,0.5650314092636108,0.18199102580547333
1772459237735318000,6.976318115234375,1.4839390516281128,0.5452576875686646,0.16125431656837463
1772459237745315000,6.986315185546875,1.5193121433258057,0.5172674655914307,0.12904734909534454
1772459237755311900,6.996311767578125,1.552168607711792,0.48425915837287903,0.11285106837749481
1772459237765309200,7.00630908203125,1.5682151317596436,0.4656258821487427,0.11508455127477646
1772459237775307000,7.01630712890625,1.5698989629745483,0.4518525302410126,0.13102249801158905
1772459237785304000,7.026303955078125,1.5600277185440063,0.44642695784568787,0.16457544267177582
1772459237795300900,7.03630078125,1.544893741607666,0.4405805468559265,0.1974811851978302
1772459237805298200,7.046298095703125,1.534929633140564,0.4181599020957947,0.217149555683136
1772459237815295000,7.056294921875,1.5215791463851929,0.37359005212783813,0.21302086114883423
1772459237825293000,7.06629296875,1.5070147514343262,0.31770169734954834,0.1912754476070404
1772459237835289900,7.076289794921875,1.4896197319030762,0.2673378586769104,0.1606363207101822
1772459237845287200,7.086287109375,1.4642093181610107,0.21622875332832336,0.13946250081062317
1772459237855284000,7.096283935546875,1.434310793876648,0.19413357973098755,0.1383889764547348
1772459237865281000,7.106281005859375,1.4014661312103271,0.19493727385997772,0.1494341939687729
1772459237875278800,7.11627880859375,1.3677572011947632,0.2253790646791458,0.1759616732597351
1772459237885276200,7.126276123046875,1.358288049697876,0.2785424292087555,0.20868687331676483
1772459237895273000,7.13627294921875,1.3772629499435425,0.3430694341659546,0.24896834790706635
1772459237905270000,7.14627001953125,1.4106919765472412,0.3988889753818512,0.2900436818599701
1772459237915267000,7.15626708984375,1.4432957172393799,0.4377918839454651,0.33210060000419617
1772459237925264100,7.16626416015625,1.4680626392364502,0.4598592519760132,0.3640519380569458
1772459237935262000,7.176261962890625,1.4850685596466064,0.472160667181015,0.40081822872161865
1772459237945259000,7.186259033203125,1.5075162649154663,0.4712848663330078,0.4472300112247467
1772459237955256000,7.196256103515625,1.5346871614456177,0.4513561725616455,0.5119578242301941
1772459237965253000,7.206253173828125,1.5555331707000732,0.44323471188545227,0.5978183746337891
1772459237975250000,7.21625,1.5844146013259888,0.45967015624046326,0.7262082695960999
1772459237985248000,7.226248046875,1.6140118837356567,0.4897625744342804,0.8806325197219849
1772459237995245000,7.2362451171875,1.6568565368652344,0.4887675940990448,1.0293124914169312
1772459238005242000,7.2462421875,1.7155287265777588,0.4598942995071411,1.1453276872634888
1772459238015239000,7.256239013671875,1.771834373474121,0.4053000509738922,1.208155632019043
1772459238025236200,7.266236328125,1.8140770196914673,0.3321234881877899,1.2081513404846191
1772459238035234000,7.276234130859375,1.852565050125122,0.25456586480140686,1.155479073524475
1772459238045231000,7.286231201171875,1.8630235195159912,0.18427161872386932,1.0604612827301025
1772459238055228000,7.296227783203125,1.8448457717895508,0.13190855085849762,0.9230781197547913
1772459238065225200,7.30622509765625,1.8110127449035645,0.09466024488210678,0.7597706913948059
1772459238075222000,7.316221923828125,1.7611600160598755,0.08607980608940125,0.5835088491439819
1772459238085219000,7.326218994140625,1.6891651153564453,0.09406804293394089,0.39324235916137695
1772459238095217000,7.336216796875,1.597208857536316,0.11146886646747589,0.20992553234100342
1772459238105214200,7.346214111328125,1.4951224327087402,0.16035547852516174,0.04624343663454056
1772459238115211000,7.3562109375,1.414077877998352,0.21285836398601532,-0.0815691277384758
1772459238125208000,7.3662080078125,1.3612136840820312,0.2678486406803131,-0.16802363097667694
1772459238135205000,7.376205078125,1.3373022079467773,0.3387411832809448,-0.21104992926120758
1772459238145203200,7.386203125,1.3339956998825073,0.4216107726097107,-0.22062170505523682
1772459238155200000,7.396199951171875,1.3519963026046753,0.5025982856750488,-0.20352500677108765
1772459238165197000,7.406197021484375,1.3916951417922974,0.5885360240936279,-0.16326123476028442
1772459238175194000,7.416194091796875,1.433864712715149,0.6573185324668884,-0.12156759202480316
1772459238185191200,7.426191162109375,1.4623265266418457,0.7155361175537109,-0.07685287296772003
1772459238195188000,7.43618798828125,1.475980281829834,0.7720335125923157,-0.05475077033042908
1772459238205186000,7.44618603515625,1.4765853881835938,0.803755521774292,-0.059372588992118835
1772459238215183000,7.45618310546875,1.439882516860962,0.7786528468132019,-0.09802890568971634
1772459238225180200,7.46618017578125,1.3824175596237183,0.7383140921592712,-0.1597297489643097
1772459238235177000,7.476177001953125,1.3162745237350464,0.6941977739334106,-0.21485532820224762
1772459238245174300,7.48617431640625,1.257910132408142,0.6207425594329834,-0.265821248292923
1772459238255172000,7.496172119140625,1.2104272842407227,0.5504476428031921,-0.28609350323677063
1772459238265169200,7.506169189453125,1.1844396591186523,0.48528891801834106,-0.2699490189552307
1772459238275166000,7.516166015625,1.1648324728012085,0.4120999276638031,-0.23316170275211334
1772459238285163300,7.526163330078125,1.1442880630493164,0.328485369682312,-0.18545228242874146
1772459238295160000,7.53616015625,1.1106752157211304,0.24328099191188812,-0.1414954662322998
1772459238305158100,7.546158203125,1.076263189315796,0.15362980961799622,-0.09899239987134933
1772459238315155000,7.556155029296875,1.0428946018218994,0.08149035274982452,-0.05771739408373833
1772459238325152300,7.56615234375,1.0060348510742188,0.023545565083622932,-0.03318808600306511
1772459238335149000,7.576149169921875,0.9637952446937561,-0.03724268451333046,-0.018130041658878326
1772459238345145900,7.586145751953125,0.9195717573165894,-0.07637306302785873,-0.015934059396386147
1772459238355143200,7.59614306640625,0.8786948919296265,-0.1050553098320961,-0.02407560870051384
1772459238365141200,7.606141357421875,0.8423102498054504,-0.1379403918981552,-0.03858159855008125
1772459238375138000,7.616137939453125,0.8006794452667236,-0.17589950561523438,-0.06918105483055115
1772459238385134800,7.626134765625,0.7528104186058044,-0.19163654744625092,-0.08768823742866516
1772459238395132200,7.636132080078125,0.7162084579467773,-0.1938573569059372,-0.07905399799346924
1772459238405129000,7.64612890625,0.6907458901405334,-0.18787069618701935,-0.05022403597831726
1772459238415127000,7.656126953125,0.6910760998725891,-0.18188364803791046,-0.0014136186800897121
1772459238425124000,7.6661240234375,0.6993703842163086,-0.17100773751735687,0.056913312524557114
1772459238435121200,7.67612109375,0.7198572754859924,-0.14755725860595703,0.12335065752267838
1772459238445118000,7.686117919921875,0.7479624152183533,-0.10546819120645523,0.20544202625751495
1772459238455115000,7.696114990234375,0.7869830131530762,-0.05407477542757988,0.29028528928756714
1772459238465112000,7.706112060546875,0.8220255970954895,-0.030856072902679443,0.3763943016529083
1772459238475110100,7.716110107421875,0.8278968334197998,-0.0343426838517189,0.42645081877708435
1772459238485107000,7.72610693359375,0.7991886734962463,-0.058925677090883255,0.426988422870636
1772459238495104000,7.73610400390625,0.754608690738678,-0.0864555761218071,0.39447787404060364
1772459238505101000,7.74610107421875,0.7101085186004639,-0.10876748710870743,0.32824188470840454
1772459238515098000,7.75609814453125,0.6484954953193665,-0.12972737848758698,0.23934873938560486
1772459238525096000,7.766095947265625,0.5769484043121338,-0.1489972323179245,0.14172695577144623
1772459238535097300,7.776097412109375,0.5164206027984619,-0.173265278339386,0.05353184789419174
1772459238545094400,7.786094482421875,0.4766395390033722,-0.17286214232444763,0.010456406511366367
1772459238555091500,7.796091552734375,0.4564583897590637,-0.16099829971790314,0.020713837817311287
1772459238565088500,7.806088623046875,0.44535699486732483,-0.15094245970249176,0.07159309834241867
1772459238575086300,7.81608642578125,0.4408054053783417,-0.15026842057704926,0.15886302292346954
1772459238585083400,7.82608349609375,0.44341593980789185,-0.17684192955493927,0.2685833275318146
1772459238595080400,7.83608056640625,0.45009860396385193,-0.2203044593334198,0.38468116521835327
1772459238605077500,7.846077392578125,0.45681145787239075,-0.2691849172115326,0.5011581182479858
1772459238615074300,7.85607421875,0.44459208846092224,-0.2954692542552948,0.615913987159729
1772459238625072400,7.866072265625,0.4154394268989563,-0.31111204624176025,0.7175031304359436
1772459238635069400,7.8760693359375,0.3787674307823181,-0.31102654337882996,0.8051304221153259
1772459238645066500,7.88606640625,0.35355672240257263,-0.29876166582107544,0.873999297618866
1772459238655063300,7.896063232421875,0.3189433515071869,-0.26296210289001465,0.9177542328834534
1772459238665060600,7.906060546875,0.2806496024131775,-0.22058983147144318,0.9356060028076172
1772459238675057400,7.916057373046875,0.23334838449954987,-0.18847529590129852,0.9070609211921692
1772459238685055500,7.926055419921875,0.17872317135334015,-0.17450831830501556,0.8494981527328491
1772459238695052300,7.93605224609375,0.11245574802160263,-0.1607714742422104,0.774195671081543
1772459238705049600,7.946049560546875,0.0521463043987751,-0.15174514055252075,0.6940487027168274
1772459238715046400,7.95604638671875,-0.005005663726478815,-0.09798284620046616,0.6147344708442688
1772459238725043500,7.96604345703125,-0.03786533325910568,-0.02231995202600956,0.5558913946151733
1772459238735041300,7.976041259765625,-0.048710793256759644,0.07202731817960739,0.5000782608985901
1772459238745038600,7.98603857421875,-0.06322594732046127,0.16526862978935242,0.43903154134750366
1772459238755035400,7.996035400390625,-0.08728521317243576,0.2564462125301361,0.3708857595920563
1772459238765032400,8.006032470703126,-0.09735899418592453,0.3578484058380127,0.3039528727531433
1772459238775029500,8.016029541015625,-0.08486104756593704,0.44527384638786316,0.22717073559761047
1772459238785026300,8.0260263671875,-0.04883643239736557,0.5400241613388062,0.14373107254505157
1772459238795024400,8.0360244140625,-0.009193683043122292,0.6503991484642029,0.06340374052524567
1772459238805021400,8.046021484375,0.028068017214536667,0.7331795692443848,-0.04366477206349373
1772459238815018500,8.0560185546875,0.053378697484731674,0.7803894281387329,-0.16513794660568237
1772459238825015300,8.066015380859374,0.0654498040676117,0.8015934824943542,-0.2967880964279175
1772459238835012400,8.076012451171875,0.0924590453505516,0.7847710847854614,-0.4103301167488098
1772459238845010400,8.086010498046875,0.13119520246982574,0.7263161540031433,-0.5180906057357788
1772459238855007500,8.096007568359376,0.17479461431503296,0.6380571126937866,-0.6006829738616943
1772459238865004500,8.106004638671875,0.21548551321029663,0.5533044338226318,-0.6446539759635925
1772459238875001300,8.11600146484375,0.2818048894405365,0.4836348295211792,-0.6409665942192078
1772459238884998400,8.125998291015625,0.35418954491615295,0.421215683221817,-0.5920290350914001
1772459238894996500,8.13599658203125,0.4274701476097107,0.3462604880332947,-0.5222176909446716
1772459238904993500,8.14599365234375,0.4844869375228882,0.24840275943279266,-0.4497888386249542
1772459238914990300,8.155990234375,0.5154895782470703,0.14040571451187134,-0.3765500485897064
1772459238924987400,8.1659873046875,0.5162365436553955,0.055826760828495026,-0.30700087547302246
1772459238934984400,8.175984375,0.5162437558174133,-0.0040277838706970215,-0.23633256554603577
1772459238944981200,8.185981201171876,0.49391573667526245,-0.03227546811103821,-0.18240493535995483
1772459238954979300,8.195979248046875,0.4647621214389801,-0.0309622623026371,-0.15358340740203857
1772459238964976400,8.205976318359374,0.41832399368286133,-0.02149464748799801,-0.14337489008903503
1772459238974973400,8.215973388671875,0.36829572916030884,0.0039902059361338615,-0.14940375089645386
1772459238984970200,8.22597021484375,0.3229992687702179,0.059551700949668884,-0.15854525566101074
1772459238994967600,8.235967529296875,0.29858100414276123,0.10307787358760834,-0.18105535209178925
1772459239004965600,8.245965576171875,0.30053356289863586,0.13063788414001465,-0.2114417552947998
1772459239014962400,8.25596240234375,0.3151324689388275,0.15064941346645355,-0.24420875310897827
1772459239024959200,8.265959228515625,0.3394676446914673,0.17296412587165833,-0.2716236710548401
1772459239034956500,8.27595654296875,0.3647322654724121,0.1868855357170105,-0.2939817011356354
1772459239044953300,8.285953369140625,0.38714301586151123,0.21364666521549225,-0.30449238419532776
1772459239054950400,8.295950439453126,0.39843055605888367,0.2526968717575073,-0.30412378907203674
1772459239064948200,8.3059482421875,0.4050794541835785,0.2825562059879303,-0.3025522530078888
1772459239074945500,8.315945556640624,0.4128636121749878,0.30228331685066223,-0.29618382453918457
1772459239084942300,8.3259423828125,0.40975406765937805,0.3131178617477417,-0.2755858898162842
1772459239094939400,8.335939453125,0.4062245786190033,0.3254448473453522,-0.25363773107528687
1772459239104936400,8.3459365234375,0.39447587728500366,0.3183518946170807,-0.23303340375423431
1772459239114934500,8.3559345703125,0.37660473585128784,0.3101498782634735,-0.2012256681919098
1772459239124931300,8.365931396484376,0.3618776500225067,0.3128587305545807,-0.16253399848937988
1772459239134928400,8.375928466796875,0.35766878724098206,0.32175636291503906,-0.10676980018615723
1772459239144925400,8.385925537109374,0.36048752069473267,0.3361664414405823,-0.04118393361568451
1772459239154922500,8.395922607421875,0.36125797033309937,0.3485240340232849,0.027962112799286842
1772459239164920300,8.40592041015625,0.36017274856567383,0.3626622259616852,0.10088558495044708
1772459239174917400,8.41591748046875,0.3516860604286194,0.38130301237106323,0.17188706994056702
1772459239184914400,8.42591455078125,0.33644676208496094,0.4085479974746704,0.23408736288547516
1772459239194911500,8.435911376953126,0.32151681184768677,0.44071337580680847,0.27142277359962463
1772459239204908300,8.445908203125,0.3179587721824646,0.4727638363838196,0.2849732041358948
1772459239214905600,8.455905517578126,0.3464958667755127,0.5031539797782898,0.2906622588634491
1772459239224903400,8.4659033203125,0.4152795970439911,0.5391340255737305,0.2861384451389313
1772459239234900500,8.475900390625,0.5174810886383057,0.5588462352752686,0.28366944193840027
1772459239244897300,8.485897216796875,0.6348745822906494,0.5279534459114075,0.2671325206756592
1772459239254894600,8.49589453125,0.7468692660331726,0.4687969386577606,0.24197283387184143
1772459239264891400,8.505891357421875,0.8522538542747498,0.39265552163124084,0.21456049382686615
1772459239274889500,8.515889404296875,0.9506957530975342,0.32646557688713074,0.2065552920103073
1772459239284886300,8.52588623046875,1.0247642993927002,0.28046274185180664,0.21448519825935364
1772459239294883600,8.535883544921875,1.0560343265533447,0.26841726899147034,0.2353915423154831
1772459239304880400,8.54588037109375,1.0343372821807861,0.2937961518764496,0.25350823998451233
1772459239314877400,8.55587744140625,0.9604201912879944,0.325559139251709,0.2533622980117798
1772459239324875300,8.565875244140624,0.8618563413619995,0.36692380905151367,0.23839952051639557
1772459239334872600,8.57587255859375,0.7548643946647644,0.4062320590019226,0.2061299979686737
1772459239344869400,8.585869384765624,0.6582478284835815,0.4370857775211334,0.15061688423156738
1772459239354866400,8.595866455078125,0.5857040882110596,0.42711570858955383,0.0711580216884613
1772459239364863500,8.605863525390625,0.5516798496246338,0.3779316842556,-0.022883445024490356
1772459239374861600,8.615861572265626,0.5553637742996216,0.3324723243713379,-0.10269945114850998
1772459239384858400,8.6258583984375,0.5801485180854797,0.3176736831665039,-0.15750479698181152
1772459239394855400,8.63585546875,0.6095495820045471,0.33656322956085205,-0.18502217531204224
1772459239404852500,8.6458525390625,0.644275963306427,0.3565762937068939,-0.18810579180717468
1772459239414849500,8.655849609375,0.6924333572387695,0.384027361869812,-0.16960960626602173
1772459239424846300,8.665846435546875,0.751953661441803,0.4208357334136963,-0.13335566222667694
1772459239434844400,8.675844482421875,0.8077367544174194,0.4486236870288849,-0.08865822851657867
1772459239444841500,8.685841552734376,0.8647940158843994,0.503085196018219,-0.034137655049562454
1772459239454838500,8.695838623046875,0.924072802066803,0.5910832285881042,0.0317675955593586
1772459239464835300,8.70583544921875,0.9887286424636841,0.6681959629058838,0.09525275230407715
1772459239474832600,8.71583251953125,1.0494438409805298,0.7089146375656128,0.1420612633228302
1772459239484830500,8.72583056640625,1.0945051908493042,0.7116433382034302,0.1662580668926239
1772459239494827500,8.73582763671875,1.1277062892913818,0.6924834847450256,0.1651296764612198
1772459239504824300,8.74582421875,1.146992564201355,0.6576904058456421,0.13565678894519806
1772459239514821600,8.755821533203125,1.1576334238052368,0.6106017231941223,0.08161378651857376
1772459239524818400,8.765818359375,1.160361886024475,0.5705731511116028,0.006439541466534138
1772459239534812200,8.775812255859375,1.1676565408706665,0.5438443422317505,-0.06749726831912994
1772459239544809200,8.785809326171876,1.1712292432785034,0.5059129595756531,-0.13957327604293823
1772459239554806300,8.79580615234375,1.167378544807434,0.4376079738140106,-0.2089339792728424
1772459239564803000,8.805802978515626,1.146050214767456,0.3374454081058502,-0.2782101333141327
1772459239574800100,8.815800048828125,1.0879075527191162,0.20829832553863525,-0.3677719831466675
1772459239584797200,8.825797119140624,1.0034582614898682,0.04475612938404083,-0.48448875546455383
1772459239594795300,8.835795166015625,0.9262998104095459,-0.10051264613866806,-0.5974568724632263
1772459239604792000,8.8457919921875,0.8644895553588867,-0.20093239843845367,-0.6851323246955872
1772459239614789000,8.8557890625,0.7999430298805237,-0.2341630607843399,-0.7515017986297607
1772459239624786200,8.8657861328125,0.7215114235877991,-0.196902796626091,-0.7938007116317749
1772459239634783200,8.875783203125,0.6643429398536682,-0.10313581675291061,-0.7964356541633606
1772459239644781000,8.885781005859375,0.6674923300743103,0.04182130843400955,-0.7504755854606628
1772459239654778400,8.8957783203125,0.7078344225883484,0.20878233015537262,-0.672907292842865
1772459239664775200,8.905775146484375,0.7861905097961426,0.38152772188186646,-0.5714597105979919
1772459239674772200,8.915772216796874,0.8972704410552979,0.5436428785324097,-0.46625199913978577
1772459239684769300,8.925769287109375,1.0110985040664673,0.670599102973938,-0.37508276104927063
1772459239694767400,8.935767333984375,1.0917067527770996,0.7361226677894592,-0.33243781328201294
1772459239704764200,8.94576416015625,1.1372333765029907,0.7415005564689636,-0.32343992590904236
1772459239714761200,8.95576123046875,1.1584172248840332,0.7367830276489258,-0.32878702878952026
1772459239724758300,8.96575830078125,1.1610509157180786,0.7350133657455444,-0.3427574932575226
1772459239734755300,8.97575537109375,1.1368275880813599,0.6883164644241333,-0.35943475365638733
1772459239744753200,8.985753173828124,1.0954207181930542,0.6200622320175171,-0.36512789130210876
1772459239754750200,8.995750244140625,1.0390446186065674,0.539145827293396,-0.36474066972732544
1772459239764747300,9.005747314453124,0.9607966542243958,0.4498523771762848,-0.35532596707344055
1772459239774744300,9.015744384765625,0.8772152066230774,0.37181270122528076,-0.3301551043987274
1772459239784741000,9.0257412109375,0.8113434314727783,0.30168548226356506,-0.2916296124458313
1772459239794738200,9.03573828125,0.7681986689567566,0.23681539297103882,-0.2510520815849304
1772459239804736300,9.045736328125,0.7342989444732666,0.1786370575428009,-0.2077491581439972
1772459239814733300,9.0557333984375,0.7120929956436157,0.12585240602493286,-0.165732741355896
1772459239824730000,9.065730224609375,0.6924530863761902,0.0716453343629837,-0.11702949553728104
1772459239834727200,9.07572705078125,0.6696487069129944,0.008464500308036804,-0.07368654757738113
1772459239844724200,9.08572412109375,0.6504703760147095,-0.05753570795059204,-0.027407540008425713
1772459239854722300,9.095722412109374,0.6346826553344727,-0.11544322222471237,0.024628229439258575
1772459239864719000,9.105718994140625,0.6204459071159363,-0.17998403310775757,0.06688384711742401
1772459239874716200,9.115716064453125,0.6115884780883789,-0.24064499139785767,0.0897340327501297
1772459239884713200,9.125713134765626,0.5910471081733704,-0.2890967130661011,0.1007285788655281
1772459239894710000,9.1357099609375,0.5628724694252014,-0.3349829614162445,0.09714343398809433
1772459239904708000,9.1457080078125,0.5271983742713928,-0.363957017660141,0.09470321983098984
1772459239914705200,9.155705078125,0.500202476978302,-0.38061535358428955,0.09784601628780365
1772459239924702200,9.1657021484375,0.4767519533634186,-0.3767181634902954,0.11301906406879425
1772459239934699000,9.175698974609375,0.46352189779281616,-0.3382892906665802,0.14611203968524933
1772459239944696000,9.185696044921874,0.47808364033699036,-0.25840869545936584,0.1917407512664795
1772459239954694100,9.195694091796875,0.5272628664970398,-0.18640561401844025,0.25603052973747253
1772459239964691200,9.205691162109375,0.5602608919143677,-0.17450590431690216,0.3043220639228821
1772459239974688300,9.215688232421876,0.531843364238739,-0.19644609093666077,0.306865394115448
1772459239984685000,9.22568505859375,0.478992760181427,-0.2023514360189438,0.29203000664711
1772459239994682000,9.23568212890625,0.4352801740169525,-0.19920304417610168,0.264870822429657
1772459240004680200,9.24568017578125,0.41024428606033325,-0.18692904710769653,0.23241646587848663
1772459240014677200,9.25567724609375,0.3810453712940216,-0.17864474654197693,0.1865304708480835
1772459240024674300,9.26567431640625,0.3344744145870209,-0.1774560958147049,0.12087346613407135
1772459240034671000,9.275671142578124,0.2766207158565521,-0.17297878861427307,0.05178067833185196
1772459240044668200,9.285668212890625,0.236151322722435,-0.13332679867744446,0.002369518857449293
1772459240054665200,9.295665283203125,0.23304180800914764,-0.07192177325487137,-0.018195677548646927
1772459240064663300,9.305663330078126,0.25508126616477966,-0.020999088883399963,-0.03217025846242905
1772459240074660000,9.31566015625,0.28614917397499084,0.007089270278811455,-0.037353307008743286
1772459240084657200,9.3256572265625,0.3205052316188812,0.03082844242453575,-0.02908542938530445
1772459240094654200,9.335654296875,0.3524860739707947,0.03335152193903923,-0.0026290547102689743
1772459240104651300,9.3456513671875,0.3650713562965393,-0.0032367638777941465,0.0422297902405262
1772459240114648000,9.35564794921875,0.3343779146671295,-0.05975117161870003,0.10662209987640381
1772459240124645000,9.36564501953125,0.26601964235305786,-0.12332688271999359,0.18823450803756714
1772459240134642200,9.37564208984375,0.16834129393100739,-0.20360441505908966,0.2684531807899475
1772459240144639200,9.38563916015625,0.0723014622926712,-0.258876234292984,0.3663192391395569
1772459240154637000,9.395636962890626,-0.011959090828895569,-0.2669703960418701,0.4871063828468323
1772459240164634000,9.405634033203125,-0.06720496714115143,-0.25137564539909363,0.6107473969459534
1772459240174631200,9.415631103515626,-0.10456352680921555,-0.22884076833724976,0.7225980758666992
1772459240184628200,9.425628173828125,-0.12312589585781097,-0.20197927951812744,0.8175284266471863
1772459240194625000,9.435625,-0.12699972093105316,-0.16360074281692505,0.8637737035751343
1772459240204623000,9.445623046875,-0.11974655836820602,-0.12308564782142639,0.8641733527183533
1772459240214620200,9.4556201171875,-0.10880416631698608,-0.08239946514368057,0.813822329044342
1772459240224617200,9.4656171875,-0.10099734365940094,-0.05001383274793625,0.719974935054779
1772459240234614000,9.475614013671875,-0.09707982838153839,-0.02443789690732956,0.6020714640617371
1772459240244611300,9.485611328125,-0.10393701493740082,-0.009160826914012432,0.46806710958480835
1772459240254609200,9.495609130859375,-0.11849412322044373,0.017023107036948204,0.3255549669265747
1772459240264606200,9.505606201171876,-0.13921914994716644,0.06156617030501366,0.19416536390781403
1772459240274603000,9.51560302734375,-0.15345615148544312,0.11624806374311447,0.06538927555084229
1772459240284600300,9.525600341796874,-0.15829013288021088,0.16132432222366333,-0.058846816420555115
1772459240294597000,9.53559716796875,-0.15418566763401031,0.19259221851825714,-0.18353627622127533
1772459240304595200,9.54559521484375,-0.13964377343654633,0.2033601701259613,-0.2967562675476074
1772459240314592000,9.555592041015625,-0.12200139462947845,0.17943167686462402,-0.3992863595485687
1772459240324589300,9.56558935546875,-0.09868834912776947,0.13355481624603271,-0.4796954095363617
1772459240334586000,9.575586181640626,-0.06736104190349579,0.10066264867782593,-0.5283989906311035
1772459240344583200,9.585583251953125,-0.023955756798386574,0.08617682754993439,-0.5464436411857605
1772459240354580200,9.595580322265626,0.030730390921235085,0.083552286028862,-0.5273770093917847
1772459240364578300,9.605578369140625,0.08751850575208664,0.08260351419448853,-0.4957651197910309
1772459240374575000,9.6155751953125,0.1390163153409958,0.09231206774711609,-0.458443820476532
1772459240384572200,9.625572265625,0.18861056864261627,0.10395228117704391,-0.4241523742675781
1772459240394569200,9.6355693359375,0.23171807825565338,0.09033047407865524,-0.4072447717189789
1772459240404566300,9.645566162109375,0.26016882061958313,0.08689635246992111,-0.38820526003837585
1772459240414564000,9.655564208984375,0.2691090404987335,0.07929755002260208,-0.3690379559993744
1772459240424561200,9.66556103515625,0.25423291325569153,0.06477782130241394,-0.3526790738105774
1772459240434558200,9.67555810546875,0.23270578682422638,0.04899965971708298,-0.3351488411426544
1772459240444555300,9.68555517578125,0.19643619656562805,0.03368568420410156,-0.32445383071899414
1772459240454552000,9.695552001953125,0.16178691387176514,0.027608763426542282,-0.32278868556022644
1772459240464550100,9.705550048828124,0.12951743602752686,0.0275360606610775,-0.3221375048160553
1772459240474547200,9.715547119140625,0.1015867292881012,0.03980817273259163,-0.32588884234428406
1772459240484544300,9.725544189453124,0.08172311633825302,0.07044593244791031,-0.3267289102077484
1772459240494541000,9.735541015625,0.059229522943496704,0.10702391713857651,-0.3300298750400543
1772459240504538000,9.7455380859375,0.038943104445934296,0.14136070013046265,-0.3319494426250458
1772459240514536200,9.7555361328125,0.017388813197612762,0.1537231057882309,-0.3298463523387909
1772459240524533200,9.765533203125,-0.009107040241360664,0.13387902081012726,-0.3344142436981201
1772459240534530000,9.775530029296876,-0.04516597464680672,0.09757746756076813,-0.3295217454433441
1772459240544528000,9.78552783203125,-0.08280681818723679,0.07455452531576157,-0.30571889877319336
1772459240554524700,9.795524658203124,-0.10592998564243317,0.054762184619903564,-0.26468491554260254
1772459240564521700,9.805521728515625,-0.12110959738492966,0.037483371794223785,-0.21343757212162018
1772459240574519600,9.81551953125,-0.13643023371696472,0.030203089118003845,-0.14387394487857819
1772459240584516900,9.825516845703126,-0.14787909388542175,0.04853342846035957,-0.054525382816791534
1772459240594513700,9.835513671875,-0.15065278112888336,0.08809974044561386,0.06607560068368912
1772459240604510700,9.8455107421875,-0.15281467139720917,0.1389969140291214,0.19685819745063782
1772459240614507800,9.8555078125,-0.15898574888706207,0.19430090487003326,0.32473254203796387
1772459240624505900,9.865505859375,-0.17069679498672485,0.23894695937633514,0.42898640036582947
1772459240634502700,9.875502685546875,-0.19165055453777313,0.278903990983963,0.5043216347694397
1772459240644499700,9.885499755859374,-0.19873738288879395,0.3200501799583435,0.5519985556602478
1772459240654496800,9.895496826171875,-0.1882951259613037,0.3755131661891937,0.5959396958351135
1772459240664493800,9.905493896484375,-0.15257686376571655,0.41657888889312744,0.6249215602874756
1772459240674491600,9.91549169921875,-0.13162417709827423,0.41033244132995605,0.6246048808097839
1772459240684488700,9.92548876953125,-0.13257403671741486,0.3763934373855591,0.5887299180030823
1772459240694485800,9.93548583984375,-0.14086712896823883,0.3268703818321228,0.5354483127593994
1772459240704482800,9.94548291015625,-0.14240744709968567,0.2717627286911011,0.4775453209877014
1772459240714479600,9.955479736328124,-0.11477342247962952,0.24053847789764404,0.4424158036708832
1772459240724477700,9.965477783203125,-0.07111330330371857,0.22753684222698212,0.43868547677993774
1772459240734474800,9.975474853515625,-0.02431410178542137,0.2137286216020584,0.4419046938419342
1772459240744471800,9.985471923828126,0.022190166637301445,0.19814971089363098,0.44934770464897156
1772459240754469600,9.9954697265625,0.060333024710416794,0.17039531469345093,0.445280522108078
1772459240764466700,10.005466796875,0.08740731328725815,0.13037437200546265,0.4234529733657837
1772459240774463700,10.015463623046875,0.10461239516735077,0.08659838885068893,0.3750377893447876
1772459240784460800,10.025460693359374,0.08836756646633148,0.04785243421792984,0.30144059658050537
1772459240794457600,10.03545751953125,0.05157332867383957,0.005694326478987932,0.204147607088089
1772459240804455700,10.04545556640625,0.012901424430310726,-0.040738292038440704,0.11009655892848969
1772459240814452700,10.05545263671875,-0.00963770691305399,-0.04925108700990677,0.05451159551739693
1772459240824449800,10.06544970703125,-0.0004544969415292144,-0.014816338196396828,0.028390510007739067
1772459240834446600,10.075446533203126,0.02481277473270893,0.04632717743515968,0.02900569885969162
1772459240844444000,10.08544384765625,0.06655913591384888,0.12396222352981567,0.04298075661063194
1772459240854441700,10.095441650390624,0.1277383416891098,0.2224336713552475,0.07667666673660278
1772459240864438800,10.105438720703125,0.2108357846736908,0.3252906799316406,0.1192779541015625
1772459240874435600,10.115435546875,0.2828836143016815,0.4045490026473999,0.15249663591384888
1772459240884433000,10.125432861328125,0.33752599358558655,0.45008954405784607,0.18371154367923737
1772459240894429700,10.1354296875,0.37615540623664856,0.4345073699951172,0.20136085152626038
1772459240904427800,10.145427734375,0.40783417224884033,0.39422300457954407,0.20990939438343048
1772459240914424600,10.155424560546875,0.4324876070022583,0.3476634919643402,0.22276154160499573
1772459240924422000,10.165421875,0.4566144645214081,0.327186644077301,0.23548245429992676
1772459240934418700,10.175418701171875,0.4764861464500427,0.2838223874568939,0.23908518254756927
1772459240944415700,10.185415771484376,0.492118239402771,0.21405383944511414,0.2370838075876236
1772459240954412800,10.195412841796875,0.5106083154678345,0.11503510922193527,0.23825931549072266
1772459240964411000,10.205410888671874,0.5101062655448914,0.007073692977428436,0.2392318695783615
1772459240974407700,10.21540771484375,0.5028401017189026,-0.11499974876642227,0.2397834062576294
1772459240984404700,10.22540478515625,0.4800221920013428,-0.23665812611579895,0.23508433997631073
1772459240994401800,10.23540185546875,0.4308575689792633,-0.3222092390060425,0.20632006227970123
1772459241004398800,10.24539892578125,0.35824593901634216,-0.3700556755065918,0.1530180424451828
1772459241014396700,10.255396728515626,0.28283241391181946,-0.39105868339538574,0.07282732427120209
1772459241024393700,10.265393798828125,0.21679674088954926,-0.3855578899383545,-0.02332526631653309
1772459241034390800,10.275390869140624,0.18761834502220154,-0.3466954231262207,-0.11115125566720963
1772459241044387800,10.285387939453125,0.19683009386062622,-0.27050110697746277,-0.18027180433273315
1772459241054384600,10.295384521484374,0.2310013771057129,-0.18010491132736206,-0.227168470621109
1772459241064382700,10.3053828125,0.2792094647884369,-0.08317944407463074,-0.2568419277667999
1772459241074379800,10.3153798828125,0.34619140625,0.0438365675508976,-0.25702035427093506
1772459241084376800,10.325376953125,0.4408053755760193,0.18344084918498993,-0.2335227131843567
1772459241094373600,10.33537353515625,0.5251979827880859,0.2942112982273102,-0.2107287049293518
1772459241104371000,10.345370849609376,0.5892307162284851,0.3506152331829071,-0.19204142689704895
1772459241114367700,10.35536767578125,0.6245841383934021,0.3725426495075226,-0.18801526725292206
1772459241124365800,10.36536572265625,0.6425158381462097,0.35770073533058167,-0.17764855921268463
1772459241134362600,10.375362548828125,0.6540824770927429,0.32407405972480774,-0.16747795045375824
1772459241144360000,10.38535986328125,0.6371641755104065,0.2576367259025574,-0.16426990926265717
1772459241154356700,10.395356689453125,0.5968375205993652,0.19968819618225098,-0.16021046042442322
1772459241164353500,10.405353515625,0.5537063479423523,0.14974838495254517,-0.1404818296432495
1772459241174351600,10.4153515625,0.5243924260139465,0.10532180964946747,-0.11228640377521515
1772459241184349000,10.425348876953125,0.5042087435722351,0.06614521890878677,-0.08635011315345764
1772459241194345700,10.435345703125,0.4903518557548523,0.04496324062347412,-0.06496599316596985
1772459241204342500,10.445342529296875,0.46889448165893555,0.030042612925171852,-0.04485885426402092
1772459241214339800,10.45533984375,0.43821433186531067,0.014877774752676487,-0.0383431650698185
1772459241224338000,10.465337890625,0.4014938771724701,0.0067015141248703,-0.024900363758206367
1772459241234334700,10.475334716796874,0.35302433371543884,-0.008396744728088379,-0.013027992099523544
1772459241244331500,10.48533154296875,0.3050658702850342,-0.025171197950839996,-0.0012019595596939325
1772459241254328800,10.495328857421875,0.2821320593357086,-0.028275111690163612,0.011913576163351536
1772459241264325600,10.50532568359375,0.2713207006454468,-0.03554101288318634,0.02413056045770645
1772459241274322700,10.51532275390625,0.2728884816169739,-0.04505062848329544,0.02304931730031967
1772459241284320800,10.52532080078125,0.2773452401161194,-0.059146009385585785,0.005820325575768948
1772459241294317800,10.53531787109375,0.2762354910373688,-0.06760181486606598,-0.0255527775734663
1772459241304314600,10.545314697265624,0.27596762776374817,-0.06839989125728607,-0.060573406517505646
1772459241314311700,10.555311767578125,0.27712398767471313,-0.06371459364891052,-0.09677961468696594
1772459241324308700,10.565308837890624,0.2724637985229492,-0.0565752238035202,-0.12400826811790466
1772459241334306800,10.575306884765626,0.2611698508262634,-0.03322409465909004,-0.13588809967041016
1772459241344303600,10.5853037109375,0.25658777356147766,0.014191677793860435,-0.12326741963624954
1772459241354300700,10.59530078125,0.273000568151474,0.08834100514650345,-0.08834085613489151
1772459241364297700,10.605297607421875,0.31754571199417114,0.13272370398044586,-0.022872943431138992
1772459241374294800,10.615294677734376,0.3597882390022278,0.10769558697938919,0.04496762529015541
1772459241384292600,10.625292724609375,0.3829929530620575,0.048266779631376266,0.09331133961677551
1772459241394289700,10.63528955078125,0.3913606107234955,-0.021303510293364525,0.12239918112754822
1772459241404286700,10.64528662109375,0.3961060643196106,-0.0778479352593422,0.13202179968357086
1772459241414283800,10.65528369140625,0.4052598774433136,-0.09706930071115494,0.13331902027130127
1772459241424280600,10.665280517578125,0.4040447771549225,-0.08626007288694382,0.12791207432746887
1772459241434278000,10.67527783203125,0.3899902105331421,-0.05407204106450081,0.11406043916940689
1772459241444275700,10.685275634765626,0.3772541582584381,0.01566309481859207,0.10887499898672104
1772459241454272800,10.695272705078125,0.3874809741973877,0.11593137681484222,0.11406789720058441
1772459241464269600,10.70526953125,0.41280150413513184,0.21433402597904205,0.12578096985816956
1772459241474267000,10.715266845703125,0.44767507910728455,0.26163017749786377,0.13538086414337158
1772459241484263700,10.725263671875,0.46153631806373596,0.31549081206321716,0.13274872303009033
1772459241494261800,10.73526171875,0.47510647773742676,0.3219735026359558,0.15306039154529572
1772459241504258600,10.745258544921874,0.47082433104515076,0.2598837614059448,0.17523165047168732
1772459241514256000,10.755255859375,0.4378698468208313,0.16226185858249664,0.2144419103860855
1772459241524252700,10.765252685546875,0.3666698932647705,0.07514428347349167,0.2928139865398407
1772459241534249700,10.775249755859376,0.23782402276992798,-0.04993719607591629,0.3633355498313904
1772459241544246800,10.785246826171875,0.12502892315387726,-0.14036861062049866,0.433939129114151
1772459241554243600,10.79524365234375,0.04225175082683563,-0.16571924090385437,0.4984869658946991
1772459241564240600,10.80524072265625,-0.04021437093615532,-0.14295010268688202,0.5489565134048462
1772459241574237700,10.81523779296875,-0.09956690669059753,-0.056323591619729996,0.5968635678291321
1772459241584234800,10.82523486328125,-0.12244554609060287,0.05569550767540932,0.6119769811630249
1772459241594231600,10.8352314453125,-0.08770433813333511,0.13857121765613556,0.5866609811782837
1772459241604229600,10.845229736328125,-0.012191884219646454,0.1845066100358963,0.5167455673217773
1772459241614226700,10.855226806640625,0.0798104777932167,0.24281466007232666,0.4250268340110779
1772459241624223700,10.8652236328125,0.15604795515537262,0.2742719352245331,0.3138273060321808
1772459241634220500,10.875220458984375,0.1979522705078125,0.2671644985675812,0.17836429178714752
