time,seconds_elapsed,z,y,x
1772025728538859000,0.06485888671875,-0.06681611268818378,-0.580490734474361,-0.452630881954357
1772025728548856300,0.074856201171875,-0.14451134678721428,-0.6152297471612691,-0.43963820245563984
1772025728558853000,0.08485302734375,-0.1419786134392023,-0.5431517684221268,-0.4734581275362521
1772025728568851200,0.094851318359375,-0.08794950160980224,-0.44921471683532,-0.5631155290424823
1772025728578848000,0.104847900390625,-0.09737900873422622,-0.4338356536567211,-0.6254911019999534
1772025728588846000,0.11484619140625,-0.24976444989740848,-0.4570519863322377,-0.5586047005545347
1772025728598843100,0.124843017578125,-0.4816647418022155,-0.45174072818160055,-0.4987953248232603
1772025728608841200,0.13484130859375,-0.5663935277998448,-0.3897624109134078,-0.5138615226604044
1772025728618838000,0.144838134765625,-0.5232692563444375,-0.3129623720884323,-0.6281596636220812
1772025728628835300,0.15483544921875,-0.44304654959440226,-0.23081688058227298,-0.7732895076338201
1772025728638833200,0.164833251953125,-0.4079892647385597,-0.14308131398409604,-0.8352944206479936
1772025728648830200,0.174830322265625,-0.4744137477606535,-0.09101882605254649,-0.7727404223836958
1772025728658827000,0.184826904296875,-0.595453618067503,-0.18709873488694428,-0.5469758567549288
1772025728668825000,0.1948251953125,-0.6945330009788274,-0.39476387246251105,-0.37925438783727583
1772025728678822100,0.204822265625,-0.8134235842972993,-0.378529069237411,-0.3889630772292614
1772025728688820200,0.2148203125,-0.7605927423417568,-0.1329135557129979,-0.43566001953966915
1772025728698817300,0.2248173828125,-0.5781178678631782,-0.09923018955886363,-0.45007060301229357
1772025728708814000,0.23481396484375,-0.5434405222356319,-0.3431505896031856,-0.3714708212889731
1772025728718812200,0.244812255859375,-0.7133639581769704,-0.5042936299785972,-0.17414682579003274
1772025728728809200,0.254809326171875,-0.8312889113336801,-0.4431877116307616,-0.02769201678484678
1772025728738807300,0.264807373046875,-0.7647796726375817,-0.31077158404588695,0.05226933561526238
1772025728748804000,0.27480419921875,-0.5848854623019695,-0.2905386510953307,0.11193287313506006
1772025728758801200,0.28480126953125,-0.46540334283113477,-0.3462102694347501,0.17861198850534854
1772025728768799000,0.294799072265625,-0.46541327970325946,-0.39993718344718215,0.3056402855720371
1772025728778796300,0.30479638671875,-0.4683037404477596,-0.3809112881988287,0.39272169911041854
1772025728788794000,0.314794189453125,-0.3672890055596828,-0.32701223248988387,0.40642990646734833
1772025728798791200,0.324791259765625,-0.23676234498322007,-0.29241642766594883,0.4109473108265549
1772025728808788000,0.3347880859375,-0.16074293514192103,-0.24447569583952425,0.4711768116660416
1772025728818786000,0.3447861328125,-0.17351766104102134,-0.2194511446982622,0.5456023764446377
1772025728828783400,0.354783447265625,-0.16518354793787002,-0.16099895572960377,0.6630388154320418
1772025728838781200,0.36478125,-0.11831073760390282,-0.05832739354521036,0.7657851233530789
1772025728848778200,0.3747783203125,-0.03487432950437069,0.04722352346777916,0.8203654393244534
1772025728858775000,0.384775146484375,0.019597265395522118,0.1408931562900543,0.7986119457431137
1772025728868773000,0.394773193359375,0.17203648257255552,0.24315789123922585,0.6966090035352855
1772025728878770200,0.404770263671875,0.4058282873123884,0.4054609153047204,0.6548818855267018
1772025728888768300,0.414768310546875,0.5284633178561926,0.5947042610049248,0.6540939500194043
1772025728898765000,0.42476513671875,0.5980249298602343,0.7568211148485541,0.6060147595703601
1772025728908762000,0.43476220703125,0.7596680287122726,0.8591603763386607,0.5379886865705251
1772025728918760000,0.444760009765625,0.9791390471547842,0.9276406228467822,0.48137467281445856
1772025728928757200,0.45475732421875,1.1504331869274378,0.9487965158611535,0.48292570164874193
1772025728938755300,0.46475537109375,1.3165350187540052,0.8957850566416978,0.5471697718918324
1772025728948752100,0.474752197265625,1.482107273748517,0.7918649557009338,0.6617602468635887
1772025728958749000,0.4847490234375,1.4718471610188484,0.7254062781482935,0.7883966950684785
1772025728968747300,0.494747314453125,1.3306336867332458,0.5644853560909628,0.9844416836075485
1772025728978744300,0.504744384765625,1.2700140905976294,0.41673254316449165,1.160796467770636
1772025728988742100,0.5147421875,1.29401572843194,0.26483137838691473,1.3236965809464454
1772025728998739200,0.5247392578125,1.2223036603957413,0.06774725605845451,1.39382620209679
1772025729008736300,0.534736328125,1.0938450382649898,-0.14444208094328642,1.4896671876087784
1772025729018734300,0.544734375,0.8787515042543411,-0.34788580143153663,1.5731515265032647
1772025729028731100,0.554731201171875,0.7279004330515861,-0.4705070957109332,1.7204159713909029
1772025729038729200,0.564729248046875,0.601039309245348,-0.45588791098892684,1.8712756642915307
1772025729048726000,0.57472607421875,0.3257897049576044,-0.34219285048693415,1.863985945674777
1772025729058723300,0.584723388671875,0.055450669065117836,-0.18430238216668365,1.8877555283188818
1772025729068721200,0.59472119140625,-0.04101414743363857,-0.052799862295389174,1.7138569051362573
1772025729078718200,0.60471826171875,-0.05442600219249725,0.05108049115687609,1.4096958252713083
1772025729088716300,0.61471630859375,-0.09249006764888763,0.12881459596157074,1.1592995072111487
1772025729098713000,0.624713134765625,-0.1518681392908096,0.20571546481251715,1.0448144653752445
1772025729108710100,0.634710205078125,-0.2027244663029909,0.26888416090905665,1.0235972706276923
1772025729118708200,0.644708251953125,-0.1111877538561821,0.30320903983712194,0.9968852778561412
1772025729128705300,0.654705322265625,0.09938216525018215,0.29749855323582886,0.9616699528943746
1772025729138703000,0.664703125,0.19395956056714056,0.283626387488842,0.9324518225207924
1772025729148700200,0.6747001953125,0.12449147206544875,0.21293840180337428,0.980679846855998
1772025729158697200,0.684697265625,0.08283727316260338,0.1021226961299777,1.0561103508934377
1772025729168695300,0.6946953125,0.1670622012913227,0.007931669782102108,1.0844912997905165
1772025729178692000,0.704692138671875,0.2853203319251537,-0.10219137745201587,1.1784906029585749
1772025729188689200,0.714689208984375,0.3167746238529682,-0.23985855743288992,1.2845654707804322
1772025729198687000,0.72468701171875,0.3010252660572529,-0.384183733998239,1.3475734233573078
1772025729208684300,0.734684326171875,0.24604981328845021,-0.48593730455487966,1.4050824862569569
1772025729218682000,0.74468212890625,0.18116028474867343,-0.528697418873012,1.4702191214255989
1772025729228679200,0.75467919921875,0.17662264131903646,-0.5147442968443036,1.45778181078732
1772025729238676000,0.764676025390625,0.19517595061957835,-0.4977984227403998,1.449172972396016
1772025729248674000,0.774674072265625,0.18802958599627018,-0.5141463309511543,1.3623016214117407
1772025729258671000,0.784671142578125,0.1699766274333,-0.5105094357535243,1.2093423258833587
1772025729268669200,0.794669189453125,0.12034370473623275,-0.47010786726027726,1.088138424121216
1772025729278666200,0.804666259765625,0.08689619316458702,-0.42884500576257706,0.9726153444744646
1772025729288663000,0.8146630859375,0.1468365748643875,-0.35963965985029933,0.8568837366435677
1772025729298661000,0.8246611328125,0.2242050612270832,-0.2821820338994264,0.7659489356126635
1772025729308658200,0.834658203125,0.13251111239194868,-0.2161465501949191,0.7108689264908432
1772025729318656300,0.84465625,-0.0362111310660839,-0.19848463677614925,0.6805658504247665
1772025729328653000,0.854653076171875,-0.13284779700040816,-0.1886947719067335,0.6826488672439008
1772025729338650000,0.864650146484375,-0.147546184438467,-0.16227145988345146,0.7242769087921828
1772025729348648200,0.874648193359375,-0.14452712887823582,-0.09783464354723691,0.8185694958183914
1772025729358645200,0.884645263671875,-0.2814870373725891,-0.0047553778335452076,0.9165326611161232
1772025729368643000,0.89464306640625,-0.4253384589463472,-0.008395487901568412,0.9670140173360705
1772025729378640100,0.90464013671875,-0.45536067224442955,-0.17451953155994415,1.005610801429674
1772025729388637200,0.91463720703125,-0.5086866042405367,-0.3998611956015229,1.0530322586223482
1772025729398635300,0.92463525390625,-0.682653762614727,-0.5667050779670476,1.1868084955792872
1772025729408632000,0.934632080078125,-0.9929676660209894,-0.6971443525210023,1.3191450551219284
1772025729418630100,0.944630126953125,-1.2754343620806932,-0.6123538994640112,1.1818716967642307
1772025729428627200,0.954627197265625,-1.3430723125457762,-0.31916736420840025,0.9774200413424521
1772025729438624300,0.964624267578125,-1.3654185843884945,-0.19358020586073396,0.7623666932117193
1772025729448619000,0.974618896484375,-1.535690395376086,-0.15789426771253345,0.4128649079509079
1772025729458616000,0.984615966796875,-1.634974360948801,0.053181847350299356,0.09092369511500001
1772025729468614000,0.99461376953125,-1.504680924606323,0.35738135952949523,-0.16184570875205098
1772025729478611000,1.00461083984375,-1.1600555862754582,0.5212450570404529,-0.34946744459979234
1772025729488608000,1.01460791015625,-0.8841934030473232,0.5829825512900948,-0.5665925209706649
1772025729498606000,1.024606201171875,-0.7607698524743318,0.5596940301612019,-0.6930668739490211
1772025729508603000,1.034602783203125,-0.6438344948768615,0.543082210317254,-0.7454340439155698
1772025729518601000,1.04460107421875,-0.7039420498371124,0.6123287650227547,-0.7098430905744433
1772025729528597800,1.05459765625,-0.8063280730783939,0.6578010609090328,-0.5883708201996982
1772025729538595000,1.064594970703125,-0.8682645970314741,0.6591966069206595,-0.5876119281237945
1772025729548593200,1.07459326171875,-0.8737602718383073,0.6823249690517783,-0.6370975878372788
1772025729558590000,1.08458984375,-0.7822475247889756,0.7287190559580922,-0.7211763854935764
1772025729568588000,1.094588134765625,-0.5528776281446218,0.8012962163910269,-0.8369512479443103
1772025729578584800,1.104584716796875,-0.3022966011673212,0.857175340001285,-0.9012244712166487
1772025729588582100,1.11458203125,-0.11142565426528453,0.9388567211270332,-0.9706205173954368
1772025729598580000,1.124580078125,0.05332768556177616,1.0997186064735054,-1.0307960230253637
1772025729608577000,1.134576904296875,0.2031172650128603,1.1813038337484,-1.068128851597756
1772025729618574800,1.144574951171875,0.24448972436487673,1.1184095706790684,-1.0973730662606656
1772025729628572000,1.154572021484375,0.2630693371504545,1.021400272040069,-1.1173742362819612
1772025729638569000,1.16456884765625,0.35091420934200285,0.9183499396711587,-1.1127738298144192
1772025729648567000,1.174567138671875,0.5202735816597939,0.7956129100576043,-1.119552749364823
1772025729658563800,1.184563720703125,0.5716939722955227,0.6801923409372568,-1.0533698200136423
1772025729668561000,1.194560791015625,0.4088789070546627,0.6260773043900728,-0.9549095919139683
1772025729678559000,1.20455908203125,0.27929741837382316,0.6069871117338538,-0.8491387485399842
1772025729688556000,1.21455615234375,0.3518225563585758,0.6190335233584046,-0.8236094627469778
1772025729698554000,1.22455419921875,0.4432359346866607,0.5990563187345862,-0.7736180820010602
1772025729708551000,1.234551025390625,0.40513212174177166,0.5537441818460822,-0.655949733953923
1772025729718548000,1.2445478515625,0.3388894250273704,0.512042928931117,-0.5483439302377402
1772025729728545800,1.2545458984375,0.3573439501285553,0.5112336583748459,-0.45828386621475214
1772025729738543000,1.264543212890625,0.5050695827871561,0.5162418419256806,-0.4068506526300683
1772025729748541000,1.274541015625,0.6845517051905393,0.48904608422517776,-0.3820281268669292
1772025729758538000,1.2845380859375,0.8054612271159887,0.4183753419354558,-0.33473373012002555
1772025729768534800,1.29453466796875,0.8356155423611402,0.28649697448909284,-0.25843170394506304
1772025729778532900,1.304532958984375,0.7771937485307454,0.10454963101595639,-0.14955693973898887
1772025729788530000,1.314530029296875,0.7576034973978996,-0.07032119819968938,-0.07359974494632333
1772025729798528000,1.324528076171875,0.7716594952791929,-0.209037302711606,-0.014716288420930503
1772025729808524800,1.33452490234375,0.6686123777806758,-0.3416352166041732,0.017034465702809393
1772025729818521900,1.34452197265625,0.5485276162415742,-0.46689328912794587,0.10811415509711951
1772025729828520000,1.35452001953125,0.4926023154020309,-0.5713561186432838,0.21887772872447966
1772025729838517000,1.36451708984375,0.5106044205605983,-0.6539578294843434,0.2991779211575165
1772025729848515000,1.37451513671875,0.427386623647809,-0.6703507458806037,0.32635022491719573
1772025729858512000,1.384511962890625,0.2975853547364473,-0.6403302861481904,0.31976679140627384
1772025729868509000,1.394509033203125,0.18783435568511486,-0.5761179262176156,0.28454463484492154
1772025729878507000,1.404507080078125,0.160761639842391,-0.4840530982434749,0.22131745002679526
1772025729888504000,1.414504150390625,0.11466916623115539,-0.35707039388418194,0.09440971059985458
1772025729898502000,1.424501953125,0.07367489254176617,-0.21650047819912432,-0.04289959585405886
1772025729908499000,1.4344990234375,0.10805822365880012,-0.10504209070801734,-0.2111495090926066
1772025729918496000,1.44449609375,0.12677519908845425,-0.02808949166983366,-0.3116130398387089
1772025729928494000,1.454494140625,0.09947802684009074,0.01109480998814106,-0.4222320173636079
1772025729938491000,1.464490966796875,0.057306526064872736,0.024591420421004293,-0.5043550047770142
1772025729948489000,1.474489013671875,0.017170915031433105,0.03186345725059509,-0.5734325595911592
1772025729958485800,1.48448583984375,0.006025251638889313,0.009448504085838794,-0.6079204470612108
1772025729968483000,1.494483154296875,0.12102291917204856,-0.06548603312820196,-0.6024175387959927
1772025729978481200,1.504481201171875,0.14209493329524994,-0.14489683897346256,-0.5746931541115046
1772025729988478000,1.51447802734375,0.07552490432262421,-0.21043343324512243,-0.5318938768267631
1772025729998476000,1.52447607421875,0.08437164312303065,-0.26298604278117416,-0.49189343648031353
1772025730008472800,1.534472900390625,0.09095219055712223,-0.33474458030760285,-0.44938992727175353
1772025730018470100,1.54447021484375,0.07222936990857123,-0.4397311414361,-0.4320131874699145
1772025730028468000,1.554468017578125,0.10046820692121981,-0.5082654562190175,-0.38649771002903577
1772025730038465000,1.564465087890625,0.03955693436264991,-0.5224044562086463,-0.3607411182861775
1772025730048461800,1.5744619140625,0.07107260108888148,-0.5095245163694023,-0.38851993657164274
1772025730058460000,1.5844599609375,0.23289397911727427,-0.5335805147394538,-0.41571386764124035
1772025730068457000,1.59445703125,0.28084523233771325,-0.5197276382148266,-0.47004715004898606
1772025730078455000,1.604455078125,0.19102642972469328,-0.519081449265778,-0.5478829616624862
1772025730088451800,1.614451904296875,0.16145663636922836,-0.5974763560667634,-0.4917590695109218
1772025730098449000,1.624448974609375,0.12150222712159156,-0.6268924201652407,-0.46686939679570494
1772025730108446700,1.63444677734375,0.11087211203575134,-0.6047405018508434,-0.49920675516836344
1772025730118444000,1.644444091796875,0.10681611464321612,-0.601757394386828,-0.5142127472508699
1772025730128442000,1.654442138671875,0.11308160477876662,-0.6139256788253784,-0.5407176000777631
1772025730138439000,1.66443896484375,0.17968085984587667,-0.6177490365058184,-0.5619705967910588
1772025730148435700,1.674435791015625,0.2238029101669788,-0.6102712479710578,-0.5834728920903056
1772025730158433800,1.684433837890625,0.1857014353096485,-0.5711532895475626,-0.5740482072714715
1772025730168431000,1.69443115234375,0.11326572917401789,-0.5059869898930192,-0.5283268319949508
1772025730178429000,1.704428955078125,0.09858721548020839,-0.4609758817777037,-0.5171808032762258
1772025730188426000,1.714426025390625,0.12856792772412298,-0.4424012374281883,-0.5517161831498145
1772025730198422800,1.7244228515625,0.10595219129025936,-0.40597850943803787,-0.6041859367080032
1772025730208420900,1.7344208984375,0.0967746131002903,-0.31809067488759757,-0.6527579521752893
1772025730218418000,1.74441796875,0.06206745685636997,-0.27489596854448317,-0.6782118346445262
1772025730228416000,1.754416015625,0.04176642710566521,-0.27437574406266213,-0.6755271256051957
1772025730238412800,1.764412841796875,0.025633622950315474,-0.32393092534840107,-0.6047373600456863
1772025730248410000,1.77441015625,-0.03175590522289276,-0.427054615214467,-0.5291495465546846
1772025730258408000,1.784407958984375,-0.12836042245328425,-0.6492369384422898,-0.3819651081006974
1772025730268405000,1.794405029296875,-0.24678923347890375,-0.9452247948542237,-0.2696298647098243
1772025730278401800,1.80440185546875,-0.40760757194459435,-0.9861027486875653,-0.2524686673548072
1772025730288400000,1.81439990234375,-0.47860009353458877,-0.8775567415118217,-0.27366255429200825
1772025730298397200,1.824397216796875,-0.5694084917068482,-0.8946756340950727,-0.22866328274495898
1772025730308395000,1.83439501953125,-0.7090437568902969,-1.0162214080974459,-0.20410043083131313
1772025730318392000,1.84439208984375,-0.7762783872514962,-1.0571092988029123,-0.18080065765604375
1772025730328388900,1.854388916015625,-0.8709218335419893,-0.9668991587847471,-0.12494294215999543
1772025730338387000,1.864386962890625,-1.0040449403524399,-0.820647398070991,-0.11581636350490151
1772025730348384000,1.874384033203125,-0.9906944603919983,-0.7240805825024843,-0.10390556095875798
1772025730358382000,1.884382080078125,-0.8649111949503421,-0.5999459610506892,-0.11854461942501365
1772025730368379000,1.89437890625,-0.7060194406330585,-0.42275048827975986,-0.1284222356431186
1772025730378376000,1.9043759765625,-0.6132558167397976,-0.2669856338113546,-0.11506532594189046
1772025730388373800,1.914373779296875,-0.5452975482791662,-0.1522486630409956,-0.022604849713668225
1772025730398371000,1.92437109375,-0.42125791163444515,-0.06608692163079977,0.047217239857465024
1772025730408369200,1.934369140625,-0.2748597281873226,0.020033026464283465,0.06334105698876083
1772025730418366000,1.944365966796875,-0.18528817833364009,0.12434212672263383,0.11354293868020177
1772025730428362800,1.95436279296875,-0.1451116507679224,0.21079496003389359,0.1919621762048453
1772025730438360800,1.96436083984375,-0.07979892838001251,0.24799948605149982,0.25363603063374757
1772025730448357000,1.974357177734375,-0.04757072947025299,0.3129764006137848,0.2748489145323634
1772025730458355000,1.98435498046875,-0.06128361300230026,0.4021294327944517,0.29441892659477886
1772025730468352000,1.99435205078125,-0.022211831808090207,0.4974480018675327,0.3029367987670004
1772025730478349000,2.00434912109375,0.0825263075172901,0.6078574648275971,0.3239280758041888
1772025730488347100,2.01434716796875,0.19126199204623698,0.7812298721790313,0.3125566408317536
1772025730498344000,2.024343994140625,0.32225860822200775,0.9529776009380817,0.26101664240434763
1772025730508342000,2.034342041015625,0.5188321506798267,1.0465633548691868,0.21782317817024885
1772025730518338800,2.0443388671875,0.6978016473859548,1.0246695029690862,0.19521219097673892
1772025730528336100,2.054336181640625,0.844901841622591,0.9070710052877664,0.2269919885318726
1772025730538334200,2.064334228515625,0.936397053015232,0.7864391312599182,0.34127785453386605
1772025730548331000,2.0743310546875,0.9367577030211687,0.7540992886692285,0.49910373318530615
1772025730558327800,2.084327880859375,0.859174697124958,0.6826847422748804,0.7231103492308407
1772025730568326000,2.094325927734375,0.7682312743961811,0.5932590306326747,0.8333011279389262
1772025730578323200,2.1043232421875,0.6788011788398027,0.4503855141803622,0.8999912761598825
1772025730588321000,2.114321044921875,0.6159785197019577,0.2795300580859184,0.9704401923924684
1772025730598318000,2.124318115234375,0.5650234084904193,0.1233759120389819,1.0857144849099218
1772025730608315000,2.13431494140625,0.3852759131491184,-0.032284605272114276,1.2475181811511515
1772025730618313000,2.14431298828125,0.21084698248207567,-0.07078326275348663,1.309073596832156
1772025730628310000,2.15431005859375,0.054852703171968456,-0.012792846077680588,1.3261270229637623
1772025730638308000,2.16430810546875,-0.12499123828113079,0.1378963125616312,1.285039518032968
1772025730648305000,2.174304931640625,-0.3549287056803703,0.29921207915544507,1.216648849504441
1772025730658302000,2.184302001953125,-0.5283750550508499,0.3779112296000123,1.0041294768307358
1772025730668300000,2.194300048828125,-0.5198018724948168,0.4323141431778669,0.692805519599095
1772025730678297000,2.204297119140625,-0.35116730732023715,0.5588657626435161,0.49790655928999183
1772025730688295200,2.214295166015625,-0.10730419042110442,0.6789546158358454,0.402254666609317
1772025730698292000,2.2242919921875,0.06389759489297867,0.6894608122810721,0.24707126529067752
1772025730708289000,2.2342890625,0.2620055073112249,0.6321686070024967,0.15748386028073727
1772025730718287000,2.244287109375,0.49225569392144675,0.5839093107461929,0.1466628987979144
1772025730728284200,2.2542841796875,0.7192810732662678,0.528841211257875,0.23596483792997897
1772025730738282000,2.264281982421875,0.7997814279139042,0.40987727044224737,0.5096511384237558
1772025730748279000,2.274279052734375,0.7813035219371318,0.22963117792904375,0.7923502549998461
1772025730758276000,2.284276123046875,0.7373030521690845,-0.023352234014868734,1.0175743570763618
1772025730768274200,2.294274169921875,0.7174947743713855,-0.27256284942179915,1.0567174499411136
1772025730778271000,2.30427099609375,0.7252589786320924,-0.4371478469446301,1.024052613179758
1772025730788268000,2.31426806640625,0.7770218990951776,-0.6698249684408306,1.0993887169320136
1772025730798265900,2.324265869140625,0.65221127807796,-0.8720046603426337,1.178925268048793
1772025730808263200,2.33426318359375,0.437677716037631,-0.9518450897768139,1.2786962864860891
1772025730818261200,2.34426123046875,0.29843934121727944,-0.916243907302618,1.3433698341876268
1772025730828258000,2.354258056640625,0.25508009196221826,-0.8912108805939555,1.2867132964640855
1772025730838254800,2.3642548828125,0.19175474399924278,-0.877597365783155,1.2016143619798123
1772025730848253000,2.3742529296875,0.07372165429294109,-0.79742054400146,1.113246854153648
1772025730858250200,2.384250244140625,0.04144201745688915,-0.676663290028274,0.9472191104765981
1772025730868248000,2.394248046875,0.13645955775678156,-0.5494041068151593,0.7568928649105131
1772025730878245000,2.4042451171875,0.23474632898569106,-0.4425713332980871,0.6565224923405796
1772025730888242000,2.414241943359375,0.19742168371975422,-0.3754337335705757,0.643022667037323
1772025730898240000,2.424239990234375,0.10312485890984535,-0.3701712829977274,0.6885792802061885
1772025730908237000,2.434237060546875,-0.04071837935745716,-0.42344168541431426,0.7350069771211594
1772025730918235100,2.444235107421875,-0.21604981182217597,-0.402716292771697,0.7003923214662819
1772025730928232000,2.45423193359375,-0.2806429877638817,-0.32342180678248406,0.6291770239710808
1772025730938229000,2.46422900390625,-0.2779179467141628,-0.30593028149455787,0.5278584838308393
1772025730948226800,2.474226806640625,-0.3342734556645155,-0.3474973866358399,0.45998131778240203
1772025730958224100,2.48422412109375,-0.42855274481773376,-0.37697804040312766,0.49961606662161645
1772025730968222200,2.49422216796875,-0.4537029681652784,-0.351148894880712,0.5122729382947087
1772025730978219000,2.504218994140625,-0.3621323534488678,-0.3004278846859932,0.5312579170107841
1772025730988215800,2.5142158203125,-0.29026421806812286,-0.2792629315823316,0.5520516256492585
1772025730998214000,2.5242138671875,-0.2248106259047985,-0.25414018076360223,0.5043204449202865
1772025731008211200,2.534211181640625,-0.17906944994926452,-0.24334786085337398,0.49761970517262816
1772025731018208000,2.5442080078125,-0.21896949866116044,-0.27398674474507567,0.5232003558266908
1772025731028206000,2.5542060546875,-0.21553134090602397,-0.316001009131968,0.5539765292972326
1772025731038203000,2.564202880859375,-0.1961976948827505,-0.4470364960134029,0.6360443524572998
1772025731048201000,2.574200927734375,-0.24130524910986423,-0.7103028170406818,0.7750522064574062
1772025731058198000,2.584197998046875,-0.3736170395374298,-0.976821125601232,0.8914542608957737
1772025731068195000,2.594195068359375,-0.6021072307378054,-0.9441855149343609,0.8775731081247329
1772025731078193000,2.60419287109375,-0.8017968593895435,-0.7727201102480292,0.8509705670770257
1772025731088190000,2.61418994140625,-0.929412600955367,-0.7914926152572035,0.8186439492940902
1772025731098188000,2.62418798828125,-1.0596697969406843,-0.9365086966961622,0.7589100499518215
1772025731108185000,2.63418505859375,-1.1257710393577813,-0.9203837835863232,0.6612826194144785
1772025731118182000,2.644181884765625,-1.170990821787715,-0.6818637812808156,0.43036662583928553
1772025731128180000,2.654179931640625,-1.1391185967087745,-0.3964049176678061,0.21013740944061426
1772025731138177000,2.664177001953125,-1.018804118067026,-0.1801467237919569,0.0479407683590427
1772025731148175000,2.674175048828125,-0.8575947344571352,-0.058680737027525895,-0.07182641513086856
1772025731158172200,2.684172119140625,-0.7581418420583009,0.056147711418569085,-0.18357735582776366
1772025731168169000,2.6941689453125,-0.7249123571515083,0.1900327425122261,-0.30018156350841746
1772025731178167000,2.7041669921875,-0.6132634155243635,0.32321108664125203,-0.44789800821356474
1772025731188164000,2.7141640625,-0.5034861129879952,0.49300709681063887,-0.5940568299468606
1772025731198162200,2.724162109375,-0.3347036637753248,0.591691927446425,-0.6898584332965314
1772025731208159000,2.734158935546875,-0.19285013802051543,0.6549816195741296,-0.7049202472195029
1772025731218156000,2.744156005859375,-0.12001987960934639,0.6945502443745732,-0.6494058652684093
1772025731228153900,2.75415380859375,-0.05598141494095325,0.6925953109145164,-0.581358603350073
1772025731238151200,2.764151123046875,0.03499181840419769,0.7262900752454996,-0.6052668638125062
1772025731248148000,2.77414794921875,0.15672551619410513,0.821887461259961,-0.6432108830858022
1772025731258146000,2.78414599609375,0.3286398336917162,0.8539356274276971,-0.6914044206295162
1772025731268142800,2.794142822265625,0.4895628015756607,0.7910925100237131,-0.6857594735451042
1772025731278141000,2.804140869140625,0.6054805065631866,0.7195669044703245,-0.6132311206899583
1772025731288138000,2.814137939453125,0.6005974106967449,0.6970154654443264,-0.5360034310374409
1772025731298135000,2.824135009765625,0.5598772777736186,0.7096762095749378,-0.49393721726760265
1772025731308133000,2.834133056640625,0.5453904872596264,0.7426344763249159,-0.46363509104959666
1772025731318130000,2.8441298828125,0.5275543863177299,0.7589262704342603,-0.4189670607509091
1772025731328128000,2.8541279296875,0.5461000968337059,0.7583154450595379,-0.38993769441507753
1772025731338125000,2.864125,0.5703975027441978,0.7348655958890914,-0.3885966550696641
1772025731348122000,2.8741220703125,0.5985094985067844,0.7058700952902436,-0.3858807471744716
1772025731358120000,2.884119873046875,0.6408008262693882,0.6773854668229818,-0.40233518449962136
1772025731368117000,2.894116943359375,0.6357686773210763,0.6598954028397798,-0.3713485466161743
1772025731378114800,2.90411474609375,0.5842945106714964,0.6251105051845312,-0.3173946189148351
1772025731388112100,2.914112060546875,0.5583259566783905,0.5947241347491741,-0.2637545064030215
1772025731398109000,2.92410888671875,0.483743301641941,0.586178716982901,-0.1741465335290879
1772025731408107000,2.93410693359375,0.4061936134934425,0.5539931881710887,-0.15190861743167042
1772025731418103800,2.944103759765625,0.3841518775552511,0.521502246671915,-0.21450521272867917
1772025731428102100,2.95410205078125,0.43052550619542596,0.44379882926642894,-0.26748740932103243
1772025731438099200,2.96409912109375,0.5669739580363035,0.36634471044689415,-0.2794886300969869
1772025731448096500,2.974096435546875,0.6639695204108953,0.3098655751168728,-0.22901399587877094
1772025731458094300,2.98409423828125,0.6397592082619666,0.2246817388281226,-0.1303244890678674
1772025731468091400,2.99409130859375,0.6366074662327766,0.1560831266373396,-0.04382774354964494
1772025731478088400,3.00408837890625,0.6669014822095632,0.05571048904508352,0.038565585237741465
1772025731488086500,3.01408642578125,0.606110036638379,-0.05064999078512192,0.10951748255640267
1772025731498083300,3.024083251953125,0.5560048202544451,-0.15852116743922232,0.14683891295194626
1772025731508081400,3.034081298828125,0.5263011713862419,-0.2636842541784048,0.1597043858744204
1772025731518078200,3.044078125,0.4661743272036314,-0.3564215745866298,0.17659531492069364
1772025731528075500,3.054075439453125,0.34331542477607724,-0.4175611029431224,0.19181429216675458
1772025731538073300,3.0640732421875,0.23201427367329597,-0.47371232149302955,0.18560571985021232
1772025731548070400,3.0740703125,0.23171558298766612,-0.5276023171126842,0.16622209720537065
1772025731558068500,3.084068359375,0.2354547695159912,-0.5216837407186627,0.11387290128692984
1772025731568065300,3.094065185546875,0.13523206178843974,-0.5048863351747394,0.11055968508571386
1772025731578062300,3.104062255859375,0.06158171916604042,-0.5058098797604441,0.09529562658891082
1772025731588060400,3.114060302734375,0.06536883648931979,-0.5145893985435366,0.06080722766220569
1772025731598057500,3.124057373046875,0.06121171680986881,-0.4995619252815842,0.04535436859503388
1772025731608055300,3.13405517578125,0.006989712756872176,-0.4766352232024073,0.05473477588072419
1772025731618052600,3.144052490234375,-0.032066286346316336,-0.4575447382852435,0.08892981788404285
1772025731628049400,3.15404931640625,-0.036083120772242544,-0.45349780098199843,0.12859751914478837
1772025731638047500,3.164047607421875,-0.0929834041237831,-0.4764911385565996,0.14913367282561957
1772025731648044300,3.174044189453125,-0.19080957210361957,-0.5096797069311142,0.13563523576185108
1772025731658042400,3.18404248046875,-0.2520242115229368,-0.5324857052400708,0.12454524807929993
1772025731668039400,3.194039306640625,-0.2845546082496643,-0.5036655612081289,0.09729834471344947
1772025731678036500,3.204036376953125,-0.26096388930380343,-0.45825551690310234,0.061921545579656956
1772025731688034300,3.214034423828125,-0.2357768410772085,-0.45345542314499615,0.01224536826275289
1772025731698031400,3.22403125,-0.2054571061372757,-0.49370706177353857,-0.04202778145559132
1772025731708028400,3.2340283203125,-0.22017069114446639,-0.5209454895719886,-0.046043300707265734
1772025731718026500,3.244026611328125,-0.31664076834022997,-0.5271504816919564,-0.058755701959878205
1772025731728023300,3.254023193359375,-0.3866559693306684,-0.5312669771000743,-0.10532821417301892
1772025731738021400,3.264021484375,-0.3832295020133257,-0.5165379022628068,-0.16756021394133566
1772025731748018400,3.274018310546875,-0.3764648301839828,-0.396802392552793,-0.21747611829824745
1772025731758015500,3.284015380859375,-0.511218753066659,-0.21650953828841446,-0.40431116074770684
1772025731768013600,3.294013671875,-0.49484454137086864,-0.13677490731626749,-0.5561860220402479
1772025731778010400,3.30401025390625,-0.3915390651971101,-0.07687135049551724,-0.5937156883589924
1772025731788008400,3.314008544921875,-0.4212847996413707,-0.013056173188984393,-0.5974497603207827
1772025731798005200,3.324005126953125,-0.4891922146975994,-0.04168634760677814,-0.49328218742497265
1772025731808002600,3.33400244140625,-0.4554278922617435,-0.22403584214001893,-0.33812055954672393
1772025731818000400,3.34400048828125,-0.4173486292362213,-0.34253099640011786,-0.2716916195452213
1772025731827997400,3.35399755859375,-0.5575877055317163,-0.1950412183240056,-0.20608860897384582
1772025731837995300,3.363995361328125,-0.6469914976030587,-0.1263847384661436,-0.12955335856489836
1772025731847992300,3.373992431640625,-0.647720396399498,-0.35238048250228166,-0.10869213764816522
1772025731857989400,3.3839892578125,-0.6427227342426777,-0.6241790695533156,-0.03580108896046877
1772025731867987500,3.393987548828125,-0.659382192620635,-0.6535629849478602,0.07712693269178271
1772025731877984500,3.403984619140625,-0.7308066758871078,-0.48087943664342164,0.0375747475694865
1772025731887981300,3.413981201171875,-0.6802151372909545,-0.3901479030996561,-0.05089044847749173
1772025731897979400,3.4239794921875,-0.5712585034877061,-0.42519291299581524,-0.1052875168364495
1772025731907976400,3.4339765625,-0.5844394721001386,-0.4918474053815007,-0.12113814304955303
1772025731917974500,3.443974609375,-0.6992120987057685,-0.5154617974638939,-0.07886215898655355
1772025731927971300,3.453971435546875,-0.7474854234874249,-0.522455309613049,-0.03263911779820919
1772025731937968400,3.463968505859375,-0.7058627887666225,-0.5068050282776355,-0.014122268050536513
1772025731947966500,3.473966552734375,-0.6419061571627855,-0.4584162604227662,-0.008074293123185633
1772025731957963500,3.483963623046875,-0.5191565603286028,-0.421448465770483,0.004403568721190095
1772025731967961300,3.49396142578125,-0.38105683414936065,-0.3511220068737864,0.04341390205174684
1772025731977958400,3.50395849609375,-0.25285949330329893,-0.22700696690529584,0.10697145133540034
1772025731987955500,3.51395556640625,-0.14845043980181216,-0.09500409629642963,0.16873546826578675
1772025731997953500,3.52395361328125,-0.02914952211678028,-0.006619125878810883,0.22547442357577382
1772025732007950300,3.533950439453125,0.09782324537038803,0.09227934750765561,0.23463958067558705
1772025732017948400,3.543948486328125,0.18926818788051605,0.2833899483844638,0.23109525913223622
1772025732027945500,3.553945556640625,0.3109662298351526,0.5192416082635521,0.24934184057116507
1772025732037942500,3.563942626953125,0.47752574230134487,0.6813178378358483,0.24105288178399203
1772025732047940600,3.573940673828125,0.6613549539983272,0.7362979667797684,0.26746896034888923
1772025732057937400,3.5839375,0.8489929103285073,0.7475853767305612,0.27713797531761225
1772025732067935500,3.593935546875,0.9213765940159558,0.7361781397923827,0.340028804320842
1772025732077932300,3.603932373046875,0.8842495171487331,0.6965458021059632,0.4451675603363663
1772025732087929600,3.6139296875,0.7889771253049374,0.6568927138924598,0.5922019958604127
1772025732097927400,3.623927490234375,0.6813713215887546,0.6111459849789739,0.7291128775812685
1772025732107924500,3.633924560546875,0.6172726511657237,0.5214169064760208,0.8379230886511504
1772025732117921300,3.64392138671875,0.5668892023622989,0.39458179389387366,0.9382803825438022
1772025732127919400,3.65391943359375,0.48919630635082717,0.24042437462210653,1.0564139369498937
1772025732137916400,3.66391650390625,0.4178454728424549,0.11104483825415372,1.15939704930149
1772025732147914500,3.67391455078125,0.40401743849813937,0.0732087363347411,1.2317492418721319
1772025732157911300,3.683911376953125,0.378769599995017,0.12715747640430927,1.3066202123306692
1772025732167908400,3.693908447265625,0.3322404885321855,0.24530016396492718,1.3064502625912426
1772025732177906400,3.703906494140625,0.34338965905606744,0.37354455882310866,1.1898694905851035
1772025732187903500,3.713903564453125,0.27319851697683334,0.4876131288126111,1.0696586915135382
1772025732197901600,3.723901611328125,0.13368600139021872,0.6335609381437302,0.9161694538269192
1772025732207898400,3.7338984375,0.013200842356681824,0.7502408596754073,0.8192709220860153
1772025732217895400,3.7438955078125,0.0033668460845947264,0.8290145366609096,0.667608753696084
1772025732227893200,3.753893310546875,0.1259580374866724,0.8970318418323994,0.5320631689790636
1772025732237890600,3.763890625,0.3683300390452146,0.9207429722875357,0.43463418362326917
1772025732247888400,3.773888427734375,0.5971411327630282,0.8701271760329604,0.3114271253451705
1772025732257885400,3.783885498046875,0.7472270648121834,0.8075327726930379,0.1951903444711119
1772025732267882200,3.79388232421875,0.8427063774049282,0.7368140996083616,0.17093809287659822
1772025732277880300,3.80388037109375,0.8916694380164146,0.6657610800027847,0.234358498711884
1772025732287877400,3.81387744140625,0.861121739539504,0.5371653874889016,0.45203028571270404
1772025732297875500,3.82387548828125,0.7739788781374692,0.36594109808206554,0.6958607424512505
1772025732307872300,3.833872314453125,0.7533961088359356,0.17645283771008252,0.8302836798138916
1772025732317869300,3.843869384765625,0.7297644733577966,0.010969137781858443,0.8929111086405813
1772025732327867400,3.853867431640625,0.6890215440809726,-0.12686375415474177,0.8868766507819295
1772025732337864400,3.863864501953125,0.6683779845029115,-0.26241905654817815,0.8837790500927716
1772025732347861200,3.873861328125,0.6142144326388835,-0.3824994341731071,0.877549581118673
1772025732357859300,3.883859375,0.5214028779506683,-0.44357612642645833,0.9036221800081431
1772025732367856400,3.8938564453125,0.4017360495626926,-0.4891837391301989,0.9565105973698198
1772025732377854500,3.9038544921875,0.3020785745024681,-0.5871218430519104,0.9449800993781536
1772025732387851500,3.9138515625,0.16875673024952412,-0.6447802512943744,0.8628830501236021
1772025732397848300,3.923848388671875,0.005410919132828712,-0.6523951102122664,0.7898495972905307
1772025732407846400,3.933846435546875,-0.12355214538872242,-0.640819823230803,0.7125726616688072
1772025732417843500,3.943843505859375,-0.21193302415311335,-0.6243845289975405,0.6938556862391531
1772025732427841500,3.953841552734375,-0.3093810064703226,-0.5707169439569115,0.7270863401897251
1772025732437838300,3.96383837890625,-0.3956026613742113,-0.47073856637924905,0.7317991209905594
1772025732447835400,3.97383544921875,-0.43827217479944225,-0.3791393100902438,0.6921253553152084
1772025732457833500,3.98383349609375,-0.45174832696616646,-0.33889000954926013,0.6226780904058367
1772025732467830500,3.99383056640625,-0.5369418078660965,-0.26382453943192957,0.5450546794340014
1772025732477828600,4.00382861328125,-0.6550672520309686,-0.2054848709270358,0.5125903336808085
1772025732487825400,4.013825439453125,-0.68514733299613,-0.18161358147412537,0.46636857113409785
1772025732497822500,4.023822509765625,-0.7132599132806062,-0.18237229088693857,0.4638083287246525
1772025732507820300,4.0338203125,-0.7995838595151901,-0.1945660020276904,0.4596500765340402
1772025732517817600,4.043817626953125,-0.8129051133811473,-0.19032178858667612,0.4399465742850676
1772025732527814400,4.053814453125,-0.7011392673760652,-0.1644327295705676,0.39659678697809575
1772025732537812500,4.0638125,-0.5973404547274113,-0.19129209492355584,0.38563667275290936
1772025732547809300,4.073809326171875,-0.5795306572705506,-0.3634083647340536,0.4633802760383114
1772025732557807400,4.083807373046875,-0.6021428865730762,-0.701039021871984,0.639243294629082
1772025732567804400,4.093804443359375,-0.6816542301833629,-0.9876216288179158,0.8223195690669118
1772025732577801500,4.103801513671875,-0.7703127568453549,-0.9518620409116149,0.8994052929654717
1772025732587799600,4.113799560546875,-0.8762555957853794,-0.7690797079190611,0.8397241467237472
1772025732597796400,4.12379638671875,-0.8916209226995706,-0.7431906489029526,0.8022173498239368
1772025732607794400,4.13379443359375,-0.90559099586308,-0.8172291140601039,0.8107717546142638
1772025732617791500,4.14379150390625,-0.8543798640638589,-0.7995508340284228,0.7661620669066905
1772025732627788500,4.15378857421875,-0.7266653382986784,-0.6351938000425696,0.6855923002846539
1772025732637786400,4.163786376953125,-0.5659884541302919,-0.37176644323468205,0.5686261456901207
1772025732647783400,4.173783447265625,-0.41647067735791204,-0.14737082787156106,0.47265579817742104
1772025732657781200,4.18378125,-0.3309393428057432,-0.015431962409615516,0.36930217201299964
1772025732667778600,4.193778564453125,-0.2911713960409164,0.09467676403820514,0.2702107881366275
1772025732677775400,4.203775390625,-0.3198848648279905,0.20592530817091464,0.16951732109216971
1772025732687773400,4.2137734375,-0.4033873239010572,0.27600772917866706,0.012387662810273467
1772025732697770200,4.223770263671875,-0.4293050244897604,0.33611908353120085,-0.15655826986841856
1772025732707767600,4.233767578125,-0.39085400554239746,0.46351182999610896,-0.29427433049231766
1772025732717765400,4.243765380859375,-0.2986976998925209,0.5802309144943952,-0.4124731686869636
1772025732727762400,4.253762451171875,-0.17408406275212765,0.6154848909661174,-0.5224464321868494
1772025732737760500,4.263760498046875,-0.06434358509480953,0.6755243491262197,-0.5661615456748753
1772025732747757300,4.27375732421875,-0.013064064234495161,0.8047887346819043,-0.6597285949055105
1772025732757754600,4.283754638671875,0.008836801928281783,0.8976654635608196,-0.7197420418415218
1772025732767752400,4.29375244140625,0.03453063063323498,0.8913722086355089,-0.7842938628595322
1772025732777749500,4.30374951171875,0.12915771031081677,0.8075275119960308,-0.8501708680666983
1772025732787747300,4.313747314453125,0.20362989071011542,0.8114023076027631,-0.8716147111769765
1772025732797744600,4.32374462890625,0.20842297020554543,0.8262900801330805,-0.8873116811983287
1772025732807741400,4.333741455078125,0.225089442846179,0.8007502729460596,-0.8720852512981742
1772025732817739500,4.343739501953125,0.2838683795511722,0.7587056134209036,-0.8372903437055647
1772025732827736300,4.353736328125,0.3471791144669056,0.6842880858182907,-0.7381663179349154
1772025732837734400,4.363734375,0.3784107035547495,0.6036491994827985,-0.6381426399108022
1772025732847731500,4.3737314453125,0.37956688785254955,0.5291013234987855,-0.5534014328230172
1772025732857728500,4.383728515625,0.39003859750628467,0.4748956860587001,-0.5237555054914206
1772025732867726600,4.3937265625,0.3778606684565544,0.460846702440083,-0.5334192597631364
1772025732877723400,4.403723388671875,0.3401712815314531,0.4575003146216273,-0.5588745304718613
1772025732887721500,4.413721435546875,0.33627076696157454,0.4302174631595611,-0.6101784551210702
1772025732897718500,4.423718505859375,0.32081074750125405,0.40082770254611966,-0.6533534338504076
1772025732907715600,4.433715576171875,0.3052776628047228,0.36443566195517774,-0.6848147400408983
1772025732917713400,4.44371337890625,0.3023410248309374,0.36233868967592714,-0.7439099030882119
1772025732927710500,4.45371044921875,0.3745335698604583,0.38469899004399777,-0.794833742378652
1772025732937707500,4.46370751953125,0.48272915616333484,0.3980322266086936,-0.824100607264787
1772025732947705600,4.47370556640625,0.6441571509599685,0.36644261786341664,-0.8175438790977001
1772025732957702400,4.483702392578125,0.8086462868928909,0.27601591248512264,-0.7521092838957906
1772025732967700500,4.493700439453125,0.868204975798726,0.19419249254018067,-0.6498401650324463
1772025732977697300,4.503697265625,0.871110634112358,0.115391635286808,-0.554763040032424
1772025732987694600,4.513694580078125,0.9027437897384166,0.0019075871869921684,-0.46400092868730425
1772025732997692400,4.5236923828125,0.8825614179313183,-0.1596308822467923,-0.40199897481519725
1772025733007689500,4.533689453125,0.8313765896171331,-0.30819530381709337,-0.3584173880463466
1772025733017687600,4.5436875,0.6580944908976555,-0.43366789587438104,-0.3288419321350753
1772025733027684400,4.553684326171875,0.5126870720535517,-0.5882464631676674,-0.30969215477872636
1772025733037681400,4.563681396484375,0.4280184918105602,-0.6651017393112182,-0.2878012985533103
1772025733047679500,4.573679443359375,0.35017771176099777,-0.6946411375284195,-0.2922784074347466
1772025733057676500,4.583676513671875,0.28455343920588494,-0.7181108604431152,-0.361669412112236
1772025733067674400,4.59367431640625,0.23858839136660098,-0.7127499179318547,-0.47781186576634643
1772025733077671400,4.60367138671875,0.16194412762522697,-0.6506205017551779,-0.540412187390402
1772025733087668500,4.61366845703125,0.11676759981513023,-0.6020344577625394,-0.5448475394893437
1772025733097666600,4.62366650390625,0.11350830575823784,-0.5777008114948868,-0.5622003869589418
1772025733107663400,4.633663330078125,0.1165378827124834,-0.5318146741107106,-0.6160921361442655
1772025733117660400,4.643660400390625,0.04028992481231689,-0.4539978594586253,-0.6487148142643272
1772025733127658200,4.653658203125,0.025962124252319335,-0.3945616278886795,-0.6552635052554309
1772025733137655600,4.663655517578125,0.025337270352244375,-0.34631665241867304,-0.6118640701204539
1772025733147653400,4.6736533203125,-0.047347442108392715,-0.3779465931743383,-0.618760916962102
1772025733157650400,4.683650390625,-0.13087971179783345,-0.4371586605995893,-0.5756210095461458
1772025733167647500,4.6936474609375,-0.15322715268433093,-0.49375616161227226,-0.4953896080330014
1772025733177645600,4.7036455078125,-0.1533767902880907,-0.5355538606390357,-0.4789828092418611
1772025733187642400,4.713642333984375,-0.17851473867595194,-0.5579287740543485,-0.49162492173723876
1772025733197640400,4.723640380859375,-0.23992168579697606,-0.5715817440927028,-0.4851060413625091
1772025733207637500,4.733637451171875,-0.2644026315808296,-0.586740150257945,-0.4758141160778701
1772025733217634600,4.743634521484375,-0.31128304069936275,-0.6229512813240289,-0.44447607094086705
1772025733227632600,4.753632568359375,-0.36445348987281323,-0.6701122609496116,-0.39613274966292084
1772025733237629400,4.76362939453125,-0.47828620527982707,-0.7227744683399796,-0.35597543825432654
1772025733247627500,4.77362744140625,-0.5465273823350668,-0.8101254195347428,-0.3487456331312656
1772025733257624300,4.783624267578125,-0.5386503653496504,-0.8213365493789315,-0.31555574958249927
1772025733267621600,4.79362158203125,-0.5398100567787886,-0.745086545652151,-0.21071298083886503
1772025733277619500,4.803619384765625,-0.6493295851618052,-0.6158683373257517,-0.21840178177580236
1772025733287616500,4.813616455078125,-0.7131780802160501,-0.6956336556971072,-0.23564970756620168
1772025733297614300,4.8236142578125,-0.7135925062358379,-0.8978741378754377,-0.18974515774250028
1772025733307611400,4.833611328125,-0.827557323589921,-0.893005947317183,-0.19556063908822832
1772025733317608400,4.8436083984375,-0.9833376678884029,-0.5897486844241618,-0.2627181856252253
1772025733327606500,4.8536064453125,-0.9870604878038167,-0.3726651456400752,-0.36499497633837164
1772025733337603300,4.863603271484375,-0.9109726889014244,-0.3057221917018294,-0.4981961898863315
1772025733347600400,4.873600341796875,-0.8788637324571609,-0.23218027788996695,-0.5538533413089811
1772025733357598500,4.883598388671875,-0.820212806046009,-0.1268099781408906,-0.5010729874316603
1772025733367595500,4.893595458984375,-0.6758627873003482,-0.04497603680193424,-0.4742486933920532
1772025733377593600,4.903593505859375,-0.5531318951666355,0.0061561845421791075,-0.46078598522879183
1772025733387590400,4.91359033203125,-0.4225941286742687,0.08329261571466923,-0.37226759768985207
1772025733397587500,4.92358740234375,-0.3698135556012392,0.05966653319448232,-0.1704376690737903
1772025733407585300,4.933585205078125,-0.42152620718181133,-0.03231558493226767,0.07527180634438992
1772025733417582600,4.94358251953125,-0.5218991370350122,-0.08345861993134021,0.29105149598829444
1772025733427580400,4.953580322265625,-0.6267565188258886,-0.06854395939409733,0.39367410446442663
1772025733437577500,4.963577392578125,-0.5807967316836118,-0.024146014741063117,0.38540648072622713
1772025733447574300,4.97357421875,-0.39689854640364647,0.07085954286009073,0.35138409187607467
1772025733457572600,4.983572509765625,-0.3861749078154564,0.23149784858375785,0.2880362398203462
1772025733467570000,4.99356982421875,-0.4662953232347965,0.3914434958681464,0.2296193413607776
1772025733477567700,5.003567626953125,-0.3968780881375074,0.5523147335648536,0.17582520733103155
1772025733487564800,5.013564697265625,-0.2742681920349598,0.7868792762428521,0.15375132268890737
1772025733497561600,5.0235615234375,-0.19539456180632114,1.0232046911135315,0.17139533512480556
1772025733507559700,5.0335595703125,-0.00035363574326038356,1.1819500226974486,0.10781330898702143
1772025733517556700,5.043556640625,0.38921266807615756,1.2102683546870947,-0.0021275135479867455
1772025733527554800,5.053554931640625,0.8184925581246614,1.1896133969321847,-0.04433686211556196
1772025733537552000,5.0635517578125,1.1279431226998566,1.148397881707549,-0.02150456032156944
1772025733547548700,5.073548583984375,1.2057429862171412,1.0847580609679222,0.06994535062462091
1772025733557546800,5.083546630859375,1.161551962313056,0.995984091232717,0.30313480555713174
1772025733567543800,5.093543701171875,1.0365022718429564,0.8667679287329315,0.6002203940778971
1772025733577540900,5.103540771484375,0.9090180477023124,0.6884779387235641,0.8251881102405488
1772025733587538700,5.11353857421875,0.7115455105781555,0.537123594173789,0.9441884375438093
1772025733597535700,5.12353564453125,0.4836854339748621,0.37775311642885206,1.0794587855160236
1772025733607533600,5.133533447265625,0.20196283428072928,0.20154607017338275,1.1662259454734623
1772025733617531000,5.14353076171875,-0.05868892033398151,0.05151245283335447,1.2468337060183285
1772025733627527700,5.153527587890625,-0.14235095388293265,-0.005386661474406719,1.304573362803459
1772025733637525800,5.16352587890625,-0.148797645804286,0.04750789336711168,1.3021516886144875
1772025733647522600,5.1735224609375,-0.18028408643603325,0.13326105397641658,1.2461457237541675
1772025733657521000,5.18352099609375,-0.24683541070818898,0.23154782520532607,1.063242833121866
1772025733667517700,5.193517578125,-0.32993571872115135,0.39368922896832226,0.7681324901968241
1772025733677514800,5.2035146484375,-0.35904373978376386,0.5682984846383333,0.4790691723510623
1772025733687512800,5.213512939453125,-0.31223990303277965,0.727857762953639,0.2555400376241654
1772025733697510000,5.223510009765625,-0.22321721923351287,0.8080997589260339,0.14094203693307936
1772025733707508000,5.233508056640625,-0.08611118026673793,0.7882792061686515,-0.009318594095855951
1772025733717504800,5.2435048828125,0.14125322177410124,0.6957850468665361,-0.118769660352543
1772025733727501800,5.253501708984375,0.3531114271253347,0.6200058755218982,-0.21239486951120196
1772025733737499600,5.263499755859375,0.42724926100373267,0.5605494779467582,-0.22820348321348427
1772025733747497000,5.2734970703125,0.46402620925903315,0.4604802072152495,-0.16236118399351834
1772025733757493800,5.28349365234375,0.5151180985927581,0.31391222015917297,0.040700551439821715
1772025733767491800,5.293491943359375,0.5263391653090715,0.13711363775134086,0.24141937700882551
1772025733777488600,5.303488525390625,0.5557347711414098,-0.03463964396566152,0.3519783314421773
1772025733787486000,5.31348583984375,0.5887088199824094,-0.19582973835319278,0.4408741739913821
1772025733797482800,5.323482666015625,0.6634563101917504,-0.35952860069125886,0.5017572433687746
1772025733807480800,5.333480712890625,0.753525872695446,-0.5099532631754875,0.561332298887521
1772025733817477600,5.3434775390625,0.7562550053983926,-0.6013038054004312,0.6034155368573964
1772025733827475700,5.353475830078125,0.725177730089426,-0.6509758910641074,0.650625031799823
1772025733837472800,5.36347265625,0.6931734030634165,-0.6857891380310058,0.6876346197672187
1772025733847469800,5.3734697265625,0.6719979285657406,-0.707717476722598,0.6853511850051581
1772025733857468000,5.383468017578125,0.5967559328377247,-0.7276604868158698,0.6153406601898371
1772025733867464700,5.393464599609375,0.5119891529172659,-0.7210834465131163,0.5633259569227695
1772025733877462800,5.403462890625,0.4787444704413414,-0.7104381338581442,0.5263204606086015
1772025733887459800,5.4134599609375,0.45302024659812445,-0.7009601114168763,0.47235608457848427
1772025733897457000,5.423456787109375,0.3672901746034622,-0.694587946036458,0.44072132151722904
1772025733907454700,5.433454833984375,0.2546872932523489,-0.6815633370295167,0.44420930976346135
1772025733917451800,5.44345166015625,0.16289806734919546,-0.6663222210168838,0.44707098280489443
1772025733927448800,5.45344873046875,0.04698153140544891,-0.6333689227029681,0.47243557955548166
1772025733937447000,5.463447021484375,-0.13354279352724552,-0.6021347032666206,0.495194012395665
1772025733947443700,5.473443603515625,-0.2891004349857569,-0.5568167211592198,0.4940328596618026
1772025733957441800,5.48344189453125,-0.3679167820692062,-0.5301005636692047,0.45163339534960684
1772025733967438600,5.4934384765625,-0.42869945981204505,-0.48033670806884765,0.42108650059029457
1772025733977436000,5.503435791015625,-0.5211123705714941,-0.4064101788535714,0.41319582040570674
1772025733987433700,5.513433837890625,-0.5179232191413641,-0.35888153495937586,0.4401543352842331
1772025733997430800,5.5234306640625,-0.4701888235419988,-0.30876170552819965,0.432174150185287
1772025734007428900,5.533428955078125,-0.504206243956089,-0.3007230682402849,0.44240627892948686
1772025734017425700,5.54342578125,-0.5507207423716783,-0.3371162778750062,0.4372257344864309
1772025734027422700,5.553422607421875,-0.502145219773054,-0.3598573942542076,0.4543476227443665
1772025734037420800,5.5634208984375,-0.37411855931878085,-0.4149547198370099,0.5180591204807162
1772025734047417900,5.57341796875,-0.2939262477070093,-0.6070291973099112,0.6819007522903382
1772025734057415700,5.583415771484375,-0.3106698772370815,-0.7589423447862267,0.8037077345121652
1772025734067412700,5.593412841796875,-0.4115431578278541,-0.739611036850512,0.8876072300788015
1772025734077409800,5.603409912109375,-0.5085428118556737,-0.7232102294087409,0.8951089109458029
1772025734087407900,5.613407958984375,-0.52908349558115,-0.8109016646042466,0.8590507784843444
1772025734097404700,5.62340478515625,-0.49982057621777054,-0.8996049071907997,0.8005997585594654
1772025734107401700,5.633401611328125,-0.4028168305367231,-0.9051596187084913,0.754041932458803
1772025734117399800,5.64339990234375,-0.3120312287181616,-0.9083207130879163,0.7128074202727526
1772025734127396900,5.65339697265625,-0.247079740858078,-0.9204507113426923,0.6997896063327789
1772025734137394700,5.663394775390625,-0.28181729224026203,-0.8972527911067009,0.7197279402509331
1772025734147391700,5.673391845703125,-0.35475334911346434,-0.8878878736510872,0.7503172859124839
1772025734157388800,5.683388916015625,-0.4072527671575546,-0.8515969553470611,0.7600144309971482
1772025734167387000,5.693386962890625,-0.495002362281084,-0.7809063393130898,0.7111427749961614
1772025734177384000,5.703384033203125,-0.574697830286622,-0.6634115942671894,0.6140539813801645
1772025734187381800,5.7133818359375,-0.5808668743103742,-0.5195154567688703,0.4655757037233561
1772025734197378800,5.72337890625,-0.5683469999551772,-0.3210468943446874,0.27729163150936365
1772025734207376000,5.7333759765625,-0.5250117160975932,-0.06002718320041894,0.11628547885399311
1772025734217374000,5.7433740234375,-0.47687692300379275,0.2347472057685256,-0.022929003634117543
1772025734227370800,5.753370849609375,-0.4437579127341509,0.5195312388598918,-0.1461358427165076
1772025734237368800,5.763368896484375,-0.38491993931829926,0.7448857623830437,-0.29069950421284885
1772025734247365600,5.77336572265625,-0.3085574151277542,0.8979802285984158,-0.48729555076342074
1772025734257363000,5.783363037109375,-0.18793956962525843,1.0137865821659564,-0.644162850048393
1772025734267360800,5.79336083984375,-0.06329845995604992,1.0824120823636652,-0.7854389412414282
1772025734277357800,5.80335791015625,0.09238426918685436,1.1604194511517882,-0.9566358311846852
1772025734287354600,5.813354736328125,0.25449732363820077,1.2689528911069035,-1.023847080670297
1772025734297352700,5.823352783203125,0.3177759098500013,1.2856921367228031,-1.0160120761957019
1772025734307349800,5.833349853515625,0.31721301527023316,1.220458032529056,-0.9134821875043213
1772025734317347800,5.843347900390625,0.33948622187674043,1.1667717427879571,-0.7957331754364073
1772025734327345000,5.853344970703125,0.38125732515752314,1.136877832044661,-0.7147949408281594
1772025734337341700,5.863341796875,0.4712678509503603,1.1048375569224358,-0.6623506870374083
1772025734347339800,5.87333984375,0.6221990016520023,1.0613388991966843,-0.642444574888423
1772025734357336800,5.8833369140625,0.7499164500266313,0.9917644277110695,-0.587573313146457
1772025734367335000,5.8933349609375,0.8556096981197595,0.9506585103407501,-0.5161907693255693
1772025734377331700,5.903331787109375,0.900271846666932,0.9150482677772641,-0.44881694968938823
1772025734387328800,5.913328857421875,0.8748959978699684,0.8482087742134928,-0.40093072452917694
1772025734397326600,5.92332666015625,0.8560790691971778,0.7281780809491872,-0.33979075778126716
1772025734407324700,5.93332470703125,0.8323883970081806,0.6147238434657454,-0.30461145398095246
1772025734417321700,5.94332177734375,0.7484568988680839,0.5286477345123887,-0.25722689473256466
1772025734427319800,5.95331982421875,0.6417085887640714,0.44645080507993695,-0.23810301900245248
1772025734437316900,5.96331689453125,0.5386608867436647,0.36872225323319435,-0.28924320445731283
1772025734447313700,5.973313720703125,0.4754319848924875,0.31425621129125353,-0.36660511494874953
1772025734457312000,5.98331201171875,0.4144949933707714,0.27416064000725743,-0.41899676176942885
1772025734467309300,5.993309326171875,0.37750411010384555,0.21349048272818325,-0.3954932096503675
1772025734477307100,6.00330712890625,0.4405979873985052,0.1434840495660901,-0.32109906292334195
1772025734487304200,6.01330419921875,0.5655424639284611,0.07254471946805716,-0.2606185829974711
1772025734497301000,6.023301025390625,0.6361328344583511,-0.061489949229359624,-0.1852633361533284
1772025734507299000,6.033299072265625,0.6374848335891962,-0.2329974394917488,-0.10752652793489396
1772025734517296400,6.04329638671875,0.5753121627926826,-0.4197235416740179,0.01853146279491484
1772025734527294200,6.053294189453125,0.48340369442403314,-0.5981584931120276,0.12219912334457039
1772025734537291300,6.063291259765625,0.3670832538545131,-0.7579284915685653,0.17082199221625924
1772025734547288000,6.0732880859375,0.24239012173712252,-0.9050245941519737,0.11953063478767871
1772025734557286100,6.0832861328125,0.19264964701235293,-0.9813491244196891,0.11515030081160366
1772025734567283200,6.093283203125,0.07692424972653389,-0.9588508768856525,0.13080883851870895
1772025734577280300,6.1032802734375,-0.018235329392552374,-0.9661579850286245,0.14295958730056882
1772025734587278000,6.113278076171875,-0.021033435678482055,-0.9586828268423676,0.0612460574708879
1772025734597275100,6.123275146484375,0.01928688427209854,-0.8676756912276148,-0.07624284333363175
1772025734607273200,6.133273193359375,0.06424421637356281,-0.7613590505391359,-0.2245825893025845
1772025734617270300,6.143270263671875,0.0732809247881174,-0.6761676154658198,-0.27870003700256346
1772025734627267000,6.15326708984375,0.06924713922739029,-0.6064297701120376,-0.26851430468335746
1772025734637265200,6.16326513671875,0.04779460135400295,-0.5295394226551056,-0.2415110008150339
1772025734647262200,6.17326220703125,-0.0035971477091312405,-0.4770321135655045,-0.2315197681546211
1772025734657260300,6.18326025390625,-0.04603928211927414,-0.4223682109639048,-0.2535508365683257
1772025734667257300,6.19325732421875,-0.08188684056997299,-0.377061334772408,-0.2633872439932078
1772025734677254100,6.203254150390625,-0.14150690427422521,-0.39011137048155065,-0.2495155897028744
1772025734687252200,6.213252197265625,-0.17818448380827903,-0.4185270253658294,-0.22292831928953527
1772025734697249300,6.223249267578125,-0.26224282319843767,-0.41839872281104323,-0.19165055297240613
1772025734707247400,6.233247314453125,-0.31567806078791616,-0.43440059406310316,-0.18130290808975696
1772025734717244200,6.243244140625,-0.35321839463114735,-0.44982554221004245,-0.20781141417846083
1772025734727241200,6.2532412109375,-0.39253275240957736,-0.44760523581206796,-0.22303806327432393
1772025734737239000,6.263239013671875,-0.4328390438348055,-0.4207037848830223,-0.2518128337945789
1772025734747236400,6.273236328125,-0.46620238425433635,-0.3652434712067246,-0.2883756278425455
1772025734757233200,6.283233154296875,-0.5233376454055308,-0.2572957221850753,-0.3286817731373012
1772025734767231200,6.293231201171875,-0.6556728167086839,-0.13337883513718843,-0.38227117837518454
1772025734777228000,6.30322802734375,-0.7506991248369217,-0.08629208979159593,-0.4873379651330411
1772025734787226000,6.31322607421875,-0.773483203575015,-0.10221154345721006,-0.528940360783413
1772025734797223200,6.32322314453125,-0.758173406240344,-0.24702947197556493,-0.44402971541285513
1772025734807220200,6.33322021484375,-0.7847054393351077,-0.3441229417666793,-0.3846365192670375
1772025734817218300,6.34321826171875,-0.9035779024749994,-0.17640110752284527,-0.37563232488259674
1772025734827215000,6.353215087890625,-0.9606558804810047,-0.012480126866698265,-0.35166977694965895
1772025734837213200,6.363213134765625,-0.8621785551160573,-0.11483575496971607,-0.282561388605833
1772025734847210200,6.373210205078125,-0.8943395340085029,-0.3331117184087634,-0.1987367849063128
1772025734857207300,6.383207275390625,-1.0036872129559515,-0.43051790741086005,-0.010456439019367098
1772025734867205000,6.393205078125,-1.0215648149520158,-0.42778848244696854,0.15776464998349546
1772025734877202200,6.4032021484375,-1.008966614663601,-0.3831351017281413,0.2545205583833158
1772025734887200000,6.413199951171875,-0.9708914432913064,-0.3246595318838954,0.24621990915834902
1772025734897197300,6.423197265625,-0.9450187508881092,-0.2502680155053735,0.19839798140600323
1772025734907194000,6.433194091796875,-0.9586772738844156,-0.1613862014815211,0.14772840913757682
1772025734917192200,6.443192138671875,-1.011618590477109,-0.086622052398324,0.10654964572675525
1772025734927189000,6.45318896484375,-1.0252104779779911,0.009893909765779972,-0.014161431017145513
1772025734937186300,6.463186279296875,-0.8985498451799154,0.1639580977961421,-0.18676950293257832
1772025734947184000,6.47318408203125,-0.7454501182675362,0.32176673305183645,-0.15552454290650783
1772025734957181200,6.48318115234375,-0.523773698735237,0.40979426833391186,-0.1389799430798739
1772025734967179300,6.49317919921875,-0.1522650296539068,0.46287762374579905,-0.2930695578124374
1772025734977176000,6.503176025390625,0.21303426339328288,0.5652905349940062,-0.37361499371081586
1772025734987173000,6.513173095703125,0.48420975010991096,0.7491133169502019,-0.4202625439215451
1772025734997171200,6.523171142578125,0.7293529699474572,0.8843117687299847,-0.3712499450799078
1772025735007168300,6.533168212890625,0.9108394179105758,0.8919985238403081,-0.27939598337747157
1772025735017166000,6.543166015625,1.0298889911830424,0.8275929794251918,-0.16807722355276344
1772025735027163400,6.553163330078125,1.1988158173024654,0.7457242590337991,-0.08373064180575311
1772025735037160200,6.56316015625,1.3137819206535815,0.6750467947423457,0.050897681935876606
1772025735047158300,6.573158203125,1.3063736902236938,0.5895233512356877,0.24964418451860546
1772025735057155000,6.583155029296875,1.1349889495581387,0.46623161034882066,0.5289536586564034
1772025735067153200,6.593153076171875,0.9028682929009199,0.3468304471597075,0.748893609784916
1772025735077150200,6.603150146484375,0.7204074469476938,0.21707272512912748,0.9531867136441171
1772025735087147300,6.613147216796875,0.6435586005449294,0.08437748834192753,1.1259113246113062
1772025735097145000,6.62314501953125,0.6193062028199434,-0.09302782778739929,1.2523472087427974
1772025735107142100,6.63314208984375,0.5197831677943467,-0.23737580070644615,1.3877826841488479
1772025735117139200,6.64313916015625,0.3604711422383785,-0.3453478073865175,1.4764847576916218
1772025735127137300,6.65313720703125,0.2966325840562582,-0.48960167228132484,1.5486045297458766
1772025735137134300,6.66313427734375,0.223817523214221,-0.4044856405317783,1.456210762078315
1772025735147132200,6.673132080078125,0.16390987474024296,-0.20750790118724108,1.2777367938041686
1772025735157129200,6.683129150390625,0.05094342077374458,-0.05197802451848983,1.0631260018091648
1772025735167126300,6.693126220703125,-0.1902028383821249,0.10467764130979776,0.8614961258098482
1772025735177124400,6.703124267578125,-0.43238720841407774,0.2906614006921649,0.6982164387319236
1772025735187121200,6.71312109375,-0.4624608596384525,0.4525239875137806,0.5651669086143374
1772025735197119200,6.723119140625,-0.2712152342051267,0.6054504036858678,0.4601332934737205
1772025735207116000,6.733115966796875,-0.0636520956993103,0.6956848013624548,0.2932821776498109
1772025735217113300,6.74311328125,0.1855623190999031,0.6764315270990133,0.11584259392470121
1772025735227111200,6.753111083984375,0.4825631519466638,0.6321186303809285,-0.03190283941291273
1772025735237108200,6.763108154296875,0.7332301036417483,0.5858230354130268,-0.03655453767627478
1772025735247106300,6.773106201171875,0.907383139976859,0.5142968453377484,0.035390023941546674
1772025735257103000,6.78310302734375,1.0066624293744564,0.43484658426493406,0.161547310327366
1772025735267100200,6.79310009765625,0.996019454807043,0.3126560826182365,0.3982794063027948
1772025735277098200,6.80309814453125,0.8622527893960475,0.148019939430058,0.6818258604232221
1772025735287095300,6.81309521484375,0.7353139241784811,-0.03025397622734308,0.9117534640155732
1772025735297092000,6.823092041015625,0.7415700619637966,-0.18518413343727588,1.0156417815785854
1772025735307090200,6.833090087890625,0.7354296595126391,-0.28515374318659303,1.042281878157705
1772025735317087200,6.843087158203125,0.7118459548294543,-0.3524333817332983,0.9964357074577361
1772025735327085300,6.853085205078125,0.7395125449120998,-0.5103483999729156,1.0242358607921749
1772025735337082000,6.86308203125,0.6628764644771814,-0.5527756290748715,1.0004216352887452
1772025735347079200,6.8730791015625,0.554115645506978,-0.5072884278804064,0.9424386712670325
1772025735357077200,6.8830771484375,0.4951648593664169,-0.5298389901235699,0.862842133591324
1772025735367074300,6.89307421875,0.4007639896601438,-0.5566837424293161,0.7724491112869233
1772025735377072000,6.903072021484375,0.2833767966419458,-0.5510735013321042,0.7068545762829482
1772025735387069200,6.913069091796875,0.18692250153720377,-0.546731964996457,0.7084333699069917
1772025735397066200,6.923066162109375,0.1245113458096981,-0.5671233033791184,0.6980394747298211
1772025735407064300,6.933064208984375,0.030773323926329612,-0.585119563318789,0.6537472554735839
1772025735417061000,6.94306103515625,-0.1251823769390583,-0.586783112616837,0.6450754348486661
1772025735427058200,6.95305810546875,-0.2919669303327799,-0.5961927459970117,0.6439433620788156
1772025735437056300,6.96305615234375,-0.4540998585283756,-0.5803691539213061,0.6355696476176381
1772025735447053300,6.97305322265625,-0.5615782364726066,-0.532462908886373,0.6158808314811438
1772025735457050400,6.98305029296875,-0.6504664802372455,-0.4833247839689254,0.5888068369967863
1772025735467047200,6.993047119140625,-0.7084937217921018,-0.4503741160035133,0.5353871257700026
1772025735477044200,7.003044189453125,-0.7221095746904611,-0.4030786963433027,0.4852128627378493
1772025735487042300,7.013042236328125,-0.7094745495229959,-0.36835166635513306,0.4622045467898249
1772025735497039400,7.023039306640625,-0.6438409246176481,-0.41825697625279423,0.48735235898457463
1772025735507037200,7.033037109375,-0.5976093347966671,-0.6128142104521394,0.6178444597043097
1772025735517034200,7.0430341796875,-0.6639145753532648,-0.818705908614397,0.7598762646354734
1772025735527031300,7.05303125,-0.7838678194671869,-0.7618237454414367,0.828502787746489
1772025735537029400,7.063029296875,-0.8626356512337923,-0.4766776010394096,0.7951954152978956
1772025735547026400,7.0730263671875,-0.921361396446824,-0.2926557893797755,0.6129300919167697
1772025735557024300,7.083024169921875,-0.984083517819643,-0.29288053804636,0.4160027675852179
1772025735567021300,7.093021240234375,-0.9046019848257303,-0.3557774314641952,0.26890034485887737
1772025735577018400,7.103018310546875,-0.784096952047944,-0.31745003889650103,0.12032116411086172
1772025735587016400,7.113016357421875,-0.715021077734232,-0.14664865107685326,0.0017407061874866485
1772025735597013200,7.12301318359375,-0.6060983462005853,0.0878729292422533,-0.06188061991422437
1772025735607011300,7.13301123046875,-0.4473854555815458,0.19424919116348027,-0.059152144798403604
1772025735617008000,7.143008056640625,-0.3939198228538036,0.19522797306776046,-0.00021701288470067084
1772025735627005400,7.15300537109375,-0.4707353515088558,0.21195845085531473,0.053770031634951004
1772025735637003300,7.163003173828125,-0.5745061071068048,0.24667349814474582,-0.008843960038141812
1772025735647000300,7.173000244140625,-0.6583551876604556,0.2992062339365482,-0.07756703200894408
1772025735656997000,7.1829970703125,-0.7647276501893997,0.3183712453946471,-0.0924265282928478
1772025735666995200,7.1929951171875,-0.8224374963581561,0.36561756521612404,-0.21776772165596484
1772025735676992300,7.2029921875,-0.8106313232302665,0.5408540128737688,-0.38447636026926335
1772025735686990300,7.212990234375,-0.726017103523016,0.6957932301729917,-0.5644912013098597
1772025735696987400,7.2229873046875,-0.6662766283094883,0.8637547183915972,-0.8170055344372987
1772025735706984200,7.232984130859375,-0.5299480034559965,0.9714122522950172,-1.0087205309480427
1772025735716982300,7.242982177734375,-0.32844343433678147,1.015463867728412,-1.0992445592209696
1772025735726979300,7.252979248046875,-0.07622223893702029,1.1003174491494894,-1.161570667013526
1772025735736977400,7.262977294921875,0.12873743907213211,1.084454109585285,-1.1716792424432934
1772025735746974200,7.27297412109375,0.3525882800340652,0.9981596817061305,-1.1201043918982148
1772025735756971300,7.28297119140625,0.43133974518775936,0.9434303126528859,-0.9856157688882201
1772025735766969000,7.292968994140625,0.3731611124634743,0.8881500317186116,-0.8120705622531473
1772025735776966400,7.30296630859375,0.3521580719232559,0.775490159483254,-0.6820344616726041
1772025735786964200,7.312964111328125,0.42507659313976764,0.6147045542433858,-0.6014037586435675
1772025735796961300,7.322961181640625,0.4720768292456865,0.4782558101415634,-0.4750970538496971
1772025735806958000,7.3329580078125,0.44646424908339977,0.35775954519212244,-0.3501024545677006
1772025735816956200,7.3429560546875,0.4128916498273611,0.30873657108694313,-0.2815982791947201
1772025735826953200,7.352953125,0.44591479850709437,0.358420639449358,-0.2437445502870716
1772025735836950300,7.3629501953125,0.5330664277374744,0.4315308838456869,-0.2509336763398722
1772025735846948400,7.3729482421875,0.5860995142668485,0.4778945756137371,-0.3024356443118304
1772025735856945200,7.382945068359375,0.6138584588080644,0.4665560199975967,-0.36696565535683184
1772025735866943200,7.392943115234375,0.6462392179310321,0.4829921910136938,-0.44774351177159694
1772025735876940300,7.402940185546875,0.6835878285944461,0.4786494856342673,-0.4998091780409217
1772025735886937300,7.412937255859375,0.7204150457322597,0.44507104115933177,-0.5418790085399523
1772025735896935200,7.42293505859375,0.7667500959277153,0.36437399489581584,-0.5780134941732511
1772025735906932500,7.432932373046875,0.8414625148236751,0.24817776522785423,-0.5620960498016327
1772025735916930300,7.442930419921875,0.8986194032847881,0.1289575115635991,-0.4985930071841925
1772025735926927400,7.45292724609375,0.9366606723874806,-0.014701602308452128,-0.3906957097081467
1772025735936924200,7.462924072265625,0.9560387420743703,-0.18719927265197037,-0.27262027869746086
1772025735946922200,7.472922119140625,0.9100888918042183,-0.3281605257421732,-0.1371967585906852
1772025735956919300,7.482919189453125,0.8506903618961572,-0.4987924022138118,-0.03154456859373022
1772025735966917400,7.49291748046875,0.8033861744076013,-0.6691086368650198,0.04786349273859523
1772025735976914200,7.5029140625,0.7354232297718525,-0.7534253349304199,0.11688491518502123
1772025735986911200,7.5129111328125,0.6292366452038288,-0.8050748581469058,0.13621341010914184
1772025735996909300,7.522909423828125,0.5209434437453746,-0.854400322329998,0.12863570486386305
1772025736006906400,7.53290625,0.40006256339251994,-0.8870002771615981,0.1121415565828327
1772025736016903200,7.542903076171875,0.2851554967522621,-0.8737208166107535,0.06390513887861743
1772025736026901200,7.5529013671875,0.20491525434553623,-0.8089148747012018,-0.04389373059109784
1772025736036898300,7.562898193359375,0.1654845767110586,-0.7133733105272054,-0.17239742483943699
1772025736046896000,7.572896240234375,0.15062076957821846,-0.5999962299332022,-0.31748521980773653
1772025736056893400,7.5828935546875,0.10087503415644168,-0.48960605619549746,-0.4358587569821626
1772025736066890200,7.59289013671875,0.033417116433382035,-0.4234364247173071,-0.49972866015061734
1772025736076888300,7.602888427734375,-0.0366121130824089,-0.38399230307936666,-0.5377233136326074
1772025736086885000,7.612885009765625,-0.1284101068139076,-0.32548692261874673,-0.5637289482330903
1772025736096883200,7.62288330078125,-0.16263561702072618,-0.28638854567855593,-0.6358480261676013
1772025736106880300,7.63288037109375,-0.18303601549267767,-0.2872168131962418,-0.715559349329397
1772025736116877300,7.642877197265625,-0.24616554862260817,-0.3197162302628159,-0.7679412054084241
1772025736126875100,7.652875244140625,-0.2650970435857773,-0.3675955872908234,-0.7758166149586438
1772025736136872200,7.6628720703125,-0.3172176914453506,-0.4461427620440721,-0.6878920285943895
1772025736146870300,7.672870361328125,-0.37220132752060886,-0.567910946625471,-0.6591466302990913
1772025736156867300,7.682867431640625,-0.31680618803501126,-0.6535089166730642,-0.6396202381826936
1772025736166864400,7.692864501953125,-0.2778022113800049,-0.6570096182703972,-0.6141850604139268
1772025736176862200,7.7028623046875,-0.3348877881705761,-0.659695496353507,-0.5834247055670246
1772025736186859300,7.712859375,-0.4063631248414516,-0.6402452382132411,-0.5714382805014029
1772025736196856300,7.722856201171875,-0.4275274934232235,-0.5826289155468344,-0.6118973148029297
1772025736206854400,7.7328544921875,-0.3972621190190315,-0.5043357155546546,-0.6620150253422558
1772025736216851200,7.742851318359375,-0.40122985360622404,-0.4449462457358837,-0.6682135877214371
1772025736226849300,7.752849365234375,-0.43650458060503006,-0.4027990026190877,-0.7027018405176699
1772025736236846300,7.762846435546875,-0.47582595264613625,-0.392414094465971,-0.7519244288481771
1772025736246843400,7.772843505859375,-0.461094831982255,-0.38254210427105423,-0.7912124831415712
1772025736256841200,7.78284130859375,-0.41949850074648853,-0.3871998669490218,-0.7937273155067116
1772025736266838300,7.79283837890625,-0.43864860689640045,-0.47650049090683455,-0.7035168832276016
1772025736276836400,7.80283642578125,-0.5280179121762514,-0.6538809648558497,-0.5369271948188543
1772025736286833400,7.81283349609375,-0.6925257528096437,-0.6837368816763162,-0.4466325913876295
1772025736296830200,7.822830322265625,-0.8530266958892345,-0.5429840106397867,-0.3939177770271897
1772025736306828300,7.832828369140625,-0.855536048361659,-0.5454013009145856,-0.40891047123670576
1772025736316825300,7.842825439453125,-0.8216817095547914,-0.6751394414618611,-0.4543365898936987
1772025736326823200,7.8528232421875,-0.851056272599101,-0.6769608116701245,-0.4466840293139219
1772025736336820500,7.862820556640625,-0.8951841681391001,-0.6237433084845543,-0.3595860299669206
1772025736346817300,7.8728173828125,-0.8708522754371165,-0.5879018875136971,-0.3639276393678039
1772025736356815400,7.8828154296875,-0.8161872037917375,-0.47509120863080023,-0.3306667364094406
1772025736366812200,7.892812255859375,-0.7661246575057507,-0.3488575690731406,-0.2667183611772954
1772025736376809500,7.9028095703125,-0.739370506092906,-0.2952837997958064,-0.2028566413152963
1772025736386807300,7.912807373046875,-0.7600456298530102,-0.24692601160109043,-0.1778050560366362
1772025736396804400,7.922804443359375,-0.7622937010407448,-0.15464900218099356,-0.17519268158115445
1772025736406802200,7.93280224609375,-0.7011304995477199,-0.04978489838838577,-0.1503773892764002
1772025736416799200,7.94279931640625,-0.5767389807254075,0.07523644277006387,-0.1282972210239619
1772025736426796300,7.95279638671875,-0.45720366976261134,0.22532266708016394,-0.051015536161884666
1772025736436794400,7.96279443359375,-0.3977303210526705,0.4032379785582423,0.029914442074671387
1772025736446791200,7.972791259765625,-0.2893465187013149,0.5732903015762567,0.017803879172727466
1772025736456789000,7.9827890625,0.009428922602534294,0.6072437168434262,0.05617774123065173
1772025736466786000,7.9927861328125,0.17144436189830303,0.7514762466892599,0.01036678797453642
1772025736476783000,8.002783203125,0.31603987983763215,0.9445733452081679,-0.0028127193331718443
1772025736486781200,8.01278125,0.548345245411992,0.9882669409841298,-0.006372603771835565
1772025736496778000,8.022778076171875,0.7396750419974326,0.9247007700026034,0.05591404879316687
1772025736506776000,8.032776123046874,0.7535141822576522,0.9344128934606909,0.12322978156656027
1772025736516772900,8.04277294921875,0.792636816856265,0.9098720341831446,0.23657975495792924
1772025736526770200,8.052770263671874,0.8228951769977807,0.9599316578596829,0.31528299705572427
1772025736536768000,8.06276806640625,0.8228700425565242,0.9880120894402264,0.4768221240766346
1772025736546765000,8.07276513671875,0.7439964123278856,0.9395610700041055,0.5992093173392117
1772025736556761900,8.082761962890626,0.614963205179572,0.8350757363960146,0.68379986390993
1772025736566760000,8.092760009765625,0.5483189419269562,0.621378917440772,0.7827617579214274
1772025736576757000,8.102757080078124,0.47329964903891086,0.4379080176621675,0.8719922392524778
1772025736586755000,8.112755126953125,0.46042730798423287,0.3309945801243186,0.9328259165301919
1772025736596752000,8.122751953125,0.47585751682817934,0.2665402281314134,0.9222023773156106
1772025736606749200,8.132749267578125,0.44554070449769495,0.21683453245908021,0.85803100698255
1772025736616747300,8.142747314453125,0.3500017706722021,0.19161562778949737,0.743693995315209
1772025736626744000,8.152744140625,0.26349486908614633,0.20464462071061132,0.6393110261030495
1772025736636742100,8.1627421875,0.12476502830982207,0.2364066634133458,0.6040615066107362
1772025736646739000,8.172739013671874,-0.02631692903935909,0.2810597518712282,0.5688731427211314
1772025736656736300,8.182736328125,-0.053199675267934794,0.3140305858418345,0.4757775103945285
1772025736666734000,8.192734130859375,0.014313187512755393,0.3527209665030241,0.2744462520156056
1772025736676731100,8.202731201171876,0.2625917827665806,0.3714639531567693,0.09092406044118106
1772025736686728000,8.21272802734375,0.5304109447926283,0.4320476011961698,0.0075022653888911
1772025736696726000,8.22272607421875,0.710563513803482,0.4666343459308147,0.05480206896327436
1772025736706723000,8.23272314453125,0.7941068894088268,0.4534393487930298,0.12514555206000805
1772025736716721200,8.24272119140625,0.8485773152649402,0.38090515071898695,0.2327976791359484
1772025736726718000,8.252718017578125,0.8893161528885364,0.3046317661166191,0.3896455065354705
1772025736736715000,8.262715087890625,0.8128893312901257,0.24189766204506158,0.6044023559376597
1772025736746712800,8.272712890625,0.7286556353330612,0.09937018255144357,0.7426943898186087
1772025736756710100,8.282710205078125,0.7519710444688796,-0.09943068056702613,0.8369535129666328
1772025736766708200,8.292708251953124,0.702316494461894,-0.1417827986061573,0.8556370245181023
1772025736776705000,8.302705078125,0.6434650770425796,-0.1805909604281187,0.8294998359598219
1772025736786701800,8.312701904296874,0.5797276411473751,-0.25860651252269745,0.770687727637589
1772025736796700000,8.322699951171876,0.5032482125788926,-0.28612609535008665,0.7026718837708235
1772025736806697200,8.332697265625,0.37853812932670117,-0.26794132710099217,0.6343742272879928
1772025736816695000,8.342695068359374,0.30006781920194625,-0.26681027724444867,0.5575661512870341
1772025736826692000,8.352692138671875,0.2575532040774822,-0.2771113065063953,0.45734885038696227
1772025736836689000,8.36268896484375,0.21917349680066106,-0.26796616928130385,0.36155711084417996
1772025736846687000,8.37268701171875,0.125966220793128,-0.262775614900887,0.343914559713006
1772025736856684000,8.38268408203125,0.002555529701709747,-0.2847963080510497,0.2884899018719792
1772025736866681000,8.39268115234375,-0.08269055816829204,-0.3215753021329641,0.23898235912024973
1772025736876679000,8.402678955078125,-0.14323650454580783,-0.38682840328812595,0.23375571051314473
1772025736886676000,8.412676025390626,-0.18414193090796468,-0.465992248634994,0.21979937361404298
1772025736896673800,8.422673828125,-0.27488486262857914,-0.5306026679724455,0.25420389364957807
1772025736906671000,8.432671142578124,-0.361650707411766,-0.5532675042450428,0.2984870528165251
1772025736916668000,8.44266796875,-0.3685153324842453,-0.5515227064043283,0.3368193407550454
1772025736926666000,8.452666015625,-0.4219324498951435,-0.5866504261478781,0.3581361964847892
1772025736936663000,8.4626630859375,-0.40272856773138044,-0.648460693372786,0.4064082060921937
1772025736946661000,8.4726611328125,-0.3485515718638897,-0.6617892537623643,0.4607670613326132
1772025736956658200,8.482658203125,-0.3407207321077585,-0.6011310791820287,0.5570620011571794
1772025736966655000,8.492655029296875,-0.344550519528985,-0.5656307267338038,0.6227684721030294
1772025736976653000,8.502653076171875,-0.3546931433588266,-0.5783130981743335,0.6066195935957134
1772025736986650000,8.512650146484376,-0.3280255011856556,-0.5762213865920901,0.6004178894113749
1772025736996648200,8.522648193359375,-0.3020686376303434,-0.533598634918034,0.5902070957161486
1772025737006645000,8.53264501953125,-0.32904958353638647,-0.4748074232533574,0.6068874507516622
1772025737016642000,8.54264208984375,-0.37750001845061776,-0.4682660387858748,0.6132869425304234
1772025737026640000,8.552639892578124,-0.41167233716547486,-0.5531573218688368,0.6989678416211158
1772025737036637200,8.56263720703125,-0.47516310482323165,-0.7813359629020095,0.8608473065122961
1772025737046634000,8.572634033203125,-0.6038625499725342,-0.9461728893592953,0.9518539306703955
1772025737056632000,8.582632080078126,-0.6818471224069594,-0.7215057635784149,0.9296465558417141
1772025737066628900,8.59262890625,-0.6317986046463251,-0.4678548276364803,0.9034627516627312
1772025737076627000,8.602626953125,-0.6599895108640194,-0.511664451007545,0.8631998609878122
1772025737086624300,8.612624267578125,-0.8143255015730857,-0.6125736796945334,0.831039320486784
1772025737096621000,8.62262109375,-0.8927724308222532,-0.5349100097775459,0.7884460141029208
1772025737106619100,8.632619140625,-0.8540268128424883,-0.3089572281002998,0.6623642771713435
1772025737116616000,8.642615966796875,-0.7686573908537626,-0.10165653992295265,0.5060596532704308
1772025737126614000,8.652614013671876,-0.6935796457767486,-0.0041273090630769725,0.3827280918298289
1772025737136611000,8.662611083984375,-0.6472369967967272,0.043245267486572266,0.27591431527417154
1772025737146608000,8.672608154296874,-0.6334247445434331,0.17875994560867547,0.14008501824494451
1772025737156606000,8.68260595703125,-0.6496247687160969,0.33949703553169963,0.048239605175144966
1772025737166603000,8.69260302734375,-0.618178660094738,0.4141197303175926,-0.04543536140937358
1772025737176600000,8.70260009765625,-0.5464326897889376,0.4591185634732246,-0.20066789909936486
1772025737186598100,8.71259814453125,-0.4821107320040464,0.5802873208567499,-0.3755925408614799
1772025737196595000,8.722594970703126,-0.3647586102992296,0.7618260835289955,-0.5283345769099891
1772025737206593000,8.732593017578125,-0.20372984395325183,0.8512479957789182,-0.6188263103485107
1772025737216589800,8.74258984375,-0.11370938128829002,0.8394134733393788,-0.682240651769191
1772025737226587100,8.752587158203125,-0.08137596843838692,0.8181810079574584,-0.7639880838684737
1772025737236585200,8.762585205078125,0.05285656091868877,0.8309978194326162,-0.8340040155112743
1772025737246582000,8.77258203125,0.17626666748821734,0.8514096160814165,-0.8276471207652241
1772025737256580000,8.782580078125,0.2051905641555786,0.7998103617474436,-0.774395057722926
1772025737266577000,8.792576904296874,0.2923883706152439,0.6732508512362837,-0.7467373815990984
1772025737276574200,8.80257421875,0.35152328115105624,0.6185384333178401,-0.7168485123571008
1772025737286572000,8.812572021484375,0.376108271831274,0.6250044144615531,-0.733952572697401
1772025737296569000,8.822569091796876,0.40039807895720003,0.6157312669426203,-0.7263372753880918
1772025737306567000,8.83256689453125,0.4837485623389482,0.5409259090662002,-0.6611585546433926
1772025737316564000,8.84256396484375,0.6069406422436237,0.40405104850679635,-0.6124299969075248
1772025737326561000,8.85256103515625,0.7069394780874252,0.29303368278145786,-0.600569755504839
1772025737336559000,8.86255908203125,0.7413514507770538,0.2589022805988788,-0.6071775928046554
1772025737346556000,8.872555908203125,0.7261778470426797,0.2773366396948695,-0.6171995128642768
1772025737356553000,8.882552978515625,0.6449146913290024,0.31571722375452516,-0.5596627582401037
1772025737366551000,8.892551025390626,0.6074982761263847,0.34369419496059417,-0.5251348310206085
1772025737376548000,8.902548095703125,0.6529471911370753,0.40356443403363224,-0.49120779230371114
1772025737386546200,8.912546142578124,0.7274497666746378,0.44142011743634935,-0.5330352288816124
1772025737396543000,8.92254296875,0.7877309246361255,0.43437019892483947,-0.5888596996951848
1772025737406540000,8.9325400390625,0.8595446994811295,0.3576435175970197,-0.5919805351294577
1772025737416538000,8.9425380859375,0.9203536807090044,0.23809154776036737,-0.5543777305092662
1772025737426535200,8.95253515625,0.8986316782444715,0.14249533078968524,-0.5013447170451283
1772025737436533000,8.962532958984376,0.8171510803878307,0.03177811705470085,-0.4434633137017488
1772025737446530000,8.972530029296875,0.7795218992173671,-0.12541063273698091,-0.34656543954797087
1772025737456527400,8.98252734375,0.7303554249882698,-0.2703343597173691,-0.24548100042454896
1772025737466525400,8.992525390625,0.6340577817499637,-0.4031920935899019,-0.13042502683289348
1772025737476522200,9.002522216796875,0.5396832155287266,-0.5513391665309667,-0.06815050309710204
1772025737486520300,9.012520263671876,0.5069751241475343,-0.6756251791521907,-0.05913819847144186
1772025737496517000,9.02251708984375,0.5216296724438667,-0.7447320331260562,-0.12031214055418968
1772025737506514400,9.032514404296874,0.43330841491222377,-0.7871741675361991,-0.18359226113595067
1772025737516512300,9.04251220703125,0.3169797910362482,-0.7988701582878828,-0.2909485470704734
1772025737526509300,9.05250927734375,0.24613456896245478,-0.787793468478322,-0.43365225991383194
1772025737536506000,9.062506103515625,0.20829028373658656,-0.7681471032440662,-0.507726015580073
1772025737546504200,9.072504150390625,0.17484569477438924,-0.6949170318603515,-0.5446132923420518
1772025737556501200,9.082501220703126,0.136619132232666,-0.5999708032310008,-0.5748052361838519
1772025737566499300,9.092499267578125,0.11502514006197452,-0.5192205654755234,-0.6051042936619371
1772025737576496000,9.10249609375,0.10273264472186565,-0.4194555383875966,-0.6213107475753873
1772025737586493200,9.1124931640625,0.0887877059996128,-0.29709201826155185,-0.6287745075847954
1772025737596491000,9.122490966796875,0.0629284575998783,-0.23358926790505646,-0.6676854721941053
1772025737606488300,9.13248828125,0.05029577051997185,-0.22260200994461773,-0.6599132307574153
1772025737616486400,9.142486328125,0.01694412053823471,-0.2426978725120425,-0.6258272020865231
1772025737626483200,9.152483154296876,-0.0395358915746212,-0.23819851526618002,-0.5890327912397683
1772025737636480000,9.16247998046875,-0.06266542274951935,-0.2423360534623265,-0.5160671429459005
1772025737646478000,9.17247802734375,-0.07793079642057418,-0.22968290811628103,-0.5108782690659165
1772025737656475400,9.182475341796875,-0.16362988875508308,-0.19974165109992026,-0.5119589769747108
1772025737666472200,9.19247216796875,-0.26339842297434807,-0.24627953039109707,-0.5436385290257633
1772025737676470300,9.20247021484375,-0.37215865742266174,-0.3101061058744788,-0.5748397229753435
1772025737686467000,9.212467041015625,-0.500041525492072,-0.3457239472225308,-0.5552746793489903
1772025737696465200,9.222465087890624,-0.5837210946977138,-0.3673077102601528,-0.5706000395789742
1772025737706462200,9.232462158203125,-0.6265700563430786,-0.36541824325174094,-0.614419380626455
1772025737716459300,9.242459228515624,-0.6554419305622577,-0.3651689446657896,-0.7017738389525562
1772025737726457000,9.25245703125,-0.6823024649590254,-0.3925146322309971,-0.7105330455999821
1772025737736454100,9.2624541015625,-0.7101818210095167,-0.5047793676689267,-0.5996817571565508
1772025737746452000,9.272451904296876,-0.7759136455923319,-0.694462858352065,-0.49633923690803344
1772025737756449300,9.28244921875,-0.8953951805412769,-0.6713847651034593,-0.4765018791463226
1772025737766446000,9.292446044921874,-0.9836024563044309,-0.4924725515425205,-0.4535120487030595
1772025737776444200,9.302444091796875,-0.9783528652131557,-0.46019934444725513,-0.481547764359042
1772025737786441000,9.31244091796875,-0.9179255767792462,-0.5595362092509866,-0.4703572389114648
1772025737796438300,9.322438232421876,-0.913105024755001,-0.5733940542116761,-0.3507182483784854
1772025737806435000,9.33243505859375,-0.8914473196983337,-0.4664633732780814,-0.2581999044831842
1772025737816433200,9.34243310546875,-0.7997218066811561,-0.30934155124276874,-0.15895210620239375
1772025737826430200,9.35243017578125,-0.6626724663376807,-0.23395576312988994,-0.05777757764272391
1772025737836427300,9.36242724609375,-0.6393190632790327,-0.2662774855419993,0.0574500261887908
1772025737846425300,9.37242529296875,-0.6532002891153097,-0.2478068860888481,0.19806071227565406
1772025737856422100,9.382422119140625,-0.6521510723233223,-0.18643676384687421,0.3065726710513234
1772025737866420200,9.392420166015626,-0.6940747358173132,-0.16365648450106382,0.32835363716147836
1772025737876417300,9.402417236328125,-0.7298901455640793,-0.1690583435446024,0.24390235293097792
1772025737886414300,9.412414306640626,-0.7076572709679603,-0.15943915906697512,0.18950053533166647
1772025737896412200,9.422412109375,-0.6550175676703452,-0.0980573463872075,0.13573635804876685
1772025737906409200,9.4324091796875,-0.6454927834779024,0.011318389610946177,0.0910601079110056
1772025737916407000,9.442406982421875,-0.6089753629416227,0.14943331335932014,0.09130670308321714
1772025737926404400,9.452404296875,-0.48298868388235566,0.2781561393842101,0.10546206968575715
1772025737936401200,9.462401123046876,-0.27102701815664765,0.39066432818919417,0.08234108714349568
1772025737946399200,9.472399169921875,-0.03312719357609749,0.5264575309917331,0.05654087545461953
1772025737956396000,9.48239599609375,0.19259177934527397,0.7092322651997208,0.00650711687169969
1772025737966393300,9.492393310546875,0.3220376589477062,0.9352554817646741,-0.005682794876769185
1772025737976391400,9.502391357421875,0.4666624029815197,1.0520072994887828,0.08096548794135451
1772025737986388200,9.51238818359375,0.7137398057520389,1.0464619403213262,0.14087605902478098
1772025737996386300,9.52238623046875,0.893345262274146,1.0330632373049855,0.26871209227778015
1772025738006383000,9.532383056640626,1.0035790764063597,0.9351265946879982,0.403445483829081
1772025738016380400,9.54238037109375,1.0526730699211357,0.7922031016141176,0.5402000790096819
1772025738026378200,9.552378173828124,0.9662585227936505,0.6963301135286688,0.689384166848287
1772025738036375300,9.562375244140625,0.846615659803152,0.6062520754575729,0.8529149791430681
1772025738046373000,9.572373046875,0.6805325326770544,0.49746203039288517,1.0145132159400732
1772025738056370200,9.5823701171875,0.48404783754646774,0.3147150609746575,1.1794036992155015
1772025738066367200,9.5923671875,0.38421032974421976,0.09903788185715674,1.2948165234208107
1772025738076365300,9.602365234375,0.2883440636605024,-0.060471127575635907,1.3678750376299023
1772025738086362000,9.612362060546875,0.07697977930605411,-0.1506055720090866,1.4085871333770452
1772025738096359200,9.622359130859374,-0.0026490532040596006,-0.1350327398240566,1.3892980571478604
1772025738106357000,9.63235693359375,0.02202127767205238,-0.03510784599930048,1.2913847954064608
1772025738116354300,9.642354248046875,-0.018979425758123395,0.11855623679757117,1.1495854840569197
1772025738126352400,9.652352294921876,-0.065717211535573,0.3050169660419226,0.9519389786053448
1772025738136349200,9.66234912109375,-0.14478548755347728,0.5113204598754644,0.7959321320746093
1772025738146346000,9.672345947265624,-0.1831219402104616,0.7094716269135475,0.61950121393539
1772025738156344000,9.682343994140625,-0.11295125639736651,0.8384539806574582,0.4457967981506139
1772025738166341400,9.69234130859375,0.03777764973044395,0.9394918041601776,0.3277683115541935
1772025738176339200,9.702339111328126,0.23566169026494024,1.0437181945711373,0.23818127187043428
1772025738186336300,9.712336181640625,0.4744944117814302,1.0469298500940203,0.14834427601359784
1772025738196333000,9.7223330078125,0.6918412776768207,0.9596677462264895,0.09966551223620772
1772025738206331100,9.7323310546875,0.7924293115854263,0.8233098952785134,0.12943097429424524
1772025738216328200,9.742328125,0.7975374483793973,0.662845484817028,0.24588497811555862
1772025738226325200,9.7523251953125,0.765051475316286,0.4833452422350645,0.46643129763938485
1772025738236323000,9.762322998046875,0.7044792254537343,0.2982791822195053,0.7123005667291581
1772025738246320000,9.772320068359376,0.6773135706305503,0.07824030076116323,0.8545401691921055
1772025738256318200,9.782318115234375,0.6484633237212896,-0.1258688978984952,0.8880110616393386
1772025738266315300,9.792315185546874,0.5306225417166948,-0.2715241540238261,0.9506855444781481
1772025738276312000,9.80231201171875,0.4442559253841638,-0.3622632863521576,1.041010981439054
1772025738286310100,9.81231005859375,0.46757016547620295,-0.38899551819413897,1.187149417971447
1772025738296307200,9.82230712890625,0.5181704719007015,-0.3533902440667152,1.2014408320438117
1772025738306305300,9.83230517578125,0.48388358689546584,-0.3541857783585787,1.0565846904069185
1772025738316302300,9.84230224609375,0.3543365850061178,-0.41492198661118745,0.946212636847794
1772025738326299100,9.852299072265625,0.2580968094348907,-0.4483534238308668,0.8341700197279452
1772025738336297200,9.862297119140624,0.1940583447664976,-0.436206182180345,0.6862612855874002
1772025738346294300,9.872294189453125,0.10887129360735416,-0.4616945514410734,0.5312400890931487
1772025738356292400,9.882292236328125,0.02160918973982334,-0.5175213603422045,0.4189502922791987
1772025738366289200,9.8922890625,-0.067115972417593,-0.5198360670253634,0.4189551145847887
1772025738376286200,9.9022861328125,-0.1310509767115116,-0.4921987030372023,0.4975077692307531
1772025738386284000,9.912283935546874,-0.15574235037565232,-0.48849663364887236,0.5446314855858684
1772025738396282000,9.9222822265625,-0.2730453722417354,-0.5319499909281731,0.5511572340928018
1772025738406280200,9.9322802734375,-0.3453501454740763,-0.4937169986456632,0.5732991424698383
1772025738416277200,9.94227734375,-0.41887072423696514,-0.4132382713079452,0.5678717105936258
1772025738426275300,9.952275390625,-0.44494449217021464,-0.362290466620028,0.55207917124331
1772025738436272000,9.962272216796874,-0.45523441551625726,-0.3546393673449755,0.5542985277932136
1772025738446269200,9.972269287109375,-0.5148386971294879,-0.3236336959674954,0.5302958670455962
1772025738456268000,9.98226806640625,-0.5155512293130159,-0.2664288767114282,0.44282552725486457
1772025738466265000,9.99226513671875,-0.5555810418844223,-0.24518852028399704,0.34488822705075145
1772025738476263200,10.00226318359375,-0.607566665187478,-0.2606429867863655,0.3118179512936622
1772025738486260000,10.012260009765624,-0.5816536407738924,-0.3392886534780264,0.3924942470300942
1772025738496257000,10.022257080078125,-0.5759598130464554,-0.5804726142957807,0.6021945802276953
1772025738506255000,10.032255126953125,-0.6764467246681451,-0.81694708224833,0.7445780116081238
1772025738516252200,10.042252197265626,-0.8221218545377253,-0.6544900366649031,0.6847996886022388
1772025738526249000,10.0522490234375,-0.8520721716433763,-0.39310470707863565,0.6023213849451392
1772025738536247000,10.0622470703125,-0.8560644561499356,-0.40700814474672076,0.5388434402363375
1772025738546244000,10.072244140625,-0.8816086472511291,-0.5341220742702484,0.47435752406138926
1772025738556242000,10.082241943359374,-0.8943599922746419,-0.6285939633861184,0.4293821448465809
1772025738566239200,10.0922392578125,-0.8381266483992338,-0.6630524055659771,0.3975841540476307
1772025738576236000,10.102236083984375,-0.7842606181770563,-0.5470011373266578,0.38940968848560004
1772025738586234000,10.112234130859376,-0.6944324632138014,-0.3979123996213078,0.42484852000493556
1772025738596231000,10.12223095703125,-0.6091904669970274,-0.34215894821733234,0.41368773210849613
1772025738606229000,10.13222900390625,-0.5974731411963701,-0.27888006974458696,0.3605480799321085
1772025738616226000,10.14222607421875,-0.638917496740818,-0.10362959356158971,0.27162297475580127
1772025738626223000,10.15222314453125,-0.6404863534927367,0.11751637235581874,0.12911746963197365
1772025738636221000,10.162220947265626,-0.5825865377098322,0.29607465791255233,-0.12402893258761614
1772025738646218000,10.172218017578125,-0.44265199731886384,0.44644642116576433,-0.3850464517747983
1772025738656215000,10.182215087890626,-0.2478074706107378,0.6919400618761777,-0.5976518587641417
1772025738666213000,10.192213134765625,-0.035651159095764155,0.9136410313278436,-0.7851694766502827
1772025738676210000,10.2022099609375,0.11019991186261176,1.0294999918654562,-0.9661940061900764
1772025738686208000,10.2122080078125,0.363498965626955,1.0639660328298806,-1.067070793912187
1772025738696205000,10.222205078125,0.6799234608680009,1.0668591239228844,-1.0917926357798278
1772025738706202000,10.2322021484375,0.8766548242360352,1.045296695934236,-1.0184531126722693
1772025738716200200,10.2422001953125,0.860258400708437,0.9394535179764032,-0.8138326765548437
1772025738726197000,10.252197021484376,0.828732212588191,0.7097583349004387,-0.613139862209931
1772025738736195000,10.262195068359375,0.8031196324259042,0.501257623283565,-0.4740111948417499
1772025738746192000,10.27219189453125,0.7714303626984358,0.41009266675859685,-0.4104937949053943
1772025738756189200,10.282189208984375,0.6574941869169473,0.39683161864727734,-0.2672599755070172
1772025738766187000,10.29218701171875,0.49546296553015706,0.37478374522924424,-0.1685153044427745
1772025738776184000,10.30218408203125,0.43184126496911046,0.33097558316290376,-0.10458441006839275
1772025738786180900,10.312180908203125,0.4664911380678415,0.2751446826085448,-0.11711473275236785
1772025738796179000,10.322178955078124,0.5405032997399568,0.2595934777334332,-0.1749498492686078
1772025738806176000,10.332176025390625,0.5452022712111473,0.28156214843541383,-0.2176067954732105
1772025738816174000,10.342174072265625,0.4934259067445993,0.32297289397120477,-0.22232527536246924
1772025738826171000,10.3521708984375,0.41616847954094405,0.344326647645235,-0.2276535211805254
1772025738836168000,10.36216796875,0.35752339834868907,0.4109294098436832,-0.1924543436359614
1772025738846166000,10.372166015625,0.34561551841199395,0.4802183423861861,-0.22163831601161507
1772025738856163000,10.3821630859375,0.3583464051693678,0.4602829310774803,-0.2669751854825765
1772025738866161200,10.3921611328125,0.33207740692496296,0.4097577357158065,-0.31253296769522126
1772025738876158000,10.402157958984375,0.3376578374058008,0.3761065182656049,-0.31697946224268525
1772025738886155000,10.412155029296875,0.43116964931786056,0.3158934571042657,-0.24983406280120835
1772025738896153000,10.422153076171876,0.4734469485551119,0.25690935321599245,-0.21239766425648704
1772025738906150100,10.432150146484375,0.4784732522845268,0.19815233608186245,-0.20256218841336665
1772025738916148000,10.44214794921875,0.5304232197523117,0.1325657651886344,-0.16821946330135687
1772025738926145000,10.45214501953125,0.5755769512087107,0.07533084305524826,-0.08275176856992766
1772025738936142000,10.46214208984375,0.5345101968050002,-0.04239741848558187,0.002502721802238375
1772025738946140200,10.47214013671875,0.41356911069750785,-0.16453092924803495,0.061534044099412856
1772025738956137000,10.482136962890625,0.2930997337549925,-0.2291150451004505,0.09169756556432694
1772025738966134000,10.492134033203126,0.22072131076455115,-0.2820271355986595,0.041412462568841873
1772025738976131800,10.5021318359375,0.18374328697919845,-0.3328817090451717,-0.04076031880304217
1772025738986129200,10.512129150390624,0.0998415994554758,-0.3556912144854665,-0.14876072959369047
1772025738996127200,10.522127197265625,0.017668927681446074,-0.33511516718566414,-0.2687076352983713
1772025739006124000,10.5321240234375,0.008565583771467208,-0.31136136663258074,-0.4080997759083286
1772025739016121000,10.54212109375,-0.008735095119476318,-0.30133564718067646,-0.5284245567483827
1772025739026119000,10.552118896484375,-0.02558160050213337,-0.2988353547975421,-0.5976432005336508
1772025739036116200,10.5621162109375,-0.0045984337061643595,-0.2754267144203186,-0.5908956990348175
1772025739046114000,10.572114013671875,0.018853753551840782,-0.23965280572772024,-0.5234954663157463
1772025739056111000,10.582111083984374,0.0422024804353714,-0.21355536465793848,-0.5127812166104093
1772025739066108000,10.59210791015625,0.0641010085105896,-0.205911571906507,-0.49541792081203306
1772025739076106000,10.60210595703125,0.077651394957304,-0.21821020472645758,-0.4761306712137535
1772025739086103000,10.61210302734375,0.09523030626773833,-0.23605711932331322,-0.411026038618572
1772025739096101000,10.62210107421875,0.1440612649321556,-0.24148498959094283,-0.3108271866906434
1772025739106098000,10.632097900390624,0.1737064616113901,-0.2777969506829977,-0.25357224468253553
1772025739116095000,10.642094970703125,0.09334580769538879,-0.37349458220154047,-0.2535105776231736
1772025739126093000,10.652093017578125,0.013936755415797232,-0.481540823161602,-0.29108930724803356
1772025739136090000,10.662090087890626,0.044399698218703265,-0.5039382406696676,-0.3240226222198456
1772025739146087000,10.6720869140625,0.004765606966614723,-0.4934399352699518,-0.2609317040672526
1772025739156085000,10.6820849609375,0.017532149559259413,-0.5413993717968464,-0.26523276226203885
1772025739166082000,10.69208203125,0.1496171454936266,-0.5984104220464825,-0.1575137074297294
1772025739176080000,10.702079833984374,-0.21758359726071355,-0.5857394487828016,-0.13023290179427713
1772025739186077200,10.7120771484375,-0.49373511882424354,-0.6281596636220812,-0.4407438986752182
1772025739196074000,10.722073974609375,-0.6083505090415477,-0.6595908669352532,-0.6703085141740739
1772025739206072000,10.732072021484376,-0.6117559335708618,-0.6048603288382292,-0.7366153621658682
1772025739216068900,10.74206884765625,-0.6246615923732519,-0.5539630852937698,-0.8258042693775147
1772025739226067000,10.75206689453125,-0.6615355712622404,-0.6619307080596685,-0.8229945457190275
1772025739236064000,10.76206396484375,-0.6550543925493956,-0.8667664674282074,-0.6494022850718348
1772025739246061000,10.77206103515625,-0.5714373671859503,-0.9001587416812777,-0.6700292588412762
1772025739256059000,10.782058837890625,-0.5192062446892262,-0.7011047805845737,-0.6688384416215122
