time,seconds_elapsed,z,y,x
1772025705350227000,0.07422705078125,1.2382581853747368,-0.6642655807480216,-0.09456285533495247
1772025705360223700,0.0842236328125,1.0856506258934735,-0.6781444684967398,-0.08381232873983681
1772025705370221800,0.094221923828125,0.9487257887125015,-0.6751803579941391,-0.11852401502840221
1772025705380218600,0.104218505859375,0.9325836322069168,-0.6457669242441654,-0.213714281546697
1772025705390216000,0.1142158203125,0.954426046180725,-0.5801368064701556,-0.35723084514290093
1772025705400213800,0.1242138671875,0.791178434741497,-0.50812078705132,-0.42372612837888296
1772025705410210800,0.1342109375,0.5411427666872739,-0.4448234961390495,-0.41225890488177536
1772025705420211500,0.14421142578125,0.5061269828855991,-0.4210995062023401,-0.42155061097070573
1772025705430209300,0.154209228515625,0.6274661283999681,-0.37831396518200633,-0.41347602558657526
1772025705440206600,0.16420654296875,0.6874082636654376,-0.31633301756530996,-0.39111119517385956
1772025705450203400,0.174203369140625,0.5834498765408992,-0.27080256175100803,-0.3485354975119233
1772025705460201500,0.184201416015625,0.42000469670295715,-0.2954758152365684,-0.27746983762048183
1772025705470198300,0.1941982421875,0.23962299511134624,-0.3420288920968771,-0.17652246888019144
1772025705480196400,0.2041962890625,0.0346124636977911,-0.3939920113071799,-0.08786591497957706
1772025705490193400,0.214193359375,-0.15661679512262344,-0.3488783196002245,-0.0625476415887475
1772025705500190500,0.2241904296875,-0.2341074465602636,-0.27382512444257734,-0.12994608420953155
1772025705510188500,0.2341884765625,-0.2052297271221876,-0.28960867676883933,-0.2601629481844604
1772025705520185300,0.244185302734375,-0.2014823572874069,-0.3460653080061078,-0.3331086496688425
1772025705530182400,0.254182373046875,-0.32701077118515964,-0.40718496261835097,-0.31753903235420583
1772025705540180500,0.264180419921875,-0.6138637195050716,-0.45493806291818617,-0.19155366846919059
1772025705550177500,0.274177490234375,-0.8841331972926855,-0.4926736270725727,-0.10313245769441128
1772025705560174600,0.284174560546875,-0.909776172593236,-0.5401511253014206,-0.12473317186683415
1772025705570172700,0.294172607421875,-0.8521095810443162,-0.5408814854025841,-0.1535509778112173
1772025705580169500,0.30416943359375,-0.8952204084962606,-0.6012117432028055,-0.14510039872154593
1772025705590167600,0.31416748046875,-1.0120797782480717,-0.8302779807254671,-0.08294862458258867
1772025705600164400,0.324164306640625,-1.155803774049878,-1.1834630576089025,0.06788257287591695
1772025705610161700,0.33416162109375,-1.4190917223870754,-1.1866373037308453,0.060772887001186604
1772025705620159500,0.344159423828125,-1.557472019073367,-0.9209943167001008,0.09899112010598182
1772025705630156500,0.354156494140625,-1.5531652617901563,-0.9137570589229465,0.14298282204568386
1772025705640153300,0.3641533203125,-1.6519482921034097,-1.0519038391143083,0.16612959661632776
1772025705650151400,0.3741513671875,-1.8026888886690138,-1.121192771656811,0.26895927197188135
1772025705660148500,0.3841484375,-1.9283365450322627,-1.0220146045461296,0.32598508139923216
1772025705670145500,0.3941455078125,-1.999213331288099,-0.7036147175788879,0.29853403376340865
1772025705680143400,0.404143310546875,-1.8831740457475183,-0.3599935878545046,0.2648185189053416
1772025705690140400,0.414140380859375,-1.6401801128983498,-0.11474866120815276,0.22934753868207333
1772025705700137500,0.424137451171875,-1.4650661225765942,0.06088906072676181,0.24405308651328086
1772025705710135600,0.434135498046875,-1.3045745318472384,0.24848902313411234,0.3066338997192681
1772025705720132600,0.444132568359375,-1.1195979036808013,0.5022220844015479,0.33699835058376193
1772025705730130400,0.45413037109375,-0.965175988253951,0.7266331895947455,0.3242934750504792
1772025705740127500,0.46412744140625,-0.6921896527230739,0.8550719379812478,0.29892537116855383
1772025705750124500,0.47412451171875,-0.3699117552787065,0.9492956975549459,0.2419524609722197
1772025705760122600,0.48412255859375,-0.09932897375822067,1.0124135402470826,0.21151509100198745
1772025705770119400,0.494119384765625,0.08413198914825916,1.0660478075399995,0.19835648035183548
1772025705780116500,0.504116455078125,0.24025077162086964,1.1095727687507868,0.20395050096660852
1772025705790114300,0.5141142578125,0.4700234038472175,1.1595178261369465,0.2089946326136589
1772025705800111600,0.524111572265625,0.7791092267632485,1.220105565829575,0.20628201265409588
1772025705810108400,0.5341083984375,1.0867471889585256,1.209273790691793,0.22212642832212148
1772025705820106500,0.5441064453125,1.3226917878180742,1.0661726029634475,0.31415910759232935
1772025705830103300,0.554103271484375,1.4608382757484912,0.894718011932075,0.43125265142619607
1772025705840101400,0.564101318359375,1.5363970823407171,0.8017898451268672,0.5727639396145939
1772025705850098400,0.574098388671875,1.6429758810967205,0.7814435149297118,0.7081431547887623
1772025705860095500,0.584095458984375,1.718161178201437,0.7624974069193005,0.8200663833126425
1772025705870093600,0.594093505859375,1.6688976733386516,0.6605272710025311,0.9352055782083422
1772025705880090400,0.60409033203125,1.4800415733903645,0.47544981281012294,1.111363597690314
1772025705890087400,0.61408740234375,1.2794897749513388,0.23477964673340318,1.3177213059291242
1772025705900085500,0.62408544921875,1.1479787795126437,0.006670563805103302,1.4940835427463053
1772025705910082600,0.63408251953125,1.0039560930252074,-0.15562106208354234,1.669579518122971
1772025705920079400,0.644079345703125,0.7755471503674983,-0.25052783548533913,1.794438069935143
1772025705930077400,0.654077392578125,0.4694757068365812,-0.2837479680418968,1.7438108755037187
1772025705940074500,0.664074462890625,0.16428163066208362,-0.24048808750808237,1.6420006063237784
1772025705950071600,0.674071533203125,-0.10679156472384929,-0.13235475278645753,1.5616098495304584
1772025705960069400,0.6840693359375,-0.43903848299682136,0.0023509470403194426,1.4598907657653093
1772025705970066400,0.69406640625,-0.7700859623521565,0.13891542647629976,1.3587738856770097
1772025705980064500,0.704064453125,-0.9994184495955705,0.26518355282545086,1.2006598377339541
1772025705990061600,0.7140615234375,-1.0169500146329402,0.3623033261016011,0.9099660691421478
1772025706000058400,0.724058349609375,-0.8522679864764213,0.44822950519025323,0.6207832896351814
1772025706010056400,0.734056396484375,-0.5452291592180729,0.5582438313528895,0.30913221934102475
1772025706020053500,0.744053466796875,-0.14226970534026623,0.633788609419763,-0.007443447873741388
1772025706030050600,0.754050537109375,0.3247083394616842,0.6789557848796248,-0.21404592465385794
1772025706040048400,0.76404833984375,0.7276596100330353,0.6627607291430234,-0.2855704342287034
1772025706050045400,0.77404541015625,0.8684013751536607,0.5734755950152873,-0.2109161021955311
1772025706060042500,0.78404248046875,0.7868418668419123,0.4836734512761235,-0.08052636587172746
1772025706070040600,0.79404052734375,0.7476146028250455,0.3418532432690263,0.13118147122338414
1772025706080037400,0.804037353515625,0.7848971625149249,0.15494798512756824,0.40027145690284666
1772025706090035500,0.814035400390625,0.7249895140409469,-0.06268705005943775,0.6087517102535813
1772025706100032500,0.824032470703125,0.5643225667446852,-0.2834662284910679,0.7341114165209234
1772025706110029600,0.834029541015625,0.5142582668930292,-0.48162061039954424,0.8139503846503794
1772025706120027600,0.844027587890625,0.5595324098587036,-0.626257921653986,0.8053474645432084
1772025706130024400,0.8540244140625,0.5603618464201688,-0.7540271002158522,0.7646043160706758
1772025706140021500,0.864021484375,0.43212475808560846,-0.8698416370898485,0.7194365560889243
1772025706150019300,0.874019287109375,0.3135369571059942,-0.9558391278490423,0.6955935428824276
1772025706160016600,0.8840166015625,0.22907179048061369,-0.9706085346966982,0.7074990116663277
1772025706170013400,0.894013427734375,0.13676584722697735,-0.8860571510925889,0.7499049787845462
1772025706180011500,0.904011474609375,0.010879705932736397,-0.827691471363604,0.818663311581686
1772025706190008300,0.91400830078125,-0.08579729201197624,-0.78333035158962,0.7873283351846039
1772025706200005600,0.924005615234375,-0.11158581326305865,-0.7167346036538481,0.7032263758484274
1772025706210003500,0.93400341796875,-0.12461831331551074,-0.6265642111241817,0.5866267530113458
1772025706220000500,0.94400048828125,-0.15650105978846549,-0.5620619283363223,0.4268602616861462
1772025706229998600,0.95399853515625,-0.20899171000421046,-0.5455149904221296,0.29496370099596675
1772025706239995400,0.963995361328125,-0.2873673275828361,-0.5363116932690143,0.24688100341558455
1772025706249992400,0.973992431640625,-0.3746241707533598,-0.49995297042578457,0.24437873827107248
1772025706259990500,0.983990478515625,-0.39755321092009543,-0.4731885898798704,0.18806173470020293
1772025706269987600,0.993987548828125,-0.33162732506990433,-0.45359746196419,0.17026041281074283
1772025706279984400,1.003984375,-0.27938918831050397,-0.4211880612686276,0.15083594669885933
1772025706289982500,1.013982421875,-0.22692016540467738,-0.400226521782577,0.14574045019075274
1772025706299979500,1.0239794921875,-0.13207330549657345,-0.4105640836626291,0.12281046017594635
1772025706309976600,1.0339765625,-0.005886135429143905,-0.4047720562577247,0.126026864939183
1772025706319974400,1.043974365234375,0.044542321559786796,-0.3940115927904844,0.22211444562338292
1772025706329971500,1.053971435546875,0.02453939797282219,-0.4243573389545083,0.3738837276495993
1772025706339969300,1.06396923828125,-0.017340426379442213,-0.4390761846587062,0.442178972979635
1772025706349966600,1.073966552734375,0.027291911551356313,-0.459677366399765,0.43128341189064084
1772025706359963400,1.08396337890625,0.15822890649437904,-0.601596943128109,0.4591314229547977
1772025706369961500,1.09396142578125,0.2669470553666353,-0.9565282791569828,0.5850307525241747
1772025706379958300,1.103958251953125,0.2340986787319183,-1.3041153899028897,0.7126409776646644
1772025706389955600,1.11395556640625,-0.0821697491645813,-1.2396399951219559,0.8044331992425025
1772025706399953400,1.123953369140625,-0.5056611189395189,-1.0128320579200982,0.9420814553271979
1772025706409950500,1.133950439453125,-0.728141256070137,-0.9915461087852716,1.0064482751671224
1772025706419947300,1.143947265625,-0.792467305508256,-1.1286059705227613,0.952802317436412
1772025706429945000,1.153945068359375,-0.8578817347049713,-1.1502458476617932,0.7782965952061116
1772025706439942100,1.163942138671875,-1.0086825370252133,-0.8908066837072371,0.6184069158926606
1772025706449940200,1.173940185546875,-1.065778050687909,-0.5546355777278542,0.465622465474531
1772025706459937000,1.18393701171875,-0.9875883110702037,-0.35284693097025155,0.309820603463985
1772025706469934000,1.19393408203125,-0.9337468307673931,-0.18467209226191042,0.12309561552656814
1772025706479932200,1.20393212890625,-0.8453408175617456,0.042648178376257416,-0.0030595793668646365
1772025706489929200,1.21392919921875,-0.6520376750767231,0.2927268087893724,-0.15677483522854743
1772025706499926000,1.223926025390625,-0.4017196829497814,0.5084633168786764,-0.347933403432928
1772025706509924000,1.233924072265625,-0.14080372444093225,0.6845408915355801,-0.5294568224055692
1772025706519921200,1.243921142578125,0.06814940711855888,0.8565490247964859,-0.6210633486855774
1772025706529918200,1.253918212890625,0.29364918433129783,1.027293713992834,-0.6450324724897742
1772025706539916000,1.263916015625,0.4936375036686659,1.1326736583530903,-0.6213675192639231
1772025706549913000,1.2739130859375,0.61108782505095,1.1427063920676708,-0.541864322427474
1772025706559910100,1.28391015625,0.572056960389018,1.0917761230364442,-0.37214104870073494
1772025706569908200,1.293908203125,0.38870764116346834,1.0134566195592283,-0.18711696466337888
1772025706579905000,1.303905029296875,0.22098551465868949,0.9122992613300681,-0.08097109569823369
1772025706589903000,1.313903076171875,0.15614391691386698,0.8068541427791118,-0.02957946536610834
1772025706599900000,1.32389990234375,0.16415771202147006,0.738342916610837,-0.014961056962236761
1772025706609897200,1.333897216796875,0.1242453883498907,0.7501119725987315,-0.05235853456894401
1772025706619895000,1.34389501953125,-0.009531798455119133,0.773565328900516,-0.09001826157472095
1772025706629892000,1.35389208984375,-0.11076105287671088,0.7416296831965447,-0.1486416241255123
1772025706639889000,1.363888916015625,-0.16273440122008323,0.7413336228594184,-0.20648765476141123
1772025706649887000,1.373886962890625,-0.13552373821139335,0.7836798956796527,-0.27605136739099395
1772025706659884300,1.38388427734375,-0.1029132619857788,0.8443705112248658,-0.3896929624063894
1772025706669881000,1.393881103515625,-0.11114917541146278,0.8752280063033103,-0.5046202681170776
1772025706679879200,1.403879150390625,-0.09236205735504627,0.9107423872768878,-0.5972302723512053
1772025706689876000,1.4138759765625,-0.022066870379447937,0.9685434188604354,-0.6764383952312171
1772025706699874000,1.4238740234375,0.13430793268084526,0.9808920283019542,-0.7426940244924277
1772025706709871000,1.43387109375,0.3361491864085197,0.9526476383313536,-0.7912487234987318
1772025706719868200,1.4438681640625,0.5423357758641243,0.8511407360121608,-0.8552847039490937
1772025706729866000,1.453865966796875,0.7042120989501476,0.7046379231467843,-0.8841234796162695
1772025706739863000,1.463863037109375,0.8189443935453892,0.5371060585170984,-0.7980822227805853
1772025706749860000,1.473860107421875,0.9013117111086845,0.33751024562865495,-0.5872390396907925
1772025706759858200,1.483858154296875,1.005049733480811,0.11192512822002172,-0.3491121283560991
1772025706769855000,1.49385498046875,1.0606570544123648,-0.08601093476265669,-0.17906747718788682
1772025706779852000,1.50385205078125,1.0299655635505913,-0.2363283374801278,-0.002727927126549184
1772025706789850000,1.51385009765625,0.9593559037983417,-0.396375399312377,0.1482272985704243
1772025706799847200,1.52384716796875,0.8052297564476728,-0.58608753156811,0.29529066792801023
1772025706809845200,1.53384521484375,0.6300584829807281,-0.7662365934476256,0.3886503580182791
1772025706819842000,1.543842041015625,0.5030506441801786,-0.8878349744200706,0.4279901059662923
1772025706829839000,1.553839111328125,0.4435965846925974,-0.9346408569976686,0.41168749820198863
1772025706839837200,1.563837158203125,0.41201720508038997,-0.9166659321069717,0.37860293819122015
1772025706849834200,1.573834228515625,0.4199754706084728,-0.8827034567505121,0.3421132824447006
1772025706859831000,1.5838310546875,0.4513806626975536,-0.7898182523041963,0.26774127448424695
1772025706869829000,1.5938291015625,0.48284021532237525,-0.7192658756971358,0.22808789400979876
1772025706879826200,1.603826171875,0.5085603475123643,-0.6624921413347125,0.2053844062272459
1772025706889823200,1.6138232421875,0.5219669415742159,-0.5932593228936195,0.1977720315273851
1772025706899821000,1.623821044921875,0.49682665509879587,-0.5221016738697886,0.18749555218480526
1772025706909818000,1.633818115234375,0.4585363796710968,-0.486828115914762,0.1662117219418287
1772025706919815200,1.643815185546875,0.38414603233635425,-0.47293242316171524,0.14102986134700476
1772025706929813200,1.653813232421875,0.2815115872919559,-0.4635011624716222,0.11381218407563864
1772025706939810000,1.66381005859375,0.23049919293522833,-0.4858085636086762,0.0702503979858011
1772025706949808000,1.67380810546875,0.13987608820199965,-0.5311605941161514,0.0052578474629670375
1772025706959805000,1.683804931640625,0.046022330984473225,-0.5290123300410807,-0.0572826337326318
1772025706969802200,1.69380224609375,-0.03703881406188011,-0.4964296186052263,-0.09701185592226684
1772025706979800000,1.703800048828125,-0.12070435474216937,-0.5153507383048535,-0.12388050056025385
1772025706989797000,1.713797119140625,-0.21731004101634024,-0.5582952692791819,-0.16918686529509722
1772025706999794000,1.7237939453125,-0.24205869782567022,-0.5304536148905754,-0.2066634862523526
1772025707009792000,1.7337919921875,-0.2557768420547247,-0.46884383867383,-0.24389694610349832
1772025707019789000,1.7437890625,-0.3655506374597549,-0.44841947480440136,-0.25508871366009117
1772025707029786000,1.7537861328125,-0.5335182631582022,-0.46505087613165375,-0.2718908684443682
1772025707039784200,1.7637841796875,-0.639210342207551,-0.45014702924937006,-0.32312194705307484
1772025707049781000,1.773781005859375,-0.6925479646414517,-0.3544096502423286,-0.3813610047277063
1772025707059778300,1.7837783203125,-0.7397732416749,-0.280897839307785,-0.3694054131917655
1772025707069776100,1.793776123046875,-0.8629676596671342,-0.3471490115895867,-0.2846367335751653
1772025707079773200,1.803773193359375,-1.068210246270895,-0.44517771640419956,-0.3768069216199219
1772025707089771000,1.81377099609375,-1.3083417754262685,-0.33954525858759876,-0.3705178314130753
1772025707099768000,1.82376806640625,-1.4925047491222618,-0.21895371657013893,-0.34694727847240864
1772025707109765000,1.83376513671875,-1.6175690526396036,-0.17149813791215418,-0.3717962538510561
1772025707119763200,1.84376318359375,-1.7061001535296438,-0.11539046624302864,-0.36879816801361737
1772025707129760000,1.853760009765625,-1.6946277424007654,-0.020830022060871124,-0.32449659640714523
1772025707139757000,1.863757080078125,-1.580042747321725,0.09319149391651153,-0.26586853941492733
1772025707149755000,1.8737548828125,-1.382088564160466,0.21382482924908397,-0.1826305764969438
1772025707159752200,1.883752197265625,-1.1605109288275242,0.32707623763680455,-0.11420249856747686
1772025707169749000,1.8937490234375,-1.0079022003024816,0.40541269224882126,-0.04069441395998001
1772025707179747000,1.9037470703125,-0.9600912323355674,0.4090019489124417,0.07184760404936968
1772025707189743900,1.913743896484375,-0.9410685519576072,0.3416536290436983,0.14009754893295467
1772025707199741200,1.9237412109375,-0.8953624473154544,0.26399521982371804,0.23190365290567277
1772025707209739300,1.9337392578125,-0.8327110530912876,0.2066676509708166,0.30873211410753426
1772025707219736000,1.943736083984375,-0.7210019057095051,0.1593216701671481,0.32720234823450445
1772025707229734100,1.953734130859375,-0.5754805050969124,0.10619476787447929,0.32845746286213395
1772025707239731200,1.963731201171875,-0.3722574416220188,0.05561579649895429,0.3240232067417353
1772025707249728300,1.973728271484375,-0.14705752413868903,0.05592734666615724,0.31064174712114034
1772025707259726000,1.98372607421875,0.10171791472136973,0.12000059038698672,0.2804514837797731
1772025707269723100,1.99372314453125,0.3989075481384992,0.19703473022878168,0.2275548831116408
1772025707279720200,2.00372021484375,0.6558698005855083,0.2789651176795363,0.1993820240072906
1772025707289718300,2.01371826171875,0.9085147743552923,0.31762481094151734,0.18789251561313866
1772025707299715000,2.023715087890625,1.1892629760593174,0.31489334015101195,0.23834267297722397
1772025707309712100,2.033712158203125,1.4785498735278844,0.2931587704658508,0.3134448949083686
1772025707319710000,2.0437099609375,1.6496306628108024,0.3101642658025026,0.434950190769881
1772025707329707300,2.053707275390625,1.6911597740292548,0.3482221937790513,0.594189004959166
1772025707339704000,2.0637041015625,1.5850211202561855,0.3251607594043016,0.7623892703697085
1772025707349702100,2.0737021484375,1.4489239660710096,0.21950258262455463,0.951291985938698
1772025707359699000,2.083698974609375,1.4155425054728985,0.09140139562934636,1.142115878828615
1772025707369697000,2.093697021484375,1.3117629820466041,0.010270049601793289,1.3661520132295786
1772025707379694000,2.103694091796875,1.0541893197029828,-0.11719663888216018,1.6818918872073292
1772025707389691100,2.113691162109375,0.7524275560647249,-0.3136924399286508,1.8566211159951984
1772025707399689200,2.123689208984375,0.5658849937558174,-0.42763650675565,1.8973714979261158
1772025707409686000,2.13368603515625,0.44162733044624325,-0.3022778964668512,1.8912126830354332
1772025707419683000,2.14368310546875,0.18979367305934428,0.013031623269617557,1.8049170861124992
1772025707429678000,2.153677978515625,-0.2554483407527208,0.3446756072133779,1.6295876994743943
1772025707439675400,2.16367529296875,-0.7777583966761827,0.55922202873528,1.429616331271827
1772025707449672200,2.173672119140625,-1.1176286494344472,0.6740916859745979,1.1098859994184225
1772025707459670300,2.183670166015625,-1.158465102213621,0.8494204880908132,0.864578090538457
1772025707469667000,2.1936669921875,-1.0826946986973285,1.025104387255013,0.7050240729201585
1772025707479664400,2.203664306640625,-0.8570797706723212,1.1107894510641694,0.412799441499263
1772025707489662200,2.213662109375,-0.3454267178416252,1.1766998470842838,0.02218720882348716
1772025707499659300,2.2236591796875,0.3292395531505346,1.3022645013391971,-0.33927703610546883
1772025707509657000,2.233656982421875,0.9323924935489892,1.3470239727810025,-0.5335029194585978
1772025707519654400,2.243654296875,1.2531792756527662,1.2293185075938702,-0.5740124783709645
1772025707529651200,2.253651123046875,1.1792507006108761,1.0337456666111946,-0.42911775828935206
1772025707539649300,2.263649169921875,0.9040320759832858,0.8104957141518593,-0.07501885449662804
1772025707549646000,2.27364599609375,0.7034796930223703,0.5531175743803382,0.3830548030335456
1772025707559643400,2.283643310546875,0.6170891112923622,0.2239864500403404,0.6628655046917498
1772025707569641200,2.29364111328125,0.6090998661041259,-0.07016513085514306,0.7335351510029285
1772025707579638300,2.30363818359375,0.6162322022020816,-0.22680559911429882,0.8108729499664157
1772025707589635000,2.313635009765625,0.5902759231686592,-0.3464347258403897,0.9050421298086643
1772025707599633200,2.323633056640625,0.5477548783034086,-0.46310003432482477,1.0117270192876457
1772025707609630200,2.333630126953125,0.4706038340836763,-0.5380819178119302,1.1323472759429365
1772025707619627300,2.343627197265625,0.36582886987924573,-0.5474085490837692,1.247745706296712
1772025707629625300,2.353625244140625,0.32512627261281013,-0.5326040709227323,1.2967849008843302
1772025707639622100,2.3636220703125,0.36069092246890067,-0.531612429536879,1.2490507975459098
1772025707649619500,2.373619384765625,0.40269057380855083,-0.543431169885397,1.0808714287929235
1772025707659617300,2.3836171875,0.40245384244322774,-0.578676086267829,0.9190882638830691
1772025707669614300,2.3936142578125,0.3229173643916845,-0.6371576474614441,0.8374958762150257
1772025707679612200,2.403612060546875,0.19585867218673228,-0.7016111226715147,0.8033310832194983
1772025707689609200,2.413609130859375,-0.002907411879301071,-0.7639303623318672,0.7315674311265349
1772025707699606300,2.423606201171875,-0.156936528596282,-0.8204229416653513,0.6664124565836042
1772025707709604400,2.433604248046875,-0.30684885764420033,-0.8538599318429827,0.629042291675508
1772025707719601200,2.44360107421875,-0.4973012868732214,-0.8459589494600892,0.5993105857565999
1772025707729598200,2.45359814453125,-0.6746481508135795,-0.8234563180118799,0.5656209359921515
1772025707739596000,2.463595947265625,-0.7907154934048652,-0.7978323396727443,0.514253700315766
1772025707749593300,2.47359326171875,-0.8944646216928959,-0.7311720020681619,0.4911228539666161
1772025707759590100,2.483590087890625,-0.9262935921519995,-0.6534764757081866,0.46387609673123803
1772025707769588200,2.493588134765625,-0.9160743959546088,-0.5764297686457633,0.4293193818086758
1772025707779585000,2.5035849609375,-0.8575275144398212,-0.4940454999476671,0.3875820346670225
1772025707789582300,2.513582275390625,-0.7964929077625275,-0.4262167030856013,0.3385840854052454
1772025707799580400,2.523580322265625,-0.7554325830996036,-0.4234732495963573,0.34424612975493074
1772025707809577200,2.5335771484375,-0.7452671629160642,-0.5766363971337676,0.44726029483191665
1772025707819574000,2.543573974609375,-0.7399702255517244,-0.7876540600076317,0.5207760512892157
1772025707829572000,2.553572021484375,-0.8819827412605286,-0.5738645943328737,0.4632082074070349
1772025707839569400,2.5635693359375,-1.0244196198612452,-0.20478052204996347,0.4560798168318346
1772025707849567200,2.573567138671875,-0.9663725045621394,-0.27744623754918574,0.3538647662432864
1772025707859564300,2.583564208984375,-0.811094849088788,-0.566359333269298,0.1887750340687111
1772025707869561000,2.59356103515625,-0.7707797898352146,-0.6038958677202463,0.17783773446353152
1772025707879559200,2.60355908203125,-0.8110176921993494,-0.4241287908956408,0.21399076040051876
1772025707889556200,2.61355615234375,-0.8472048578679561,-0.18430851964652537,0.19699145734263582
1772025707899553300,2.62355322265625,-0.8120347602874041,-0.016116437542438505,0.15248080956274643
1772025707909551000,2.633551025390625,-0.75394731297791,0.07331658062338829,0.10661421712925657
1772025707919548200,2.643548095703125,-0.7520762584090233,0.1952870097786188,0.02032293105525896
1772025707929545200,2.653545166015625,-0.8016507289171219,0.3936918593168258,-0.05589813883798197
1772025707939543300,2.663543212890625,-0.8657610897779464,0.6185299577504396,-0.16031866358155383
1772025707949540000,2.6735400390625,-0.8253460772812365,0.7868933047682046,-0.3341060632083565
1772025707959537200,2.683537109375,-0.6838526170104742,0.8796203960433602,-0.44303690498322246
1772025707969535200,2.69353515625,-0.5086187997013331,0.9511807806491851,-0.5942797519825399
1772025707979532300,2.7035322265625,-0.26097148808836934,1.0677601644158363,-0.7266466335982084
1772025707989530400,2.7135302734375,0.0164478614538908,1.2186088975310325,-0.8349480183631182
1772025707999527200,2.723527099609375,0.24428864883482454,1.32497493031919,-0.9217878051653504
1772025708009524200,2.733524169921875,0.3402338253736496,1.2896975729718803,-0.9706442635972052
1772025708019522300,2.743522216796875,0.4041857808023691,1.1475164226979016,-0.9748374044381082
1772025708029519400,2.753519287109375,0.5094494053065777,1.0241340809181332,-0.9212703571625054
1772025708039516200,2.76351611328125,0.6085036537766456,0.9381310372009873,-0.8207786232352257
1772025708049514200,2.77351416015625,0.6576870791405439,0.8456883158251642,-0.7217461482055485
1772025708059511300,2.78351123046875,0.6939484790891408,0.7303156774997711,-0.6866823605436831
1772025708069508400,2.79350830078125,0.7162526653558016,0.6576449935644865,-0.6572473725490272
1772025708079506200,2.803506103515625,0.6837742910772562,0.6197171217083931,-0.577291901900433
1772025708089503200,2.813503173828125,0.6193114635169505,0.554134350207448,-0.4739224571123719
1772025708099500300,2.823500244140625,0.5950666645765305,0.46664486732482907,-0.430614243924804
1772025708109498400,2.833498291015625,0.593217237317562,0.41108372362256046,-0.41814971648603677
1772025708119495200,2.8434951171875,0.6072989541620015,0.41201106760054823,-0.43596923161931334
1772025708129492200,2.8534921875,0.6073690967887639,0.4498465849980712,-0.49149804395455865
1772025708139490000,2.863489990234375,0.5793699137508869,0.5021393745541572,-0.564326658397913
1772025708149487400,2.8734873046875,0.5137070627510547,0.5785895770281553,-0.6120441759277134
1772025708159484200,2.883484130859375,0.4758382276058197,0.6050824471563101,-0.6530547431647777
1772025708169482200,2.893482177734375,0.4821750294119119,0.6159507549121975,-0.7444481746833771
1772025708179479000,2.90347900390625,0.5268669885754586,0.617535101494193,-0.8413662148423492
1772025708189477000,2.91347705078125,0.6310235286206006,0.6303185952216387,-0.9097440969545394
1772025708199474400,2.923474365234375,0.7789835545569658,0.6034130526393652,-0.9362522377170622
1772025708209471200,2.93347119140625,0.8994342267990112,0.5106131883889437,-0.9610689913265407
1772025708219469300,2.94346923828125,0.9292267229944468,0.4056736812725663,-0.9906073666304349
1772025708229466000,2.953466064453125,0.9890379253566265,0.3009326193377375,-1.0037517295595257
1772025708239463400,2.96346337890625,1.067203115054965,0.20451398006826638,-0.9564076484519988
1772025708249461200,2.973461181640625,1.0489543416589497,0.026372458618879317,-0.8026051070325076
1772025708259458300,2.983458251953125,0.9386492158561944,-0.20824439876824616,-0.6207348473835737
1772025708269455000,2.993455078125,0.8717688057601451,-0.43597120438069104,-0.4948351524880156
1772025708279453200,3.003453125,0.814492674833536,-0.6134139299109578,-0.3811476907705888
1772025708289450200,3.0134501953125,0.7558516852945089,-0.7565916900068521,-0.2753907115251757
1772025708299447300,3.023447265625,0.6668225717544555,-0.8597437291845679,-0.18694398271664975
1772025708309445000,3.033445068359375,0.538962500038743,-0.9595309681043028,-0.11605931454845704
1772025708319442200,3.043442138671875,0.4636170439362526,-1.0169941460356116,-0.05494511242946609
1772025708329439200,3.053439208984375,0.4365799839287996,-1.031318439464271,-0.0040331553730648005
1772025708339437300,3.063437255859375,0.3968909476190805,-0.9983566655829548,-0.002906580762239173
1772025708349434000,3.07343408203125,0.3984387615829706,-0.9312933001354337,-0.06987129900772124
1772025708359432200,3.08343212890625,0.43909693518579,-0.8190835097551346,-0.18861403482072053
1772025708369429000,3.093428955078125,0.4290437432050705,-0.7127855737671256,-0.2745653848832473
1772025708379426300,3.10342626953125,0.31975334740281103,-0.6383192385867238,-0.3118156132061034
1772025708389424400,3.11342431640625,0.24710896695256232,-0.6235097919896244,-0.3197070971082896
1772025708399421200,3.123421142578125,0.2241658982604742,-0.6134782273188233,-0.31353925866093485
1772025708409418000,3.13341796875,0.24431904397308826,-0.5816603627756237,-0.2896878977512009
1772025708419416000,3.143416015625,0.264101602807641,-0.5773416227936744,-0.2466490212906152
1772025708429412600,3.15341259765625,0.24494623596072196,-0.6137769180044531,-0.22931575530432163
1772025708439409400,3.163409423828125,0.15875848332643508,-0.693002722671628,-0.15151096901674754
1772025708449407500,3.173407470703125,0.09811316822767258,-0.7743076717004179,-0.025916266683442518
1772025708459404800,3.18340478515625,0.0407382531017065,-0.8416948622748255,0.11137682842118665
1772025708469401600,3.193401611328125,-0.058898763692378994,-0.9314689489632845,0.24900764018073676
1772025708479399700,3.203399658203125,-0.180443076390028,-1.020061132390797,0.37779227939546106
1772025708489396500,3.213396484375,-0.27045184861719607,-1.0930807758942245,0.42718313696496185
1772025708499393800,3.223393798828125,-0.35850071894824503,-1.0721814879894256,0.4102672561405226
1772025708509391600,3.2333916015625,-0.5103618439763784,-0.953219300739467,0.4092972785972058
1772025708519388700,3.243388671875,-0.6308703838855028,-0.8734715180248022,0.36178200564123686
1772025708529385500,3.253385498046875,-0.7222837622135877,-0.7972171303838491,0.24346323086135088
1772025708539383600,3.263383544921875,-0.8652180689424276,-0.6744385997161269,0.07389523902786896
1772025708549380600,3.273380615234375,-0.9908271468609571,-0.551900015284121,-0.06387715489314869
1772025708559378700,3.283378662109375,-1.0695692596644162,-0.4743929972335696,-0.12346631200248374
1772025708569375500,3.29337548828125,-1.0881044487863778,-0.5204217579588294,-0.07945201463848352
1772025708579372500,3.30337255859375,-1.1579010385900734,-0.5378308656603098,-0.15432470213007182
1772025708589370400,3.313370361328125,-1.3665806139051913,-0.2873670353218913,-0.22753278087768702
1772025708599367700,3.32336767578125,-1.4611533330470323,-0.0758645115405321,-0.2773174600703642
1772025708609364500,3.333364501953125,-1.3847364483207463,-0.08253682891130447,-0.3995722591249272
1772025708619362600,3.343362548828125,-1.337849024939537,-0.15878244872391223,-0.4473503842681646
1772025708629359400,3.353359375,-1.3501818522900342,-0.12818828075677155,-0.5245952077185735
1772025708639356700,3.363356689453125,-1.2953314872056245,0.0053206105008721345,-0.6052364321416244
1772025708649354800,3.373354736328125,-1.1189414855986832,0.15885113004595042,-0.6547489798620343
1772025708659351600,3.3833515625,-0.9427087203800678,0.22884616503119468,-0.6499933097675442
1772025708669348600,3.3933486328125,-0.836410492131114,0.18206015619784593,-0.635853140734136
1772025708679346700,3.4033466796875,-0.8495616501271724,0.11744126129299401,-0.5879942054396495
1772025708689343700,3.41334375,-0.9968927305102347,0.10792232231944798,-0.47411366883553563
1772025708699340500,3.423340576171875,-1.1094313144534826,0.13177782968133686,-0.38586646292079235
1772025708709338600,3.433338623046875,-1.1057885740369557,0.13446253872066735,-0.36553054451979694
1772025708719335700,3.443335693359375,-1.0250924045562744,0.18077508482336996,-0.3774071890680119
1772025708729332700,3.453332763671875,-0.9291162483572959,0.3088473379850387,-0.33616558955404907
1772025708739330600,3.46333056640625,-0.8019669552594423,0.45930093430280683,-0.28976470758076756
1772025708749327600,3.47332763671875,-0.6157587394714356,0.6119950030237435,-0.2696344312870875
1772025708759325400,3.483325439453125,-0.3840133458673954,0.7565300229474902,-0.2796934319540858
1772025708769322800,3.49332275390625,-0.09880699571073055,0.9368047570332885,-0.3406341132702306
1772025708779319600,3.503319580078125,0.2368143674314022,1.1284990030169486,-0.36434093287643043
1772025708789317600,3.513317626953125,0.5794856490850449,1.206071487519145,-0.3269038767445832
1772025708799314400,3.523314453125,0.9255956730157137,1.131696630014479,-0.26740188646204766
1772025708809311700,3.533311767578125,1.2135825938016176,0.9822983879685402,-0.11256919827722012
1772025708819309800,3.543309814453125,1.3350976804047823,0.8722522053629159,0.05914155947230756
1772025708829306600,3.553306640625,1.3307178578853607,0.8216405007615685,0.20990429480448364
1772025708839303400,3.563303466796875,1.221125848788023,0.7912944623365998,0.3521403170708567
1772025708849301500,3.573301513671875,1.0713690025627614,0.7367147308871149,0.4977222156990319
1772025708859298800,3.583298828125,0.9286913009434938,0.6259943022817372,0.601887377442047
1772025708869295600,3.593295654296875,0.8323948267489671,0.5074830736696719,0.6791320912946015
1772025708879293700,3.603293701171875,0.74719608515203,0.4174608574390411,0.7778271510634571
1772025708889290500,3.61329052734375,0.6192191090583801,0.3701344581186771,0.8529099376417696
1772025708899287800,3.623287841796875,0.5779992099195719,0.3230117646768689,0.8270851029682904
1772025708909285600,3.63328564453125,0.5771826328396796,0.31195231826305386,0.7733076278124004
1772025708919282700,3.64328271484375,0.5086790054559708,0.35452100166231393,0.7166603693738579
1772025708929279500,3.653279541015625,0.3435170848280191,0.43793870506137605,0.6614234161246567
1772025708939277600,3.663277587890625,0.1553109732210636,0.5226449869662523,0.5755920026473701
1772025708949274600,3.673274658203125,-0.05305939001441001,0.5872621283054351,0.47949024730734524
1772025708959271700,3.683271728515625,-0.23101357219815252,0.6202963829010725,0.3793555831894278
1772025708969269500,3.69326953125,-0.37890053289830683,0.6385246980309486,0.321342004833743
1772025708979266600,3.7032666015625,-0.40461014369428155,0.6842772721633315,0.23229301754944026
1772025708989264400,3.713264404296875,-0.27487024958133693,0.7125377364858985,0.14449249595627187
1772025708999261700,3.72326171875,-0.14600304664969443,0.727602326887846,0.07668141741398722
1772025709009258500,3.733258544921875,-0.0020347206979990005,0.7297273562178015,-0.012460033926740288
1772025709019256600,3.743256591796875,0.2069552357405424,0.7297305710881948,-0.07326503309924155
1772025709029253400,3.75325341796875,0.4016553855419159,0.696850045749545,-0.060094476282969114
1772025709039250700,3.763250732421875,0.5179302334040403,0.5976046586215495,0.013018471527099609
1772025709049248800,3.773248779296875,0.5457429539591073,0.45090223153084513,0.20666315745878963
1772025709059245600,3.78324560546875,0.5643851105868816,0.320941388143599,0.44837958118543025
1772025709069242600,3.79324267578125,0.5971960778206586,0.16909049224853515,0.6043996525239199
1772025709079240400,3.803240478515625,0.6211053611963987,-0.02040010621100664,0.6734292034778744
1772025709089237800,3.81323779296875,0.7188578794181346,-0.2283461065545678,0.7063216384500265
1772025709099234600,3.823234619140625,0.7642448351085186,-0.4117860266730189,0.7457240398380905
1772025709109232600,3.833232666015625,0.6628595133423805,-0.5115460853248834,0.8392584289081394
1772025709119229400,3.8432294921875,0.5382429535925388,-0.606345014438033,0.9548669218160212
1772025709129226800,3.853226806640625,0.4181856645822525,-0.6773892662152647,1.0363249425146728
1772025709139224600,3.863224609375,0.24234569807350634,-0.7049912666290998,1.099974627061188
1772025709149221600,3.8732216796875,0.054314358511567115,-0.7129407643288374,1.151135782238841
1772025709159218400,3.883218505859375,-0.036305239090323446,-0.6737067783102393,1.091546990455687
1772025709169216500,3.893216552734375,-0.0316933613806963,-0.6011836861521005,0.9437187742054461
1772025709179213600,3.903213623046875,-0.03285305280983448,-0.4784051554843783,0.8315005082577467
1772025709189211600,3.913211669921875,-0.12210311562418937,-0.36000761637985706,0.74713997105062
1772025709199208400,3.92320849609375,-0.20792788016498087,-0.3058294514685869,0.6447697299003601
1772025709209205500,3.93320556640625,-0.33121932879090304,-0.3231760153278708,0.604389971380122
1772025709219203600,3.94320361328125,-0.4527139571279287,-0.3440943001940846,0.5730840749470517
1772025709229200600,3.95320068359375,-0.48873219597041606,-0.3853609610840678,0.5023931666521355
1772025709239197400,3.963197509765625,-0.44093934818208214,-0.3993292806819081,0.3754040690846741
1772025709249195500,3.973195556640625,-0.42894612804949284,-0.3677554540276527,0.23737528924979268
1772025709259192800,3.98319287109375,-0.38569618438780306,-0.35505116301625966,0.1972644107988104
1772025709269189600,3.993189697265625,-0.33549569093585013,-0.3917167598515749,0.17539960233010352
1772025709279187700,4.003187744140625,-0.3261509394854307,-0.45070933930724855,0.24976013904847202
1772025709289184500,4.0131845703125,-0.37287411221563815,-0.5174430344089865,0.384148370423913
1772025709299181800,4.023181884765625,-0.32434067519307136,-0.606177256655693,0.4886359325217083
1772025709309179600,4.0331796875,-0.2102881795555353,-0.6788625536382198,0.5522460887754336
1772025709319176700,4.0431767578125,-0.11558628107607365,-0.6963388813570142,0.5610229041447863
1772025709329173500,4.053173583984375,-0.04353285225629806,-0.686812635859847,0.5736491249512881
1772025709339171600,4.063171630859375,0.031844168028235434,-0.6726391490787267,0.6205944890648126
1772025709349168600,4.073168701171875,0.08485796533524989,-0.6799900963634252,0.6487654484730213
1772025709359165700,4.083165771484375,0.10452829596698283,-0.7318202368438244,0.6888675225630402
1772025709369163500,4.09316357421875,0.11551906105875968,-0.7706450575396419,0.6941187210895121
1772025709379160600,4.10316064453125,0.1428589034050703,-0.8236036175280809,0.6779198659606277
1772025709389157600,4.11315771484375,0.19174539164900778,-1.0038497100412844,0.7281409638091921
1772025709399155700,4.12315576171875,0.15311843161284922,-1.1506903765588998,0.744564275343716
1772025709409152500,4.133152587890625,-0.07182663432657718,-1.0218939007759094,0.7515083223279565
1772025709419149600,4.143149658203125,-0.2475976272523403,-0.7995268686309457,0.8122212958354502
1772025709429147000,4.15314697265625,-0.23902561374008655,-0.7643456651344895,0.8199569315887987
1772025709439144200,4.163144287109375,-0.15905600496828556,-0.8695429464042186,0.7986390529457479
1772025709449142300,4.173142333984375,-0.14843348866701125,-0.858490221992135,0.7007235261820256
1772025709459139000,4.18313916015625,-0.18172084124088286,-0.6029238078176975,0.5475146763393655
1772025709469136000,4.193135986328125,-0.15531272678673266,-0.33058453801870347,0.4062707703828811
1772025709479134200,4.20313427734375,-0.015061375531554221,-0.21775632347911594,0.2772555007500574
1772025709489131300,4.21313134765625,0.06775017866790295,-0.20043197145164013,0.22917265703920273
1772025709499128000,4.223128173828125,0.011363690057396889,-0.13551584716588258,0.26729027931373567
1772025709509126100,4.233126220703125,-0.06341302624642849,-0.026522973005473613,0.27965574855851005
1772025709519123200,4.243123291015625,-0.07047229710817336,0.029908816051483152,0.21248199980538338
1772025709529120300,4.253120361328125,-0.04718026884794235,0.021718787594139574,0.1095808757819701
1772025709539118000,4.2631181640625,-0.02364917113482952,0.02095306391865015,0.018372408908838404
1772025709549115100,4.273115234375,-0.0541886863052845,0.049070904900133605,-0.017472016869857908
1772025709559112200,4.2831123046875,-0.18119301797449588,0.09284370339214801,-0.06969322076076641
1772025709569110300,4.2931103515625,-0.2812923915833235,0.2065042771026492,-0.1462114652359858
1772025709579107000,4.303107177734375,-0.3321890506058931,0.3293091112554073,-0.20281930497959255
1772025709589104000,4.313104248046875,-0.44291912382245063,0.4294990857571363,-0.31642248594705014
1772025709599102000,4.32310205078125,-0.5013075999051332,0.5254661818668246,-0.462286708647944
1772025709609099300,4.333099365234375,-0.4683125082761049,0.6464078524962067,-0.6036141647020354
1772025709619096000,4.343095947265625,-0.3690332188785076,0.7452756384834647,-0.7106036266181618
1772025709629094100,4.35309423828125,-0.14174188207387922,0.835586024005711,-0.8470451372615992
1772025709639091000,4.363091064453125,0.12751520380079745,0.8708204189941287,-0.9862462488114834
1772025709649089000,4.373089111328125,0.38251930791735644,0.8277551842495798,-1.085504203160107
1772025709659086000,4.383086181640625,0.43807635996639727,0.7478311681851744,-1.028317796343565
1772025709669083100,4.393083251953125,0.27499825987517834,0.6991019163295626,-0.8716608153410256
1772025709679081200,4.403081298828125,0.10664426520764828,0.6920911607846617,-0.7356329269997776
1772025709689078000,4.413078125,0.11786883905529975,0.6548138617917895,-0.6315379078835248
1772025709699075000,4.423074951171875,0.22729776654541492,0.5783250808730721,-0.5390435293857008
1772025709709073200,4.4330732421875,0.281973944106698,0.47695524893701075,-0.49513344131484627
1772025709719070200,4.4430703125,0.2579202838242054,0.3862643396645784,-0.5058673090361059
1772025709729067000,4.45306689453125,0.21549334698319433,0.3513528930202126,-0.5206158922914416
1772025709739065000,4.463065185546875,0.16195698710680007,0.37815000679194927,-0.5440368076283484
1772025709749062100,4.473062255859375,0.11576923642754554,0.40293110456615683,-0.567637828772515
1772025709759059200,4.48305908203125,0.060930561780929565,0.4024862834081053,-0.5915771784929559
1772025709769057000,4.49305712890625,-0.027148119166493415,0.37082127133905884,-0.6209208714749663
1772025709779054000,4.50305419921875,-0.06957096435427665,0.32870500788241624,-0.6837722452506423
1772025709789051100,4.513051025390625,0.027370822006464002,0.2682055309951305,-0.7194562106374651
1772025709799049200,4.52304931640625,0.13799451223909853,0.2020589881315827,-0.7288871790666133
1772025709809046000,4.5330458984375,0.20170330656170843,0.13957155229747295,-0.7367869193404912
1772025709819043000,4.54304296875,0.2944523174077272,0.07265840897560119,-0.713613695154339
1772025709829041000,4.553041015625,0.41806466855108737,-0.012498247045278549,-0.6710200234442949
1772025709839038200,4.5630380859375,0.5147837520718574,-0.12974515480995177,-0.6074066157875582
1772025709849036300,4.573036376953125,0.5547726481109857,-0.27496961830258365,-0.5533518215276301
1772025709859033000,4.583033203125,0.5898609126269817,-0.44488925485163927,-0.5596367104833946
1772025709869030000,4.59302978515625,0.6463602139621972,-0.5507835784748196,-0.5862686602886766
1772025709879028000,4.603028076171875,0.646940644198656,-0.6310857802018522,-0.5612970083784312
1772025709889025300,4.613025390625,0.6002753391355276,-0.6739779964670538,-0.5186588764721527
1772025709899022000,4.62302197265625,0.5654144536346197,-0.6875374430030584,-0.5178961484713479
1772025709909020200,4.633020263671875,0.5755711059898138,-0.692530721245706,-0.4865330784909427
1772025709919017000,4.643016845703125,0.6333031639903783,-0.6854431010723113,-0.4515945246439427
1772025709929014300,4.65301416015625,0.6701853261858225,-0.6668228640154004,-0.4579988387282937
1772025709939012000,4.66301220703125,0.6894307094037533,-0.626237171126902,-0.4784525748226791
1772025709949009200,4.673009033203125,0.6790864255219697,-0.5944587618112563,-0.48453803221620617
1772025709959006000,4.683005859375,0.6610802287101745,-0.5578671069949865,-0.4941689801968634
1772025709969004000,4.693004150390625,0.6674748981833457,-0.48697629221379757,-0.5090931026821955
1772025709979001000,4.7030009765625,0.6267530116945504,-0.39966450398564335,-0.5107922347502782
1772025709988998100,4.712998046875,0.5407546441525221,-0.3651593000546098,-0.523281896630302
1772025709998996000,4.722995849609375,0.4636287343740463,-0.3840338041335344,-0.5640919728592038
1772025710008993000,4.732992919921875,0.3929302272945642,-0.39375586446374655,-0.566155517792888
1772025710018991000,4.7429912109375,0.2367670211583376,-0.4043105762258172,-0.5333999340081587
1772025710028988200,4.75298828125,0.09168284291923046,-0.45598830262348056,-0.48059068282991646
1772025710038985000,4.76298486328125,0.02328969017267227,-0.5206684261962771,-0.44571642639078196
1772025710048983000,4.772983154296875,-0.07729717469215393,-0.5084693082280457,-0.4296887631103396
1772025710058980000,4.78297998046875,-0.20900983018279073,-0.4569987948402762,-0.42814504079967736
1772025710068977200,4.79297705078125,-0.33779461552798745,-0.426162196419388,-0.4284044223882258
1772025710078975200,4.802975341796875,-0.45629707631170746,-0.43732524933815,-0.45572523124050346
1772025710088972000,4.812971923828125,-0.5923831245809793,-0.4224900837779045,-0.5208059349708258
1772025710098969000,4.822968994140625,-0.74236559625566,-0.41088031000494957,-0.5408951486017555
1772025710108967200,4.83296728515625,-0.8651590322315692,-0.4134858163282275,-0.5867280944939702
1772025710118964200,4.842964111328125,-0.8918816194623708,-0.4737321952372789,-0.5845674093287437
1772025710128961000,4.8529609375,-0.9279197320491075,-0.6642822396218776,-0.4866047554876655
1772025710138959000,4.862958984375,-1.1297650774300099,-0.8091177037969232,-0.43458270916435865
1772025710148956200,4.8729560546875,-1.4154261856168509,-0.7768658317506313,-0.37646767972819506
1772025710158953200,4.882953125,-1.6296388451397419,-0.6548971561610698,-0.33473763911016285
1772025710168951000,4.892950927734375,-1.762352202105522,-0.6484092554464936,-0.33266587433740497
1772025710178948000,4.902947998046875,-1.8775690653473138,-0.7120888236746191,-0.3228589852679521
1772025710188946000,4.91294580078125,-2.0397113458931444,-0.7644564320325851,-0.2970654590481892
1772025710198943200,4.922943115234375,-2.1681413264513014,-0.672209817750752,-0.34147798021584747
1772025710208940000,4.93293994140625,-2.208525359287858,-0.4675523375585675,-0.4278369246985763
1772025710218938000,4.942938232421875,-2.154028045424819,-0.23599720582962036,-0.5445044251400977
1772025710228935000,4.952934814453125,-1.941933693230152,-0.05312953264117241,-0.5853716018510982
1772025710238932200,4.96293212890625,-1.657587174773216,0.04648351875543594,-0.5244991634655743
1772025710248930300,4.972930419921875,-1.330954004728794,0.1610126919940114,-0.5327337982496246
1772025710258927000,4.982927001953125,-1.0019622888594866,0.2999196429029107,-0.5108109759833663
1772025710268924000,4.992923828125,-0.6836164701670407,0.42023032215237616,-0.4575921576235443
1772025710278922000,5.002921875,-0.41894495851695535,0.5635419377610087,-0.3959208604779094
1772025710288919300,5.012919189453125,-0.19441373407542703,0.7117576920241117,-0.26363204906713217
1772025710298916000,5.022916015625,0.062382514154911035,0.7569514632299542,-0.10969112209025769
1772025710308914200,5.0329140625,0.4066676607459783,0.752136464163661,0.0016919716749340295
1772025710318911000,5.042910888671875,0.745172470369935,0.6849272605046629,0.10316219524554908
1772025710328908300,5.052908203125,1.0074527029693126,0.5870622218191623,0.20007117531523108
1772025710338906000,5.062906005859375,1.2584428952693938,0.537393935547769,0.2630585234954953
1772025710348903200,5.072903076171875,1.3905126936346293,0.5366764349281787,0.3477775918167084
1772025710358901000,5.08290087890625,1.3626894516855477,0.5602864430963993,0.4849309039913118
1772025710368898000,5.09289794921875,1.3084236084908247,0.5160068641260266,0.6084949590135366
1772025710378895000,5.10289501953125,1.3087620466649532,0.39301206035912034,0.7460474996387958
1772025710388893200,5.11289306640625,1.2389648723393678,0.23310323795378207,0.8814527260370552
1772025710398890000,5.122889892578125,1.1221604476451874,0.05264788660407066,1.008227413668856
1772025710408887000,5.132886962890625,0.9432225151211022,-0.111605687007308,1.1307104685213416
1772025710418885000,5.142885009765625,0.7367769824683665,-0.215111654189229,1.2342118325933813
1772025710428882200,5.152882080078125,0.5873223340600728,-0.2512371527984738,1.284556410691142
1772025710438879200,5.162879150390625,0.46976621421575543,-0.22851211077123879,1.2904026525013148
1772025710448877300,5.172877197265625,0.3769534904837608,-0.1554641179561615,1.2765695035904645
1772025710458874000,5.1828740234375,0.27630817342996594,-0.05346738629341125,1.1982259616505353
1772025710468871200,5.19287109375,0.12001228082478045,0.08928016569167375,1.0941229784235358
1772025710478869200,5.202869140625,-0.05599895059764385,0.25665625523775815,0.9645260729778558
1772025710488866300,5.2128662109375,-0.18179507552087307,0.449714483051002,0.7932901661984622
1772025710498863000,5.222863037109375,-0.2758060691267252,0.6383645390331745,0.6700379536043852
1772025710508861200,5.232861083984375,-0.24224749839603898,0.8114747883170843,0.6566966798637062
1772025710518858200,5.242858154296875,-0.04020283105075359,0.9303791078999638,0.5655924405500292
1772025710528856300,5.252856201171875,0.16886428227722644,1.0244026687264443,0.40201369746029375
1772025710538853000,5.26285302734375,0.44661680929660796,1.0867787531405686,0.2797418742056936
1772025710548850200,5.27285009765625,0.7445815187394619,1.158437337423861,0.2202468981858343
1772025710558848300,5.28284814453125,0.8850766156226396,1.1869991227805614,0.25307379364110527
1772025710568845300,5.29284521484375,0.9562450783014297,1.1133797598183155,0.3650724985539913
1772025710578842000,5.302842041015625,0.9883423443078995,0.9630413143128156,0.6031989714972674
1772025710588840200,5.312840087890625,0.8979600625932216,0.7995785988181829,0.8884927807416766
1772025710598835200,5.322835205078125,0.7652513818025588,0.6405202557623386,1.0607087845996022
1772025710608832000,5.33283203125,0.7092360645920038,0.4994201787233352,1.1318356731589883
1772025710618830000,5.342830078125,0.7058405769348144,0.3669350775554776,1.1450608462393284
1772025710628827400,5.352827392578125,0.676939476621151,0.2662219559624791,1.0608141446702182
1772025710638824200,5.36282421875,0.5958639524340629,0.1840320407927036,0.9730596541758626
1772025710648822300,5.372822265625,0.48111587574779985,0.0869406168282032,0.9196738086860626
1772025710658819000,5.382819091796875,0.3709159638851881,-0.034488252796232695,0.8681428703479468
1772025710668817400,5.3928173828125,0.3375152140647173,-0.09062631960362195,0.7849263886094093
1772025710678814200,5.402814208984375,0.3202162887394428,-0.053716392618417735,0.6838323048748075
1772025710688811300,5.412811279296875,0.26745909654200073,-0.046831017018854615,0.6001001652317122
1772025710698809000,5.42280908203125,0.2632657365053892,-0.0991360815346241,0.5283054604133591
1772025710708806400,5.432806396484375,0.20983809770047662,-0.17799509871602057,0.5180285061467439
1772025710718803200,5.44280322265625,0.1116793367654085,-0.26708237218409775,0.5120122780645265
1772025710728801300,5.45280126953125,0.0333446357190609,-0.33095804750621316,0.5149039809180423
1772025710738798000,5.462798095703125,-0.0486070867806673,-0.3902233064234257,0.5208838955778629
1772025710748795400,5.47279541015625,-0.09948328753709793,-0.4396764886394143,0.504185822222568
1772025710758793200,5.482793212890625,-0.07190379121601581,-0.5027431856662035,0.49232302353661506
1772025710768790300,5.492790283203125,-0.04452595494687557,-0.5364779897466302,0.493777569726482
1772025710778787000,5.502787109375,-0.08821604359149933,-0.5729051016509532,0.524424527326785
1772025710788785200,5.51278515625,-0.11530571056902408,-0.6400049997165799,0.542162026732415
1772025710798782200,5.5227822265625,-0.11094517727196215,-0.6810901665598154,0.5497598614502698
1772025710808780300,5.5327802734375,-0.1161503446996212,-0.7186112111806869,0.5690522986803204
1772025710818777300,5.54277734375,-0.20855039597749708,-0.7807920652836561,0.5985287146639079
1772025710828774100,5.552774169921875,-0.27879239146113394,-0.8626879659429192,0.6121685694923624
1772025710838772200,5.562772216796875,-0.2787134810060263,-0.9552017067283392,0.6136147862453013
1772025710848769300,5.572769287109375,-0.24911036990284918,-1.153304942971468,0.6873502498678863
1772025710858766300,5.582766357421875,-0.3046615767329931,-1.425705587568879,0.7428122440446168
1772025710868764200,5.59276416015625,-0.5160562562257052,-1.3484370544493198,0.6681990477394312
1772025710878761200,5.60276123046875,-0.741416332706809,-1.0316115771919487,0.7051016682010144
1772025710888758300,5.61275830078125,-0.8048837194889783,-0.9481751690924167,0.7136399255741387
1772025710898756400,5.62275634765625,-0.7872001787602901,-1.0442629689723253,0.6066078300926834
1772025710908753200,5.632753173828125,-0.8191489762067794,-1.0536118120759725,0.4572348320858553
1772025710918750200,5.642750244140625,-0.9209124836355447,-0.8548723237559199,0.3187571759723127
1772025710928748000,5.652748046875,-0.9828887550771236,-0.6253443139404058,0.15930133976517244
1772025710938745300,5.662745361328125,-0.973079893246293,-0.4931801152899861,-0.026738483486254697
1772025710948743200,5.6727431640625,-0.9632628481090069,-0.41370208942741155,-0.1316572355089709
1772025710958740200,5.682740234375,-1.0358920309901236,-0.35410686790347096,-0.2441665750914253
1772025710968737000,5.692737060546875,-1.0744827506691217,-0.19770225422680376,-0.34165487115271387
1772025710978735000,5.702735107421875,-1.098419506573677,-0.04651742102503776,-0.4426617149952799
1772025710988732400,5.712732421875,-1.1768553299069404,0.06844517519474029,-0.5767819430842995
1772025710998729200,5.722729248046875,-1.161766481846571,0.1333300275593996,-0.7196957915470004
1772025711008727300,5.732727294921875,-1.0388771842807532,0.22065584431290625,-0.8612213274564594
1772025711018724000,5.74272412109375,-0.8903905041217803,0.356337403434515,-0.9977590650159865
1772025711028721400,5.752721435546875,-0.7312830612272023,0.5026438169449567,-1.1389556612320244
1772025711038719200,5.76271923828125,-0.5428168373793363,0.5750730933398008,-1.2268237681686878
1772025711048716300,5.77271630859375,-0.3009329115986824,0.5814303534120321,-1.2923140390805898
1772025711058714000,5.782714111328125,0.020299276185035704,0.5778732454523444,-1.297943423269689
1772025711068711200,5.792711181640625,0.3564987314760685,0.5853498649433255,-1.2773615307509898
1772025711078708200,5.802708251953125,0.563692452147603,0.5872068909868597,-1.1693475846253334
1772025711088706300,5.812706298828125,0.687761899408698,0.5544844788193702,-1.057468341373652
1772025711098703000,5.822703125,0.7775970686346292,0.49927989346981044,-0.9863926715448498
1772025711108700200,5.8327001953125,0.7992267166405915,0.42313305785655975,-0.9324431277576833
1772025711118698200,5.8426982421875,0.8050438784867525,0.3896010828718543,-0.9056284783292561
1772025711128695300,5.8526953125,0.8111679143249988,0.44336832889467476,-0.822211797843501
1772025711138692000,5.862692138671875,0.7978250331491231,0.530562335962057,-0.7257481503885239
1772025711148690200,5.872690185546875,0.8267495143383741,0.5685296630457043,-0.6401228539425879
1772025711158687200,5.882687255859375,0.9302139804661274,0.5364455487817525,-0.5641808201864361
1772025711168684300,5.892684326171875,0.9975298593699932,0.5089113529071212,-0.5404228549148887
1772025711178682400,5.902682373046875,0.991938907495141,0.5400900427639485,-0.561316370666027
1772025711188679200,5.91267919921875,0.9336860404908657,0.6053717854917049,-0.5783350177451968
1772025711198677200,5.92267724609375,0.9265665638744831,0.6633563569486141,-0.638109979750216
1772025711208675000,5.932675048828125,0.928989407107234,0.7157695580139756,-0.7107189966261387
1772025711218673200,5.942673095703125,0.7627110496699809,0.7473807940691709,-0.7294320265330374
1772025711228670200,5.952670166015625,0.579049011233449,0.7394985163867474,-0.7613708871074021
1772025711238667300,5.962667236328125,0.5424474195450544,0.7137099951356649,-0.8048411955215037
1772025711248665300,5.972665283203125,0.6303402225315571,0.6726867876127361,-0.7859249711927027
1772025711258662100,5.982662109375,0.7567313907384872,0.6313596287071704,-0.8128222574032843
1772025711268659200,5.9926591796875,0.8705114991754292,0.5848159041970968,-0.9149632198423147
1772025711278657300,6.0026572265625,1.0043804559171199,0.4999512168601155,-1.01122944502905
1772025711288654300,6.012654296875,1.1025742881655693,0.35892888123244043,-1.103373767980188
1772025711298652200,6.022652099609375,1.0911948160171507,0.1985942346304655,-1.1144444664403796
1772025711308649200,6.032649169921875,1.001577088934183,-0.015069851098954676,-0.964791957372427
1772025711318646300,6.042646240234375,0.8851432511180639,-0.24930998412817715,-0.766655403381586
1772025711328644400,6.052644287109375,0.8169301311135292,-0.4559551310062408,-0.6300762378331274
1772025711338641200,6.06264111328125,0.7560679583936929,-0.6466241255953907,-0.5749629840288311
1772025711348638200,6.07263818359375,0.6547720684766769,-0.792368229047954,-0.5202225455923005
1772025711358636000,6.082635986328125,0.5601742148935794,-0.9034270958274603,-0.4759930528413504
1772025711368633300,6.09263330078125,0.4219692747741937,-0.9772209385737776,-0.4327726640677079
1772025711378630100,6.102630126953125,0.31830607120394705,-1.0303013713762164,-0.44184528404586015
1772025711388628200,6.112628173828125,0.34016952796578404,-1.1037903859570621,-0.47255916940253223
1772025711398625000,6.122625,0.373152344635129,-1.128170209454,-0.5320778550915419
1772025711408622300,6.132622314453125,0.351868733587861,-1.0553392203904688,-0.6073241251358762
1772025711418620200,6.1426201171875,0.29673429086506364,-0.9525342410847544,-0.6544523350030184
1772025711428617000,6.152616943359375,0.20974925037324427,-0.8926124179549515,-0.6599824966013431
1772025711438615000,6.162614990234375,0.09653437460362911,-0.8986004063233732,-0.6471386509887874
1772025711448612000,6.172612060546875,0.04411971223354339,-0.9020562458656728,-0.5957481075020507
1772025711458609200,6.182609130859375,0.09911971492171287,-0.8762092724256217,-0.5796882589850575
1772025711468607000,6.19260693359375,0.19979951876699922,-0.8538979257658124,-0.5805575891654938
1772025711478604000,6.20260400390625,0.20763854182958602,-0.8597855224996804,-0.5919791468899697
1772025711488601000,6.21260107421875,0.08556056064665317,-0.8829244060248136,-0.5523568191409111
1772025711498599200,6.22259912109375,-0.0909796630859375,-0.8994250205792487,-0.4479796951476484
1772025711508596000,6.232595947265625,-0.2194207495599985,-0.9440607195109129,-0.3811212776876986
1772025711518594000,6.242593994140625,-0.28274609752297397,-0.9496220068998634,-0.3428993913210928
1772025711528590800,6.2525908203125,-0.371294734069705,-0.8774753468386829,-0.30608627577386793
1772025711538588200,6.262588134765625,-0.46566988481283184,-0.7936316731125116,-0.2929663896989077
1772025711548586200,6.272586181640625,-0.5478337887585163,-0.7472482537306845,-0.30298056484349073
1772025711558583000,6.2825830078125,-0.6290794088155031,-0.6863767286606133,-0.32745230440758166
1772025711568579800,6.292579833984375,-0.7908440882205963,-0.6463024924255907,-0.26632125161848963
1772025711578578000,6.302577880859375,-0.9309235900402069,-0.7404755447253585,-0.13557444548532366
1772025711588575200,6.3125751953125,-0.9961328520536422,-0.9593101649604737,-0.011485270610451698
1772025711598572000,6.322572021484375,-1.2563514759480952,-0.8950187484443187,0.0707425654169172
1772025711608570000,6.332570068359375,-1.4699930575847624,-0.6747808372825383,0.16835545597225426
1772025711618567000,6.34256689453125,-1.5166910958737134,-0.5915194934889674,0.230233600801602
1772025711628564200,6.352564208984375,-1.619901294979453,-0.5874515133976936,0.29176410123705865
1772025711638562000,6.36256201171875,-1.8732114546597003,-0.5883057921394705,0.40787148357778785
1772025711648559000,6.37255908203125,-2.1332693350344893,-0.45216158394217487,0.49143619423210616
1772025711658557000,6.382556884765625,-2.3294740441799164,-0.22597966968417166,0.527091737242043
1772025711668554000,6.392553955078125,-2.3658780674695965,-0.013587357456237077,0.5005263133343308
1772025711678551000,6.402551025390625,-2.1684651515781876,0.18050825058072803,0.41633835621513426
1772025711688549000,6.412549072265625,-1.8749720345914362,0.4644232457526028,0.28395693461745974
1772025711698546000,6.4225458984375,-1.6361141786336897,0.7373664727941155,0.14395312838256358
1772025711708543000,6.43254296875,-1.3875497521758078,0.891335822147876,0.01771013647466898
1772025711718540800,6.442540771484375,-1.0775567512869835,0.9982819929115474,-0.10000102780088782
1772025711728538000,6.4525380859375,-0.8031365835607052,1.0658030389986932,-0.1582470266729593
1772025711738535000,6.462534912109375,-0.5684083747535944,1.1445648794159293,-0.1490211523618549
1772025711748533000,6.472532958984375,-0.36037761873602864,1.2496264054767787,-0.18649828477576375
1772025711758529800,6.48252978515625,-0.11721183645129203,1.3500097105935216,-0.22681275950744748
1772025711768528000,6.49252783203125,0.17923194703459738,1.4057757292181252,-0.2515603203382343
1772025711778525200,6.502525146484375,0.5769178444236517,1.3624471673622727,-0.22357830763086675
1772025711788522000,6.51252197265625,1.0010399133175611,1.2261541983440518,-0.12036547817662357
1772025711798520000,6.52252001953125,1.329316758915782,1.0820309740915894,0.030641587305441496
1772025711808516900,6.532516845703125,1.5273060133904217,0.9601961540147662,0.15694982646927236
1772025711818514200,6.54251416015625,1.622623997941613,0.9425526530355215,0.2824160618510097
1772025711828512000,6.552511962890625,1.6383979056566953,0.929793124705553,0.4817251667525619
1772025711838509000,6.562509033203125,1.5306892260879277,0.7835621145188808,0.780758089948818
1772025711848507000,6.5725068359375,1.3022954809993506,0.5380003770083188,1.0820132923044263
1772025711858504000,6.58250390625,1.103630519220233,0.23274930994957685,1.3556360260426998
1772025711868501000,6.5925009765625,0.9592606267303228,-0.03858253637254238,1.572127882543951
1772025711878499000,6.6024990234375,0.8117401612550019,-0.16154782178401947,1.6937779937036335
1772025711888495900,6.612495849609375,0.6490355706512928,-0.1739224424496293,1.7494746003538368
1772025711898493000,6.622492919921875,0.4780816226184368,-0.09917407545745373,1.7199002769537268
1772025711908491000,6.632490966796875,0.25318448747396466,-0.015295476548373698,1.6680156298071145
1772025711918488000,6.642488037109375,-0.08664718683958053,0.04213526041805744,1.5502413371674715
1772025711928484900,6.65248486328125,-0.46212768216133115,0.11313654983639716,1.4154150797009468
1772025711938483000,6.66248291015625,-0.7274409988462924,0.25787059946358204,1.2927750807210803
1772025711948480300,6.672480224609375,-0.8414069852441549,0.47309565089941025,1.074948322354257
1772025711958478000,6.68247802734375,-0.8742547773569822,0.6966571535259485,0.8666439370270818
1772025711968475100,6.69247509765625,-0.8240332411170005,0.7893535574018955,0.6294848478112369
1772025711978472000,6.702471923828125,-0.574834023886919,0.8324477259799837,0.289168750981614
1772025711988470000,6.712469970703125,-0.13815116410553455,0.9203700473219155,-0.06023914545066655
1772025711998467000,6.722467041015625,0.32410394382774826,1.0353601160705088,-0.3056025108449161
1772025712008464100,6.732464111328125,0.7193903788596391,1.1152853011786936,-0.4337075702976435
1772025712018462000,6.7424619140625,0.9761065475910902,1.0337646635726094,-0.40116796735115345
1772025712028459000,6.752458984375,1.0756786824554205,0.8438578855276108,-0.23517697548791766
1772025712038456000,6.7624560546875,1.0971306358069182,0.6395911582186817,0.06914747824519872
1772025712048454100,6.7724541015625,1.0996160228818654,0.39120150380581614,0.4178976414211094
1772025712058451000,6.782450927734375,1.1161217520028353,0.11653875949531793,0.6128619951166212
1772025712068449000,6.792448974609375,1.1755050843417645,-0.12737404176443815,0.7072925293087959
1772025712078445800,6.80244580078125,1.2250018134385348,-0.3183697840899229,0.8265948352333158
1772025712088443100,6.812443115234375,1.1716045697718858,-0.47436026400774717,0.9684100017391145
1772025712098441200,6.822441162109375,1.0853151103287935,-0.6031853813633322,1.0937972536005078
1772025712108438000,6.83243798828125,1.05018476023674,-0.6888675225630402,1.1982458353947847
1772025712118434800,6.842434814453125,0.9501999529182911,-0.7456482711881399,1.2724141374766826
1772025712128433000,6.852432861328125,0.8492389940440654,-0.8271592641830444,1.2535288197427987
1772025712138430200,6.86243017578125,0.7788479454785585,-0.8972881546810269,1.1676442878387867
1772025712148427000,6.872427001953125,0.61949909504354,-0.9095777274116873,1.0425967162605374
1772025712158425000,6.882425048828125,0.40459786873459813,-0.9095623837120831,0.873675589229539
1772025712168422000,6.892421875,0.24278935018777845,-0.9280741919584572,0.7054358685914427
1772025712178420000,6.902419921875,0.1600122827798128,-0.9402506597034632,0.6419320953216403
1772025712188417000,6.9124169921875,0.03012158201932907,-0.9561575461484492,0.6409609122019261
1772025712198414000,6.9224140625,-0.16791326516270635,-0.9557597790025174,0.6612199294418096
1772025712208412000,6.932411865234375,-0.3686135321617126,-0.967656406892836,0.7069725035741925
1772025712218409000,6.942408935546875,-0.5209048653006554,-0.991964918719232,0.7067068383753299
1772025712228406000,6.952406005859375,-0.6293979732453823,-0.9524813418537378,0.6729439041789621
1772025712238404000,6.962404052734375,-0.7908212918668985,-0.8666866801902652,0.676144453785941
1772025712248401000,6.97240087890625,-0.9466051432967185,-0.7948977475255727,0.6743534787159413
1772025712258399000,6.98239892578125,-1.0686012914150953,-0.7158820784777402,0.6371605700708926
1772025712268395800,6.992395751953125,-1.1785633028686047,-0.6281313143104315,0.6078988928165286
1772025712278393000,7.00239306640625,-1.2648878336250782,-0.559747806175053,0.5876090785795822
1772025712288391200,7.01239111328125,-1.2526514523863792,-0.6133011171862482,0.56332961018458
1772025712298388000,7.022387939453125,-1.0319090988337993,-0.8370189794182777,0.5037100214043632
1772025712308385000,7.032385009765625,-1.1109902343332767,-0.7448220494970679,0.41163317419886586
1772025712318383000,7.042383056640625,-1.4483780226260423,-0.25001404074430467,0.49024738630633796
1772025712328380200,7.052380126953125,-1.5285089594393968,-0.05391337649524212,0.5307477755315602
1772025712338377000,7.062376953125,-1.419795486742258,-0.22645780858993528,0.4169948108298704
1772025712348375000,7.072375,-1.345405723929405,-0.3514534307852387,0.30960699724592267
1772025712358372000,7.0823720703125,-1.3791875820219517,-0.2132289091825485,0.19883107559364288
1772025712368370200,7.0923701171875,-1.439848094689846,0.06703589291870593,0.11642386441137641
1772025712378367000,7.102366943359375,-1.3591951798290014,0.24965251395553348,0.03154607328093843
1772025712388364000,7.112364013671875,-1.1680126827597617,0.3007353431999683,-0.05433013603601139
1772025712398361900,7.12236181640625,-1.036693410500884,0.35365444796085355,-0.0772028657385148
1772025712408359200,7.132359130859375,-0.9859574949979781,0.5056830385103821,-0.0784841011880897
1772025712418356000,7.14235595703125,-0.9539122514396905,0.6740721044912934,-0.1180594388571102
1772025712428353800,7.152353759765625,-0.8482856388419866,0.7747770427778363,-0.1827291962995194
1772025712438350800,7.162350830078125,-0.639083500957489,0.8136193991303443,-0.30488287306716666
1772025712448348000,7.172347900390625,-0.4045125285387039,0.8997431466177105,-0.4429293529555201
1772025712458346000,7.182345947265625,-0.18865268633067606,1.024789037695527,-0.5312376414077357
1772025712468342800,7.1923427734375,0.031609774750471116,1.1247902116268873,-0.5797939843818545
1772025712478340900,7.2023408203125,0.25439795491695405,1.1434472735628485,-0.5821762398758903
1772025712488337700,7.212337646484375,0.41576983561217784,1.0911603292256593,-0.5646082883508876
1772025712498335000,7.2223349609375,0.5354962852329015,1.0491074863940477,-0.5425007206348702
1772025712508333000,7.2323330078125,0.5695850173175334,1.0098825604647397,-0.4755277734171599
1772025712518329900,7.242329833984375,0.46630116845369335,0.9844880069673061,-0.3746722842114046
1772025712528326700,7.25232666015625,0.3663572776675224,0.9556929973766207,-0.31707466624546793
1772025712538324700,7.26232470703125,0.36272155151367186,0.9426838781997561,-0.28968298411406573
1772025712548322000,7.272322021484375,0.4034142119079828,0.9591033903419971,-0.2390752981007099
1772025712558319900,7.28231982421875,0.46822307642698285,0.9705793086022138,-0.17543839997053146
1772025712568317000,7.29231689453125,0.4910217682123184,0.9637450786679983,-0.10129073881786316
1772025712578313700,7.302313720703125,0.4976543380945921,0.9731298698678612,-0.06855700153876096
1772025712588311800,7.312311767578125,0.5022819978952408,1.0231468234464525,-0.07123257742356509
1772025712598308900,7.322308837890625,0.43483109443485735,1.060332352502644,-0.08866079168431461
1772025712608306000,7.332305908203125,0.362579512694478,1.0460340702980757,-0.15935688761100172
1772025712618303700,7.3423037109375,0.3130103028833866,1.0028373181283474,-0.209074383318983
1772025712628300800,7.35230078125,0.2779313907176256,1.0160001665621996,-0.2431912455195561
1772025712638297900,7.3622978515625,0.2522597738444805,1.0609808795392512,-0.22195940119214355
1772025712648296000,7.3722958984375,0.2485252634912729,1.1002131119921803,-0.2066602348493412
1772025712658292700,7.382292724609375,0.32889468523561954,1.0916697400525213,-0.23276721093244848
1772025712668290800,7.392290771484375,0.4610796344131231,1.0647051607593894,-0.2672941152386367
1772025712678288000,7.402287841796875,0.5612807148307561,1.024082058469951,-0.2556532887402922
1772025712688285000,7.412284912109375,0.5980652618706226,0.9355588486254215,-0.23950148762352763
1772025712698283000,7.422282958984375,0.6351847399532795,0.7986398566633462,-0.21673892659749835
1772025712708279800,7.43227978515625,0.715289373281598,0.667448302437365,-0.12783877319935708
1772025712718276900,7.44227685546875,0.7573480613321065,0.5577908268883824,-0.008219985204190015
1772025712728275000,7.45227490234375,0.7888315793544054,0.4291100864395499,0.1349664331221953
1772025712738272000,7.46227197265625,0.7347977913498878,0.2974392242640257,0.24153653711508957
1772025712748269800,7.472269775390625,0.597559065914154,0.17312223198264837,0.28781759210098534
1772025712758267000,7.482266845703125,0.40656127776205536,0.026927462153136728,0.3578307107321918
1772025712768264000,7.492263916015625,0.24175825357437133,-0.1063400215640664,0.43174533031396567
1772025712778262000,7.502261962890625,0.16943419111967087,-0.17087854470908642,0.48140335091967135
1772025712788258800,7.5122587890625,0.15337036054730416,-0.14080109409242866,0.4668267266977578
1772025712798255900,7.522255859375,0.14226386012136935,-0.06834697551727295,0.40450394337344914
1772025712808253700,7.532253662109375,0.11712415816783904,-0.011148586001992224,0.314374905767478
1772025712818251000,7.5422509765625,0.00949614261984825,0.015676292559504507,0.2533855630040169
1772025712828247800,7.552247802734375,-0.09187807323038577,0.05770400094985961,0.220877560772188
1772025712838246000,7.562245849609375,-0.11549334209561347,0.1455553028821945,0.1773708293378353
1772025712848242700,7.57224267578125,-0.13257365623414516,0.25873627638220786,0.10890716863833368
1772025712858240800,7.58224072265625,-0.22425474558770656,0.30544892771840093,0.018291078167781232
1772025712868237800,7.59223779296875,-0.31295828043520446,0.29955548576563595,-0.11513006174117327
1772025712878235000,7.60223486328125,-0.3973334306895733,0.2496694650903344,-0.193383368114382
1772025712888233000,7.61223291015625,-0.47065293392241,0.19376637608259914,-0.23215799299292264
1772025712898229800,7.622229736328125,-0.5015390705734492,0.15726766024678945,-0.25330380300469696
1772025712908227000,7.63222705078125,-0.4776455692887306,0.13668752129375933,-0.24399215010628103
1772025712918225000,7.642224853515625,-0.5144838923424482,0.1254524260520935,-0.20216924357302485
1772025712928222000,7.652221923828125,-0.5337514873921871,0.11543518216758966,-0.1656026501327753
1772025712938218800,7.66221875,-0.4609048623681068,0.07896101625114679,-0.13450097103491424
1772025712948216800,7.672216796875,-0.4159896158427,0.054199207699298854,-0.09459989940971135
1772025712958214000,7.6822138671875,-0.3905786957323551,0.05118132118284702,-0.07371602826975286
1772025712968212000,7.6922119140625,-0.3603893091738224,0.06347206295728683,-0.10479279212206602
1772025712978208800,7.702208740234375,-0.286228094419837,0.08291735266149043,-0.15914032225087285
1772025712988205800,7.712205810546875,-0.2698229030638933,0.08480886549651623,-0.25962445739358664
1772025712998203600,7.72220361328125,-0.27673604345321656,0.05997428396940231,-0.32785160592347384
1772025713008201000,7.732200927734375,-0.23402795158326625,0.0036430326774716374,-0.33886166023761033
1772025713018197800,7.74219775390625,-0.21732699215114115,-0.07321312024891376,-0.33231289618127047
1772025713028195800,7.75219580078125,-0.1813964315921068,-0.1621145157560706,-0.31140199090391396
1772025713038192600,7.762192626953125,-0.11013327636718749,-0.19231237788200378,-0.2934987430099398
1772025713048190700,7.772190673828125,-0.013105565288662909,-0.2308046056225896,-0.2938878884579986
1772025713058188000,7.78218798828125,0.06252572201788426,-0.27249183001220223,-0.2954602523412555
1772025713068184800,7.792184814453125,0.10009119030237197,-0.33916999553442,-0.29543760211803016
1772025713078183000,7.802182861328125,0.1883802991300821,-0.4192182225003838,-0.2917687043469399
1772025713088179700,7.8121796875,0.31791327249407764,-0.4963318573191762,-0.2730157808210701
1772025713098177000,7.822177001953125,0.43212884973883625,-0.5520443921908736,-0.2575700090818107
1772025713108174800,7.8321748046875,0.47114100970029826,-0.5987172960385679,-0.21653343062065541
1772025713118172000,7.842171875,0.47739422487616534,-0.6729974609971046,-0.19754293547924606
1772025713128168700,7.852168701171875,0.4498474617809057,-0.7307908937960863,-0.17867928158789873
1772025713138166800,7.862166748046875,0.42242987802326676,-0.8225064699411392,-0.13754980067890138
1772025713148163800,7.872163818359375,0.3437403721898794,-0.9263105432868003,-0.08795088984929024
1772025713158162000,7.882161865234375,0.3000865239024162,-0.9827347335591912,-0.02628573018349707
1772025713168158700,7.89215869140625,0.28813422030210495,-0.9755053668275475,0.0201372174911201
1772025713178155800,7.90215576171875,0.2602899355649948,-0.9619736850813031,0.025726379267685114
1772025713188153900,7.91215380859375,0.27583003452420235,-0.9827969851404428,-0.019611038192547857
1772025713198151000,7.92215087890625,0.2676233471930027,-0.9960706004723906,-0.023311354015208778
1772025713208147700,7.932147705078125,0.16666706449389457,-1.0049065256178378,-0.026118374259956178
1772025713218145800,7.942145751953125,0.046241526693105696,-1.0161948123514652,-0.0034455556103028355
1772025713228142800,7.952142822265625,-0.010729483807086944,-1.0247729633435607,0.00825788779547438
1772025713238141000,7.962140869140625,-0.023942601123452187,-1.0169286795839667,-0.03776643421668559
1772025713248138000,7.972137939453125,-0.08470248251259327,-0.950179494652152,-0.10215088104484603
1772025713258134800,7.982134765625,-0.15950433325767516,-0.8415273967534304,-0.1615446799788624
1772025713268132900,7.9921328125,-0.2136602863371372,-0.7430088625952601,-0.18684936323575674
1772025713278130000,8.0021298828125,-0.26533377495110033,-0.6660393124222755,-0.1943094334507361
1772025713288127000,8.012126953125,-0.3688619539648294,-0.5717632381394505,-0.21578747109156102
1772025713298124800,8.022124755859375,-0.4483481631338596,-0.4637622976258397,-0.225432210135553
1772025713308121900,8.032121826171876,-0.41354514530003067,-0.3290416924908757,-0.28736477029956875
1772025713318119000,8.042118896484375,-0.30990298451781273,-0.19294599961042402,-0.32411033703591674
1772025713328117000,8.052116943359374,-0.2088987710237503,-0.14030541952997444,-0.30802970145922154
1772025713338113800,8.06211376953125,-0.13480536080896854,-0.29891455751359464,-0.2194865630715154
1772025713348112000,8.07211181640625,-0.100913612601161,-0.6924044645175338,-0.06485956265977584
1772025713358108700,8.082108642578126,-0.23490648798346517,-0.9748653153583406,0.13210623965179547
1772025713368106000,8.09210595703125,-0.45375323704779147,-0.9554156417399644,0.27095534115992487
1772025713378103800,8.102103759765624,-0.5774012440264225,-0.8294804006069898,0.2764025737151503
1772025713388100900,8.112100830078125,-0.6019616847872734,-0.7434563141018152,0.2551149440798908
1772025713398097700,8.12209765625,-0.7156091067552566,-0.6577861556008457,0.3409603130172938
1772025713408095700,8.132095703125,-0.9931114584058522,-0.47771074347943066,0.30506473244009535
1772025713418093000,8.142093017578125,-1.1727373731940984,-0.23828531676679848,0.20173927292423322
1772025713428091000,8.1520908203125,-1.1753478479534387,0.08134118938595056,-0.005576357093919068
1772025713438088700,8.162088623046875,-0.9940507850825786,0.36645810769349335,-0.28668358310237524
1772025713448085800,8.172085693359374,-0.5752250690311194,0.5895017239257693,-0.3437140687048435
1772025713458083600,8.18208349609375,-0.16984511000812053,0.8685504282355307,-0.49839416014384474
1772025713468080600,8.19208056640625,0.13271452600955963,1.1744468074604868,-0.652969914425537
1772025713478077700,8.20207763671875,0.409876101398468,1.378776370872557,-0.7346412856139242
1772025713488075800,8.21207568359375,0.6809107183396815,1.4228887765824794,-0.7746141073010862
1772025713498072600,8.222072509765624,0.8845230733931064,1.3229393328383565,-0.704254184526205
1772025713508070700,8.232070556640625,0.977656699642539,1.116364620848,-0.5182385687008499
1772025713518067700,8.242067626953125,0.9880021525681019,0.8706906551346182,-0.21866492622401565
1772025713528064800,8.252064697265626,0.9557914893150329,0.6717506758064031,0.14001867501046508
1772025713538062800,8.262062744140625,0.7860334730684757,0.5247799531683326,0.2918905771609396
1772025713548059600,8.2720595703125,0.5546586663424968,0.42981706566512584,0.38030572352111336
1772025713558056700,8.282056640625,0.35438626936674117,0.3068655165180564,0.5154456135140731
1772025713568054800,8.2920546875,0.15050269615650175,0.16476649156957865,0.6071456632964313
1772025713578051800,8.3020517578125,-0.05705927330553531,0.03904723127484321,0.6894226722277701
1772025713588048600,8.312048583984375,-0.11644494373202323,-0.008511807757616043,0.7296887777730822
1772025713598046700,8.322046630859376,-0.02399988426864147,0.012644377517700195,0.6957500486183911
1772025713608043800,8.332043701171875,0.0684188717097044,0.07904664870798588,0.5885708728164434
1772025713618041900,8.342041748046874,0.10981529645919799,0.17696955506056547,0.4190913081850856
1772025713628038700,8.35203857421875,0.14649989025592802,0.3138163585692644,0.27970716821849345
1772025713638035700,8.36203564453125,0.10327508103549479,0.421179877962172,0.24780001795664428
1772025713648033500,8.372033447265625,-0.05583937612175941,0.4497203282698989,0.2554655841484666
1772025713658030800,8.38203076171875,-0.015225041660666464,0.46521541904360053,0.1630494585186243
1772025713668027600,8.392027587890626,0.06891337722837924,0.4732277528464794,0.04114142707511782
1772025713678025700,8.402025634765625,0.14135668214857577,0.4800754267841577,-0.027371114267408847
1772025713688022500,8.4120224609375,0.33431963289380073,0.44311990709155796,-0.05532265877127647
1772025713698020600,8.4220205078125,0.5883230355352163,0.3890191913306713,-0.11510302760377526
1772025713708018000,8.432017822265625,0.7785293810486793,0.31026626487225295,-0.08791026557795703
1772025713718014700,8.4420146484375,0.8614899883300066,0.21445231349766253,-0.008666194601729512
1772025713728012800,8.4520126953125,0.8751409125417471,0.07386720024347306,0.16842545246854423
1772025713738009600,8.462009521484376,0.8465887717962265,-0.08813625635355711,0.3787821672156453
1772025713748007000,8.4720068359375,0.8124222983002662,-0.26223727024048565,0.5383380845300852
1772025713758004700,8.482004638671874,0.76851301394701,-0.3883659881189465,0.6143818981602788
1772025713768001800,8.492001708984375,0.6789625068813562,-0.42789632673561573,0.7239691580172628
1772025713777998600,8.50199853515625,0.5898299329668283,-0.47929567458331584,0.7880440091732889
1772025713787996700,8.51199658203125,0.5789145711988211,-0.5616743903234601,0.7712157700996846
1772025713797993700,8.52199365234375,0.6217606102347374,-0.6511857344225048,0.755957410691306
1772025713807991800,8.53199169921875,0.5808499231755733,-0.6576517155662178,0.6970743560247122
1772025713817988600,8.541988525390625,0.5017781400263309,-0.5901555116593837,0.6223464472986757
1772025713827985700,8.551985595703124,0.4209826018244028,-0.5487091102883219,0.5423886750951409
1772025713837983500,8.5619833984375,0.3147030782759189,-0.5415682986229657,0.4921047411434352
1772025713847980800,8.571980712890625,0.1870306380867958,-0.5184671167597175,0.47507878754064436
1772025713857977600,8.5819775390625,0.1075666407495737,-0.4776338788509369,0.44549839972592886
1772025713867975700,8.5919755859375,0.07034837846755981,-0.41162002245634793,0.45431678921468555
1772025713877972700,8.60197265625,0.07027765131890773,-0.3531415300026536,0.4678102578423917
1772025713887970600,8.611970458984375,0.057179100292921066,-0.33638708681762214,0.45771994872167704
1772025713897967900,8.6219677734375,0.02331365557014942,-0.35728842054903504,0.4733306286990642
1772025713907964700,8.631964599609375,-0.03852466870546341,-0.3720733172267675,0.5404784575596452
1772025713917962800,8.641962646484375,-0.14345219312310217,-0.38390374801307914,0.5785488066263497
1772025713927959800,8.651959716796876,-0.20796353600025175,-0.38634880307763814,0.5711966172326356
1772025713937956900,8.661956787109375,-0.20794775390923023,-0.38139907171577214,0.5874878998853266
1772025713947954700,8.67195458984375,-0.2264659918963909,-0.4121478457227349,0.6100173462752252
1772025713957951700,8.68195166015625,-0.2471218264341354,-0.40975305954068897,0.6218563256941735
1772025713967948800,8.69194873046875,-0.2542424720942974,-0.38267186813056464,0.6503771945185959
1772025713977947000,8.70194677734375,-0.3127145348072052,-0.3626604689761996,0.6937623088672756
1772025713987943700,8.711943603515625,-0.38456338096559045,-0.4070610439777374,0.7654409860905259
1772025713997941800,8.721941650390624,-0.46134266926348205,-0.42945963052958247,0.8245146679583937
1772025714007938600,8.7319384765625,-0.5333960980832576,-0.40402679084837434,0.8511717156723141
1772025714017936000,8.741935791015624,-0.5582751032739878,-0.37712592444121834,0.8320216825876384
1772025714027934000,8.751933837890626,-0.5320826773971319,-0.4210808015018701,0.7793170973602682
1772025714037930800,8.7619306640625,-0.45571606155335903,-0.6103495739042759,0.841323837005347
1772025714047927600,8.771927490234376,-0.4729828381747007,-0.8751347750619053,0.9635332625482231
1772025714057925600,8.781925537109375,-0.6679454383045434,-0.8315373331367969,1.0266477442394941
1772025714067923000,8.7919228515625,-0.8249392500460148,-0.5478489863276481,1.0374879218794404
1772025714077920800,8.801920654296875,-0.8368266717165708,-0.4344336195498705,0.9892903657477349
1772025714087917800,8.811917724609375,-0.7219868250936269,-0.4534147988736629,0.825952007285133
1772025714097914600,8.82191455078125,-0.6391010366141796,-0.28628742339164015,0.6424829341374337
1772025714107912700,8.83191259765625,-0.5884340946942568,-0.04485065685659647,0.54443245588243
1772025714117909800,8.84190966796875,-0.4660077384650707,0.03480447913855314,0.5525114982459693
1772025714127906800,8.85190673828125,-0.297802212357521,0.04509060309231281,0.5199424500092864
1772025714137904600,8.861904541015624,-0.128401923507452,0.11984569208621978,0.4905865916654467
1772025714147901700,8.871901611328125,-0.10927052205801009,0.24033348146826028,0.52758350281436
1772025714157899500,8.8818994140625,-0.18732640616297722,0.3199050308331847,0.6177835232973098
1772025714167896800,8.891896728515626,-0.3264648277401924,0.32377251991629596,0.6751053930617869
1772025714177893600,8.9018935546875,-0.4468687382310629,0.3534548337355256,0.6491548131167888
1772025714187891700,8.9118916015625,-0.47206513880789275,0.44262715513855216,0.5456000018244609
1772025714197888500,8.921888427734375,-0.4784761748939752,0.572862723813951,0.39872605409175155
1772025714207885800,8.9318857421875,-0.4997101015806198,0.7371177587300538,0.25922314658369866
1772025714217884000,8.9418837890625,-0.4750298338323831,0.8858169125959277,0.1484401558698155
1772025714227880700,8.951880615234375,-0.41767186984121796,0.9817997907966375,0.05265853586224839
1772025714237877500,8.96187744140625,-0.47584816447794437,1.058515950730443,-0.04767515795910731
1772025714247875600,8.97187548828125,-0.5919242748975754,1.1774869058087467,-0.1940924114328809
1772025714257873000,8.981872802734374,-0.5037450561851263,1.2553352846428751,-0.31773638155721123
1772025714267870700,8.99187060546875,-0.24909341876804827,1.2879393311277032,-0.45960510488115247
1772025714277867800,9.00186767578125,0.04552607190012931,1.2600938773468136,-0.5607555219128728
1772025714287864600,9.011864501953125,0.3200865248799324,1.1637459652259945,-0.5288059572814032
1772025714297862700,9.021862548828125,0.42337037374377245,1.0355714207336306,-0.3055990950451232
1772025714307859700,9.031859619140626,0.3647363984674215,0.9131415573731064,-0.050492425603233276
1772025714317856800,9.041856689453125,0.40430911492109295,0.8314154603227972,0.117360505940672
1772025714327854600,9.0518544921875,0.4536468540638685,0.7372232649311423,0.2671060818532482
1772025714337851600,9.0618515625,0.37692777152061463,0.6402598512604832,0.3924722543939948
1772025714347849700,9.071849609375,0.3174941702991724,0.5441475014612078,0.49006001050807535
1772025714357846800,9.0818466796875,0.25405308700203894,0.46989656259715556,0.5405074644584208
1772025714367843600,9.091843505859375,0.21083003134727477,0.47396746529787775,0.5135872722962871
1772025714377841700,9.101841552734374,0.2085930660754442,0.5221063500449061,0.437706832534261
1772025714387838700,9.111838623046875,0.23750994848012924,0.594502308692038,0.3371574136029929
1772025714397835800,9.121835693359374,0.19890695384144783,0.6869365545004605,0.24267898514848202
1772025714407833900,9.131833740234375,0.17972645255327224,0.7096116199061274,0.14720970989256166
1772025714417830700,9.14183056640625,0.2575309922456741,0.736489105437696,0.08725909905969165
1772025714427827700,9.15182763671875,0.2713449980646372,0.7765615881070494,0.08784025994851254
1772025714437825800,9.16182568359375,0.2543056004583835,0.7739002599433064,0.039453985444828865
1772025714447822800,9.17182275390625,0.3364765186667442,0.7154299507960676,-0.057636589136300605
1772025714457820700,9.181820556640625,0.4736988774895668,0.621451690416038,-0.10221461219713092
1772025714467817700,9.191817626953124,0.5391074614673853,0.5210410589009523,-0.06877745762271806
1772025714477814800,9.201814697265625,0.5604588770538568,0.3950315834879875,0.07309740318106486
1772025714487812900,9.211812744140625,0.5700736776173114,0.23482757752835748,0.21436465348051859
1772025714497809700,9.2218095703125,0.5748574047625065,0.09149988756775855,0.3079579148646444
1772025714507806700,9.231806640625,0.5747995370954275,-0.06421294445246457,0.32394992230981584
1772025714517804500,9.241804443359374,0.5479851799279452,-0.17326339401900767,0.2977992166828364
1772025714527801900,9.2518017578125,0.51571138831079,-0.26509090610593555,0.3029707375692203
1772025714537800000,9.261800048828125,0.45914720504581924,-0.33332273081094027,0.3442931107018143
1772025714547796700,9.271796630859376,0.36665596835315223,-0.40550066279321906,0.34995541077982634
1772025714557793500,9.28179345703125,0.31245033091306684,-0.45091772136092184,0.3473687918201089
1772025714567791600,9.29179150390625,0.2868114472657442,-0.45566374684423205,0.3266281650757417
1772025714577789000,9.301788818359375,0.27208792538642884,-0.4202408435463905,0.26397382997581736
1772025714587785700,9.31178564453125,0.28430910905599593,-0.3693067751228809,0.20745271866759285
1772025714597783800,9.32178369140625,0.2748947995007038,-0.3198272894218564,0.19180742403455078
1772025714607779800,9.33177978515625,0.21944529947936534,-0.276237154020369,0.18169245539661497
1772025714617776600,9.341776611328125,0.13317103760540486,-0.22656799096614122,0.1730628116792999
1772025714627774700,9.351774658203125,0.10436112270653247,-0.18287702553868293,0.16096980270035563
1772025714637771500,9.361771484375,0.09668751933872699,-0.15523615441918373,0.1616520493434742
1772025714647768800,9.371768798828125,0.08509820383191108,-0.13795739509910343,0.16230600147387012
1772025714657767000,9.381766845703124,0.06264437996149062,-0.13227642685323954,0.13268285222966222
1772025714667763700,9.391763671875,0.03242050661146641,-0.11354893002957105,0.12928088003275914
1772025714677760800,9.4017607421875,-0.03313713044822216,-0.12347411171644926,0.12673086675638331
1772025714687758600,9.411758544921875,-0.041615620458126064,-0.15382453405559063,0.10740847277948633
1772025714697756000,9.421755859375,-0.06990998705029487,-0.18667407973408698,0.11438384648375212
1772025714707753700,9.431753662109376,-0.13435235634446144,-0.2284007593512535,0.13173457506150008
1772025714717750800,9.441750732421875,-0.17927169452309608,-0.2917240614876151,0.14716036345865577
1772025714727747600,9.45174755859375,-0.2002314804434776,-0.3443836385294795,0.14288433010727167
1772025714737745700,9.46174560546875,-0.2415320436030626,-0.3787140704154968,0.1002858360916376
1772025714747742700,9.47174267578125,-0.30180618730187414,-0.37761750735044475,0.05846899397298693
1772025714757739800,9.48173974609375,-0.3103483901977539,-0.40555619237273927,-0.002682370951771736
1772025714767737600,9.491737548828125,-0.2741319984346628,-0.4638482223436236,-0.039501843174546955
1772025714777734700,9.501734619140626,-0.30675942579507826,-0.47583033656030893,-0.06601867870017886
1772025714787731700,9.511731689453125,-0.327498846963048,-0.42688919551968574,-0.1181715848615393
1772025714797729800,9.521729736328124,-0.34424306101500984,-0.3471554413303733,-0.1847454497590661
1772025714807726600,9.5317265625,-0.3752063545554876,-0.31182723057866096,-0.2566295864265412
1772025714817724700,9.541724609375,-0.4398427851170301,-0.2856131773918867,-0.31290121648572383
1772025714827721700,9.5517216796875,-0.4966700032323599,-0.20902824262231587,-0.3499424051677808
1772025714837718800,9.56171875,-0.5827291610509157,-0.100018417327106,-0.3775819976456463
1772025714847716900,9.571716796875,-0.6194616856426001,-0.008751753993332386,-0.43493009782992303
1772025714857713700,9.581713623046875,-0.5870505313813686,0.06949176163822413,-0.48480932343825694
1772025714867710700,9.591710693359374,-0.576340921318531,0.11306377686113118,-0.466965769842267
1772025714877708800,9.601708740234375,-0.5656698897004128,0.04376636875122785,-0.3755674429528415
1772025714887705900,9.611705810546875,-0.5543102912962437,-0.071586395829916,-0.29088527257591484
1772025714897703700,9.62170361328125,-0.6028045653522014,-0.07559972312450408,-0.1987313780788332
1772025714907700700,9.63170068359375,-0.6781055977910757,-0.040328503257036206,-0.0753865187652409
1772025714917697800,9.64169775390625,-0.7105693590223788,-0.14240911381095647,0.04676642735004425
1772025714927696000,9.65169580078125,-0.7400462133973836,-0.29101912808865305,0.13430332957096397
1772025714937692700,9.661692626953124,-0.8670359320193529,-0.28932664495706556,0.20291443591713904
1772025714947689700,9.671689697265625,-0.9666185882776975,-0.13424860370904207,0.22142544044591486
1772025714957687600,9.6816875,-0.8751578636765479,0.01699935785681009,0.17596541951932013
1772025714967684900,9.691684814453126,-0.6187625974625348,0.07533961088359356,0.13144845159649848
1772025714977683000,9.701682861328125,-0.48320320341587064,0.09739654439091681,0.19243147421702742
1772025714987679700,9.7116796875,-0.3922475057274103,0.12540361847430467,0.3542960338000208
1772025714997676500,9.721676513671875,-0.32388591716289516,0.18579378976821898,0.5160021148856729
1772025715007674600,9.731674560546875,-0.2610965757727623,0.22791239131242036,0.6468192097760737
1772025715017672000,9.741671875,-0.25769173576533794,0.19744068068116902,0.7802975597649813
1772025715027668700,9.751668701171875,-0.1706523347377777,0.14332622865587472,0.9065624712437391
1772025715037666800,9.761666748046874,-0.0040928222715854645,0.17579291249662637,1.0209090544570236
1772025715047663600,9.77166357421875,0.00976326912343502,0.284021816547215,1.1519476100783794
1772025715057661000,9.781660888671874,0.07382043849229812,0.359321387681365,1.2599090222992002
1772025715067658800,9.79165869140625,0.31463176660537717,0.3514262505173683,1.3291782272279262
1772025715077655800,9.80165576171875,0.5355664278596639,0.350141763664782,1.387972946023941
1772025715087653600,9.811653564453126,0.5424333910197019,0.4536018458783626,1.4782088050052522
1772025715097650700,9.821650634765625,0.3696078038960695,0.6140759009510278,1.5474480531871317
1772025715107647700,9.831647705078124,0.4099988509953022,0.7387292855799198,1.434425631249696
1772025715117645800,9.841645751953125,0.5782856256455182,0.7812409780949354,1.2410035385601221
1772025715127642600,9.851642578125,0.4205202450096607,0.8123965793371201,1.2113391257237642
1772025715137639700,9.8616396484375,0.29848727201223374,0.8621683259829879,1.3089476323649287
1772025715147637500,9.871637451171875,0.5362181697666645,0.8542804953426122,1.4052452756032348
1772025715157634800,9.881634765625,1.0154594838142394,0.9948001421451568,1.5211108120121062
1772025715167633000,9.8916328125,1.319372288006544,1.2656357293829321,1.6503873263970017
1772025715177629700,9.901629638671874,1.3932856654793022,1.3746288958042858,1.8089381583221256
1772025715187626800,9.911626708984375,1.3283692489326,1.1885025130808353,1.8840997822903096
1772025715197624600,9.92162451171875,1.0005424851894378,0.809824683022499,1.8258999606475232
1772025715207622000,9.931621826171876,0.535057309293747,0.45137335617393254,1.840236821296811
1772025715217620700,9.941620849609375,0.12011632572114467,0.22576135075837372,1.8652480745650826
1772025715227617800,9.95161767578125,-0.24975392850339412,0.17123714888840913,1.886893943053484
1772025715237615900,9.961615966796876,-0.5496814624518156,0.24317805724442004,1.9122844048976897
1772025715247612700,9.97161279296875,-0.6792173584252595,0.3864727217182517,1.889249274007976
1772025715257609700,9.981609619140626,-0.720464730092883,0.5667369344100356,1.7887547636017203
1772025715267607800,9.99160791015625,-0.7422165431737899,0.7290531102180481,1.5883216231063007
1772025715277604900,10.00160498046875,-0.8535527655899524,0.832180599476397,1.3984157218441366
1772025715287601700,10.0116015625,-0.9257780438452958,0.8540303199738264,1.239827188257128
1772025715297599700,10.021599853515625,-0.8991057254970073,0.783197957381606,1.114906311798468
1772025715307596800,10.0315966796875,-0.6742687961071729,0.6726487936899066,0.9643540774118154
1772025715317593900,10.04159375,-0.3008183453083038,0.6293216931387782,0.8002710380617528
1772025715327591700,10.051591796875,0.06253448984622954,0.6937815980896354,0.6514975037854165
1772025715337588700,10.061588623046875,0.3425982164174318,0.6609764760747552,0.5493731271550059
1772025715347586600,10.071586669921874,0.46864685479700563,0.5501277449145913,0.4358783384654671
1772025715357584000,10.081583984375,0.4504571181118488,0.44566900705248114,0.4856153060588985
1772025715367580700,10.09158056640625,0.39809681627750393,0.34403175635188815,0.6618048897229135
1772025715377578800,10.101578857421876,0.3953746978372335,0.22384996417909858,0.8714823169689625
1772025715387575600,10.111575439453125,0.3310872268438339,0.14586071556955574,1.0895733522951603
1772025715397572900,10.12157275390625,0.19193126960992812,0.04458996009379625,1.257055240303278
1772025715407571000,10.131571044921875,0.06093406891226768,-0.11654343567043542,1.3547642116442322
1772025715417567700,10.141567626953124,0.10020166493952273,-0.26549305716603994,1.3355594526976347
1772025715427565800,10.15156591796875,0.08521335464417934,-0.29446605367213485,1.3372612881794572
1772025715437562400,10.161562255859375,-0.009112696260213852,-0.25553572677522896,1.3633458697676657
1772025715447559400,10.171559326171876,0.03213409088551998,-0.2709668124020099,1.2930188263490796
1772025715457557500,10.1815576171875,0.1538689577192068,-0.2889084195449948,1.2532570170640944
1772025715467554300,10.19155419921875,0.20834405975043774,-0.24847616365253924,1.2851748348504304
1772025715477551400,10.20155126953125,0.1503039587140083,-0.17881109127402303,1.3514768605366347
1772025715487549200,10.211549072265624,0.05694704510271549,-0.20154753147810697,1.367444098866731
1772025715497546500,10.22154638671875,0.05497662181258201,-0.19463906726390123,1.3255936467394231
1772025715507544300,10.23154443359375,0.09193126472234725,-0.14737433500289915,1.187373289855197
1772025715517541400,10.241541259765626,0.1130132157176733,-0.08656710734069346,1.0311508278124033
1772025715527538200,10.2515380859375,-0.052982233124971384,-0.03792670281231403,0.9392884636078029
1772025715537536300,10.261536376953124,-0.2518868488788605,-0.025282033033668994,1.0037828553501515
1772025715547533300,10.271533203125,-0.3244429665237665,0.013103519462049006,1.0859315617267042
1772025715557530400,10.2815302734375,-0.3002852613449096,0.06498539012968539,1.0796505086958408
1772025715567528200,10.291528076171875,-0.2080541368931532,0.11971475918292998,1.0222262745354325
1772025715577525500,10.301525390625,-0.15655600484609603,0.15174422065019608,0.9617698330722748
1772025715587523600,10.311523681640624,-0.16229367171525955,0.13758359335064888,0.8714445422418415
1772025715597520400,10.321520263671875,-0.1767120731681585,0.09734656776934862,0.8401433219838887
1772025715607517200,10.33151708984375,-0.1724859799057245,0.011448737992346286,0.8864497306067496
1772025715617515300,10.341515380859375,-0.1751093141466379,-0.2134840529873967,1.0512560427300632
1772025715627512600,10.3515126953125,-0.28727848025560376,-0.5208841147735714,1.1922163459721953
1772025715637509400,10.36150927734375,-0.5098205767065286,-0.555318591555953,1.1903407613586634
1772025715647507500,10.371507568359375,-0.7665273930877446,-0.26801205424964425,1.106935479049757
1772025715657504300,10.381504150390626,-0.7379524559885263,-0.010689444057643414,0.930035043702647
1772025715667502300,10.39150244140625,-0.5516150608628988,0.07832271834760904,0.6903934900213032
1772025715677499400,10.40149951171875,-0.5189952322870492,0.17851795354634523,0.4855067311178893
1772025715687496400,10.411496337890625,-0.5589817902386188,0.38162352812141176,0.2928442246239632
1772025715697494300,10.421494384765625,-0.4924111767441034,0.5814917282104491,0.12737648944985122
1772025715707491300,10.4314912109375,-0.3336848421216011,0.6690066377952695,-0.04755081919338554
1772025715717488400,10.44148828125,-0.18967852224707601,0.7411600198581815,-0.18172935334090143
1772025715727486500,10.451486572265624,-0.20071195743679998,0.8606973766475915,-0.31506248617284
1772025715737483300,10.461483154296875,-0.31923253839910026,0.9549193826556205,-0.4304577016562223
1772025715747481300,10.4714814453125,-0.4160504061192274,0.9780667417481541,-0.5019052004721015
1772025715757478100,10.48147802734375,-0.43956396817564963,0.9496101703315972,-0.5887008558716624
1772025715767475500,10.491475341796875,-0.38216274956464763,0.939008112296462,-0.6546333175931125
1772025715777473500,10.5014736328125,-0.2513923433601856,0.9619070495858788,-0.6323015857324004
1772025715787470300,10.51147021484375,-0.06713467711806297,0.987145827999711,-0.5821891724226996
1772025715797467100,10.521467041015624,0.059545244902372355,0.9996481666982173,-0.4449779560483992
1772025715807465200,10.53146533203125,0.12140285840034484,1.0051496867239476,-0.30716647222600874
1772025715817462500,10.541462646484375,0.14368775544464588,0.9582222235932946,-0.26436807172410187
1772025715827459300,10.551459228515625,0.05060030642449855,0.8910171115875244,-0.2652388632092625
1772025715837457400,10.56145751953125,-0.06265022518038749,0.8152361866772174,-0.22861158909033982
1772025715847454200,10.5714541015625,-0.11225742891430854,0.7903712100118399,-0.1891436847180128
1772025715857452300,10.581452392578125,-0.22560148402154445,0.7410045370355248,-0.1477269478328526
1772025715867449300,10.591449462890624,-0.3618178806722164,0.5714224618777632,-0.18206563609056173
1772025715877446400,10.6014462890625,-0.4304442576527595,0.35186668776124713,-0.22234642774835228
1772025715887444200,10.6114443359375,-0.4549222808271646,0.23385697893053292,-0.21778313842080532
1772025715897441300,10.621441162109376,-0.3879875101953745,0.2530380647405982,-0.23542284000776706
1772025715907438300,10.631438232421875,-0.16893676299154758,0.3351370867565274,-0.21968243270348756
1772025715917436400,10.6414365234375,-0.005040916776657104,0.36751316970437764,-0.21397925262581555
1772025715927433200,10.65143310546875,0.02928630023896694,0.37793928665071724,-0.28256964497752485
1772025715937431300,10.661431396484375,0.030008184772729873,0.3752738668337464,-0.36401290649846196
1772025715947428400,10.671428466796876,-0.05798398693501949,0.36029315532296896,-0.3142007182443514
1772025715957425400,10.68142529296875,0.006487023931741714,0.40082974837273355,-0.1810122545801103
1772025715967423500,10.691423583984376,0.31318273684084413,0.4827329555556178,-0.0523491228532046
1772025715977420300,10.701420166015625,0.5353963319897651,0.5385638561099767,0.07333097447492182
1772025715987417300,10.711417236328124,0.5729711526244878,0.49369215646535153,0.1926001818474382
1772025715997415400,10.72141552734375,0.5194494057953357,0.3493786703377962,0.12845577258653937
1772025716007412500,10.73141259765625,0.5589285987466573,0.11384352906197309,0.1352816000185907
1772025716017410300,10.741410400390626,0.9693915601223707,0.06360065777301788,0.5159888900779187
1772025716027407400,10.751407470703125,0.9984826300501822,0.15427987660765646,0.8292807863816618
1772025716037404400,10.761404296875,0.46503684760630126,0.023881226325035095,0.6870650762509555
1772025716047402500,10.771402587890625,0.1796452040106058,-0.23762626833617687,0.3912879399802536
1772025716057399300,10.7813994140625,0.02900748329758644,-0.395349563395977,0.38538156548067926
1772025716067396400,10.791396240234375,-0.02540858202278614,-0.3616410628005862,0.5545280257001519
1772025716077394200,10.801394287109375,-0.01367547413110733,-0.29908231529593465,0.8545029789868742
1772025716087391500,10.8113916015625,0.2155693348288536,-0.3872726399242878,0.7706229918383062
1772025716097389600,10.8213896484375,0.7154805119395256,-0.3722410750091076,0.42794381913915275
1772025716107386400,10.831386474609374,0.742186732557416,-0.2027791190996766,0.3202520176399499
