time,seconds_elapsed,z,y,x
1772025680491976400,0.0889765625,-0.8489531628400087,-0.4053274981833994,-0.7675029601216316
1772025680501973500,0.098973388671875,-0.6979670670807361,-0.3935665524367243,-1.1190545905843376
1772025680511971600,0.1089716796875,-0.631339754962921,-0.41945729195326564,-1.251074850719422
1772025680521968400,0.118968505859375,-0.6532581567823886,-0.263084753915295,-1.3028292956151069
1772025680531966500,0.128966552734375,-0.6668827775090932,-0.09284574921876192,-1.2834705151505768
1772025680541963500,0.138963623046875,-0.6349211205810308,0.0160272979542613,-1.1590839647643267
1772025680551960600,0.148960693359375,-0.5967980184137821,0.09585252981930971,-1.010284273133427
1772025680561958700,0.158958740234375,-0.6336228974640369,0.14949600333198904,-0.8786709863640367
1772025680571955500,0.16895556640625,-0.6700257517099381,0.15229790901020168,-0.7980613261230289
1772025680581953500,0.17895361328125,-0.5441735126852989,0.10256444854810834,-0.7682346353970467
1772025680591950300,0.188950439453125,-0.4384878633767366,0.06941007470414041,-0.7692505344413221
1772025680601947600,0.19894775390625,-0.43028468317687507,0.09355667396709322,-0.7951714499004184
1772025680611945500,0.208945556640625,-0.4509574688494205,0.18134937757998704,-0.7910947019807993
1772025680621942500,0.218942626953125,-0.4698521389335394,0.30734365542382003,-0.7729007275119424
1772025680631940400,0.2289404296875,-0.4038327295809984,0.4542322527363896,-0.7668610089562833
1772025680641937400,0.2389375,-0.3419178329378366,0.5892778520420193,-0.7203539631947875
1772025680651934500,0.2489345703125,-0.27358956212103364,0.7139892504684626,-0.5820768346220254
1772025680661932500,0.2589326171875,-0.10516893195807933,0.742019705427438,-0.49302711668536064
1772025680671929300,0.268929443359375,-0.00573299069404602,0.781433870318532,-0.4313676561079919
1772025680681927400,0.278927490234375,-0.005031564426422119,0.8464119539245962,-0.33317762325182554
1772025680691924500,0.288924560546875,-0.002494739425182342,0.8421012511186301,-0.24744141377732157
1772025680701921500,0.298921630859375,0.014285714983940124,0.7802078356549144,-0.1838043695166707
1772025680711919600,0.308919677734375,0.022833178576827047,0.6766767340317368,-0.13917846132665873
1772025680721916400,0.31891650390625,0.01918283937573433,0.5791285062104463,-0.07991188723519443
1772025680731914500,0.32891455078125,0.04274900840222835,0.5085249839380384,-0.003917904096096754
1772025680741911300,0.338911376953125,0.06796820533275603,0.4691825691089034,0.08447291154041886
1772025680751908600,0.34890869140625,0.046831309279799456,0.43886341869086026,0.13226254445835947
1772025680761906400,0.358906494140625,0.025193477967381476,0.40355508168339727,0.17862345974743365
1772025680771903500,0.368903564453125,0.022224106767773626,0.40757308515310287,0.2296463754981756
1772025680781901300,0.3789013671875,-0.023618775996565818,0.4992585584208369,0.2864056429438293
1772025680791898400,0.3888984375,-0.05793956327140331,0.658410424979031,0.3126175041735172
1772025680801896400,0.398896484375,-0.03974748849868774,0.8176359412953257,0.2561199564039707
1772025680811893500,0.4088935546875,-0.09205518336296081,1.002549148836732,0.11501593384221195
1772025680821890300,0.418890380859375,-0.16884616209864614,0.9362184815779327,0.3234808434933424
1772025680831888400,0.428888427734375,-0.04198386924862861,0.8077458309218287,0.4169746813572943
1772025680841885400,0.438885498046875,0.15999416260123253,0.7740031357958912,0.13646218810528515
1772025680851883500,0.448883544921875,0.1514338395267725,0.799516931758821,0.13499576881453393
1772025680861880600,0.458880615234375,0.03709492816329002,0.7865595427691936,0.20711276438981294
1772025680871877400,0.46887744140625,-0.028518822997808453,0.6721849755704402,0.2234571654692292
1772025680881875500,0.47887548828125,-0.025089433071017263,0.5461462740629911,0.22787439738959073
1772025680891872500,0.48887255859375,0.05350947186946869,0.4598328492224216,0.35939079965576526
1772025680901870600,0.49887060546875,0.18965104971826074,0.4301172176554799,0.5433908378750085
1772025680911867400,0.508867431640625,0.35482290721833704,0.40522038454711434,0.6638855684544891
1772025680921864400,0.518864501953125,0.42128889129459857,0.32307489304095505,0.7587250487737357
1772025680931862300,0.5288623046875,0.4048439524501562,0.14372370354086159,0.8404365327768027
1772025680941859600,0.538859619140625,0.40413901905119415,-0.05932108075767755,0.9614650049068033
1772025680951857700,0.548857666015625,0.49017421147227286,-0.2085451352804899,1.0571885015189646
1772025680961854500,0.5588544921875,0.6502554678350687,-0.1382750827461481,1.116003532450646
1772025680971851300,0.568851318359375,0.6528969222545623,0.02731646147072315,1.1330928336132318
1772025680981849300,0.578849365234375,0.09583002572655677,0.01776172053143382,0.9349755688447504
1772025680991846700,0.5888466796875,0.21539514730572698,-0.09237024066150187,0.8287085394516587
1772025681001844500,0.598844482421875,0.4994494048178196,-0.24221213482171294,1.1070168737228958
1772025681011841500,0.608841552734375,0.2244008760601282,-0.2880801520273089,1.3009640862651168
1772025681021838300,0.61883837890625,0.0791758280456066,-0.28801293200999495,1.3217545069679617
1772025681031836400,0.62883642578125,0.09213935451507568,-0.2535372464343905,1.3887892308428882
1772025681041833500,0.63883349609375,0.049666824966669076,-0.19403715584799647,1.4538931327857076
1772025681051831600,0.64883154296875,0.00013736264407634735,-0.13005889693424105,1.4628887785375118
1772025681061828400,0.658828369140625,-0.09041033876538276,-0.024990941132605075,1.446511936493218
1772025681071825400,0.668825439453125,-0.15548691430985925,0.10175780834034084,1.3715908432826398
1772025681081823200,0.6788232421875,-0.19468670579791067,0.20312252570986747,1.2774779967375098
1772025681091820500,0.688820556640625,-0.18284487683475018,0.2483727032780647,1.1588808434076607
1772025681101818600,0.698818603515625,-0.1675274807155132,0.2692800283588469,1.0514894130945205
1772025681111815400,0.7088154296875,-0.1645306369870901,0.3312520620167255,0.9372232747063041
1772025681121812500,0.7188125,-0.194411980509758,0.39661593006998297,0.8632464766085147
1772025681131810300,0.728810302734375,-0.15288754546642302,0.4503796689614653,0.8157811072088778
1772025681141807600,0.7388076171875,-0.06297112769782542,0.4918436059892177,0.7749372017756104
1772025681151805400,0.748805419921875,0.06635317135155201,0.4809219606108963,0.7658101847290992
1772025681161802500,0.758802490234375,0.19242285251915453,0.46654140695035456,0.800027438564226
1772025681171800300,0.76880029296875,0.2417114918231964,0.46587972817122936,0.8418937458477914
1772025681181797600,0.778797607421875,0.3117769616961479,0.45308410561457274,0.8672413914635777
1772025681191794400,0.78879443359375,0.37766777623295783,0.42382673920914526,0.893094356252998
1772025681201792500,0.79879248046875,0.3943587987929582,0.4015118854179978,0.8633231951065361
1772025681211789300,0.808789306640625,0.44168110646009445,0.3669248484224081,0.846795181088522
1772025681221787400,0.818787353515625,0.4448445389270782,0.31851883717179297,0.920148367395252
1772025681231784700,0.82878466796875,0.4583656992793083,0.2639037421479821,1.1435326137587427
1772025681241781500,0.838781494140625,0.28291502434909344,0.22340368171632288,1.3533445541046558
1772025681251779600,0.848779541015625,0.16290917326509952,0.14340689267665147,1.4436283438809214
1772025681261776400,0.8587763671875,0.005143208107352256,0.07972673992663622,1.4144533950619398
1772025681271774500,0.8687744140625,-0.16612345913648605,0.02505553080141544,1.3303737206228077
1772025681281771500,0.878771484375,-0.3102209644258022,0.00827449187040329,1.15337778901197
1772025681291768600,0.8887685546875,-0.49484454137086864,0.03212736888378858,0.9758649939201771
1772025681301766400,0.898766357421875,-0.3907786022186279,0.03304126885831356,0.7996661309711635
1772025681311763500,0.908763427734375,-0.3440489997476339,0.15029431410282848,0.7594392614576965
1772025681321761300,0.91876123046875,-0.4094850562542677,0.300295782738924,0.7326677935838699
1772025681331758600,0.928758544921875,-0.6445891126364469,0.3066030661895871,0.661519496910274
1772025681341755400,0.93875537109375,-0.8363093698441981,0.1891869393378496,0.6109757064459845
1772025681351753500,0.94875341796875,-0.9591349545240402,0.15963585068285463,0.5755761474911123
1772025681361750300,0.958750244140625,-1.1053227100908756,0.1302697632059455,0.5109729981446638
1772025681371748400,0.968748291015625,-1.1981745967894792,0.0685343147829175,0.4483821384686976
1772025681381745700,0.97874560546875,-1.176572421312332,0.04666062888801097,0.37416371363475914
1772025681391742500,0.988742431640625,-1.0415390969663858,0.01611965241283178,0.25431424042256545
1772025681401744400,0.998744384765625,-0.8552087161034345,-0.0010638298392295837,0.19402769389990715
1772025681411741200,1.0087412109375,-0.7806926965624094,-0.0057882280126214025,0.2022400620532222
1772025681421739300,1.0187392578125,-0.7692249616086483,-0.06481997043490409,0.06867712078709155
1772025681431736300,1.028736328125,-0.6822843447804451,-0.12445727753490209,-0.2191728757461533
1772025681441734400,1.038734375,-0.6791010385692119,-0.06741758571267127,-0.4884354780461639
1772025681451731500,1.0487314453125,-0.8394412381291388,0.018988778108358383,-0.5600183667447418
1772025681461728300,1.058728271484375,-0.7155950782299041,-0.11882131747454404,-0.3223880067553371
1772025681471726300,1.068726318359375,-0.5005325238794088,-0.2934256047084927,-0.26611036708047614
1772025681481723400,1.078723388671875,-0.3241559662759304,-0.3619502748802304,-0.2564636552751064
1772025681491721500,1.088721435546875,-0.19887246704995631,-0.3706967681765556,-0.22364991156235337
1772025681501718300,1.09871826171875,-0.09431728307604789,-0.38472383222430945,-0.1699137913301587
1772025681511715300,1.10871533203125,0.04331073393821716,-0.40506782433390615,-0.21133633690159767
1772025681521713200,1.118713134765625,0.11253215420246124,-0.393986166088283,-0.30176969121638686
1772025681531710500,1.12871044921875,0.00826221691071987,-0.36416999675631523,-0.38667836382556703
1772025681541708300,1.138708251953125,-0.19860943219959734,-0.31005174533873797,-0.4817433234637603
1772025681551705300,1.148705322265625,-0.19754092618525027,-0.12434621837586164,-0.6753052995480596
1772025681561702100,1.1587021484375,-0.19775895285010336,0.1459589152470231,-0.9103191934287548
1772025681571700200,1.1687001953125,-0.343856692045927,0.3327262262225151,-1.1468402039367704
1772025681581697300,1.178697265625,-0.4201058189898729,0.4359709121197462,-1.3434744636058806
1772025681591695400,1.1886953125,-0.4018810109913349,0.5244301168173551,-1.4867777497775851
1772025681601692400,1.1986923828125,-0.33251872095167634,0.6192541803717613,-1.5217532015688717
1772025681611689200,1.208689208984375,-0.3000532061547041,0.6970961294651031,-1.480567789221555
1772025681621687300,1.218687255859375,-0.2373100419938564,0.7794435732841491,-1.4629844939969479
1772025681631684400,1.228684326171875,-0.08641103999614715,0.8312906648993492,-1.4505375387474895
1772025681641682400,1.238682373046875,0.06455693558454513,0.8597834766730665,-1.4898931053191422
1772025681651679200,1.24867919921875,0.2335983279943466,0.8503186059743165,-1.5356848424181342
1772025681661676300,1.25867626953125,0.4878583357453346,0.8136080009534955,-1.5200143950775264
1772025681671674400,1.26867431640625,0.6894780556768179,0.7615282696262001,-1.386444859673828
1772025681681671400,1.27867138671875,0.7824228813558817,0.6847568723738193,-1.1498135206591338
1772025681691669200,1.288669189453125,0.5768231518775224,0.6271279824867845,-0.9961108594175427
1772025681701666300,1.298666259765625,0.239323135381937,0.715634533457458,-0.6270818052574992
1772025681711664400,1.308664306640625,0.5148737684428691,0.47876580549031494,-1.1718109790641813
1772025681721661400,1.318661376953125,1.2207272048592566,0.1825812574625015,-1.20577038568072
1772025681731658500,1.328658447265625,1.3293430624008178,0.1352621646657586,-0.6667839933097363
1772025681741656300,1.33865625,1.0929822839558123,0.26716537429243326,-0.6363662048228085
1772025681751653400,1.3486533203125,1.1707488297253847,0.3114449532628059,-0.6304641411721706
1772025681761651200,1.358651123046875,1.223673195183277,0.1564464069917798,-0.5100471154714002
1772025681771648500,1.3686484375,1.3292659055113791,-0.08517448393851518,-0.5368415258293971
1772025681781645300,1.378645263671875,1.2489298015147448,-0.2481903324484825,-0.48661911280658093
1772025681791643400,1.388643310546875,0.9872802680343389,-0.33232904359847304,-0.29946883039548994
1772025681801640200,1.39864013671875,0.8843822036176919,-0.5020797533214092,-0.14857938167741522
1772025681811638300,1.40863818359375,1.028095678025484,-0.7509574835121631,-0.025681608544196932
1772025681821635300,1.41863525390625,1.163821660810709,-0.9776432556390762,0.07068615905456245
1772025681831632400,1.42863232421875,1.076391799160838,-1.1209501950725913,0.112810715415515
1772025681841630500,1.43863037109375,0.8887474130898714,-1.1404875469744205,0.16233374799732117
1772025681851627300,1.448627197265625,0.88925360904634,-1.1260822972640394,0.4093611376136541
1772025681861625300,1.458625244140625,0.9459797048747539,-1.0949141288012265,0.6610854894071817
1772025681871622400,1.468622314453125,0.7260311320483684,-1.0717010109961032,0.7216632922276854
1772025681881620500,1.478620361328125,0.5169476521074772,-1.1316250260829925,0.6969532869283109
1772025681891617300,1.4886171875,0.6275900470405816,-1.1972276713281869,0.5976825826959684
1772025681901614300,1.4986142578125,0.7975245888978243,-1.0861369481056928,0.5044193752501159
1772025681911612200,1.508612060546875,0.8738035264581442,-0.8798062740042805,0.38093390188943593
1772025681921609500,1.518609375,0.7862140903323889,-0.7463178410127759,0.2567486827615648
1772025681931607300,1.528607177734375,0.4711936166703701,-0.7448164965391159,0.15878478681147098
1772025681941604400,1.538604248046875,0.25108839197754856,-0.7842562342628836,0.08769976463243365
1772025681951601200,1.54860107421875,0.20066578020751474,-0.7724547373101115,0.10679076100625097
1772025681961599200,1.55859912109375,0.08009703454375267,-0.7377166014060378,0.11767192824371159
1772025681971596300,1.56859619140625,-0.017860650861263275,-0.7069666583552956,0.11539382724389433
1772025681981594400,1.578594482421875,-0.053713470008969304,-0.7292299280896782,0.049646658961474896
1772025681991591400,1.58859130859375,-0.01731704550385475,-0.8658800399824976,-0.03494162258692086
1772025682001588200,1.598588134765625,0.12775602681934833,-0.9450400859370827,-0.1965811412423849
1772025682011586300,1.60858642578125,0.2602759070396423,-1.0133373770937324,-0.288222263911739
1772025682021583400,1.618583251953125,0.27292379168868064,-1.0095411996811627,-0.2532075760886073
1772025682031581400,1.62858154296875,0.27304595676362514,-0.9059507690861821,-0.16671777176782487
1772025682041578200,1.638578125,0.33522856443226334,-0.7918576491773128,-0.0753871032871306
1772025682051575300,1.6485751953125,0.46741292908787724,-0.731475953450799,-0.017571458656340837
1772025682061573400,1.658573486328125,0.5941641627788543,-0.7272136198312044,-0.06718304630443453
1772025682071570400,1.6685703125,0.6127922908812761,-0.7134563126355409,-0.1366609986130148
1772025682081568300,1.678568359375,0.6727642367631197,-0.6716676736980677,-0.27267091290615497
1772025682091565300,1.6885654296875,0.7521440629482269,-0.5908800265416503,-0.34935748141929507
1772025682101563400,1.6985634765625,0.6858283009976148,-0.5040525146991014,-0.3127874539129436
1772025682111560400,1.708560546875,0.5910276183187961,-0.4158019843161106,-0.29117154217138885
1772025682121557200,1.71855712890625,0.5024351426303386,-0.4328331986159086,-0.35186902584880586
1772025682131555300,1.728555419921875,0.42199499373733995,-0.5637301538094878,-0.4199511398848146
1772025682141552400,1.738552490234375,0.3954313964605331,-0.6943465384960175,-0.4150640984956175
1772025682151550200,1.74855029296875,0.30699498811662196,-0.8084346899688244,-0.3789928873568773
1772025682161547500,1.758547607421875,0.15543664542734623,-0.9599906945705413,-0.32739809000231324
1772025682171544300,1.76854443359375,0.11451368340849875,-1.0937088446646928,-0.27289485785514117
1772025682181542400,1.77854248046875,0.0536567713856697,-1.3271528588801622,-0.2394339022800326
1772025682191539200,1.788539306640625,-0.07503098332583903,-1.5702917531579732,-0.3253963217258453
1772025682201537300,1.798537353515625,-0.24486732550561427,-1.5664923608750103,-0.43879517576023935
1772025682211534300,1.808534423828125,-0.4450765941172838,-1.3507526379153132,-0.5095899828210473
1772025682221531400,1.818531494140625,-0.5646855548381805,-1.0342802118793128,-0.5312440346159041
1772025682231529200,1.828529296875,-0.5939911442995071,-0.7213146249204874,-0.5365051700145006
1772025682241526300,1.8385263671875,-0.6234563082367182,-0.5387520721584558,-0.5585052587680518
1772025682251524400,1.8485244140625,-0.7498620894908905,-0.46150312052220105,-0.5993947569087147
1772025682261521400,1.858521484375,-1.0832003101319074,-0.49965924817621704,-0.5273087409935892
1772025682271519500,1.86851953125,-1.4572680160462856,-0.6042682081639766,-0.2957429417401552
1772025682281516300,1.878516357421875,-1.7181395508915185,-0.6296063552990555,0.03386705215796828
1772025682291513300,1.888513427734375,-1.8209622119843958,-0.6097118605226278,0.3714563543722033
1772025682301511200,1.89851123046875,-1.8463748856604099,-0.5823273022517561,0.6064401453755796
1772025682311508500,1.908508544921875,-1.7722008114248513,-0.5448901365220546,0.7100795296788215
1772025682321506300,1.91850634765625,-1.590161990275979,-0.3913347747966647,0.6504534746252
1772025682331503400,1.92850341796875,-1.3639222083508968,-0.20825871955454348,0.5035305366516113
1772025682341500200,1.938500244140625,-1.1564461636066437,-0.05434884530305862,0.3456847842559218
1772025682351498200,1.948498291015625,-0.9795324303865433,0.1325064362168312,0.23402868223562837
1772025682361495300,1.958495361328125,-0.7865314857184886,0.32213322827666996,0.17331176320537925
1772025682371493400,1.968493408203125,-0.5790916813313961,0.4498185279473662,0.12028642159104347
1772025682381490200,1.978490234375,-0.35365912413597106,0.49725160251259803,0.10334171653091907
1772025682391487500,1.988487548828125,-0.0199509011387825,0.4501572583824396,0.09218027104735374
1772025682401482200,1.998482177734375,0.3313543533474207,0.46147038729637857,0.17763327966630457
1772025682411479300,2.008479248046875,0.6541437074452638,0.6258639539003372,0.25986484202072024
1772025682421477400,2.018477294921875,0.9756459443420171,0.9755357619658112,0.22763445115387437
1772025682431474400,2.028474365234375,1.1986533202171326,1.3849462916791437,0.25484496803209183
1772025682441471200,2.03847119140625,1.1765741748780012,1.043282433502376,0.3663999477654695
1772025682451469300,2.04846923828125,1.0948322957366705,0.45174160496443505,0.14339037993326784
1772025682461466400,2.05846630859375,1.0453075095891953,0.19330811092108488,0.24101094233840703
1772025682471464400,2.06846435546875,0.9369932653427123,0.19922113435715436,0.6507664860971272
1772025682481461200,2.078461181640625,0.8313608075261115,0.14011632669866084,0.7743396742738783
1772025682491459300,2.088459228515625,0.7296697808116674,0.035789983044564724,0.9047156743332743
1772025682501456400,2.098456298828125,0.5992670388758182,-0.06259703368842602,1.0234674337029457
1772025682511453400,2.108453369140625,0.43086102176010604,-0.1377855456635356,1.0510415231965482
1772025682521451300,2.118451171875,0.07228022331297397,-0.18839608122110366,0.9677217272140085
1772025682531448300,2.1284482421875,-0.32326573943793774,-0.07554214771836995,0.847147282461822
1772025682541446400,2.1384462890625,-0.6309340967714786,0.10034750315099954,0.7816041123189031
1772025682551443500,2.148443359375,-0.7613789242833853,0.4291895814165473,0.7242872109904885
1772025682561440300,2.158440185546875,-0.5594038150429725,0.7045239413782953,0.5547805391564965
1772025682571438300,2.168438232421875,-0.7573194197595119,0.6757914756298065,0.25535160237997767
1772025682581435400,2.178435302734375,-0.7479623933494091,0.7132581597149372,-0.17388693274483083
1772025682591433200,2.18843310546875,-0.5589654236257076,0.8086828195109963,-0.44127617892101406
1772025682601430500,2.198430419921875,-0.37319209212362764,0.8448676470920443,-0.6003967735581099
1772025682611427300,2.20842724609375,-0.20394728609621524,0.8321943357408046,-0.6332317792546004
1772025682621425400,2.21842529296875,0.0018798223972320556,0.8018795692369342,-0.5854490144688635
1772025682631422200,2.228422119140625,0.25794249565601346,0.7498556597501039,-0.44275260814912615
1772025682641420300,2.238420166015625,0.5284305846303701,0.6698565326228737,-0.22986820155531168
1772025682651417300,2.248417236328125,0.7746224367380142,0.5609823164060711,-0.0073491206537932155
1772025682661414400,2.258414306640625,0.9819833306699991,0.4122755637556314,0.1360547032829374
1772025682671412200,2.268412109375,1.1270815374344587,0.20544950735270975,0.18365071332491933
1772025682681409300,2.2784091796875,1.2416945895642042,0.03768997144699097,0.25778825494237245
1772025682691407400,2.288407470703125,1.313874275112152,-0.08050152369141578,0.377864687044546
1772025682701404400,2.298404296875,1.2729770320564509,-0.2523603116095066,0.5543471892405301
1772025682711402500,2.308402587890625,1.2662152828365563,-0.48514264704585075,0.6606418372929096
1772025682721399300,2.3183994140625,1.408288588821888,-0.6927566389560699,0.6364866163320839
1772025682731396400,2.328396240234375,1.4664315657109022,-0.7688239795923233,0.5705947788819671
1772025682741394200,2.338394287109375,1.259903030949831,-0.7226815293595195,0.6145681414473801
1772025682751391500,2.3483916015625,0.9608394203543662,-0.6754682350248098,0.6666319445531815
1772025682761389300,2.358389404296875,0.6487485704034567,-0.7382526079788804,0.6519980006534606
1772025682771386400,2.368386474609375,0.45329614093005655,-0.932144948528707,0.6212573368877172
1772025682781383200,2.378383056640625,0.35040859790742396,-1.087548276208341,0.6445882358536124
1772025682791381200,2.38838134765625,0.2132248175293207,-1.0863111356288193,0.7606151003040373
1772025682801378300,2.39837841796875,0.10389876589179038,-1.0309382079750298,0.8826317066885531
1772025682811376400,2.40837646484375,-0.014775544327497482,-0.981406261434406,0.9019701750174164
1772025682821373200,2.418373291015625,-0.13056465449929236,-0.9776428172476589,0.8543228731796145
1772025682831370200,2.428370361328125,-0.2448047816634178,-0.9676365331485867,0.8274692799802869
1772025682841368300,2.438368408203125,-0.33702363115549083,-0.9505956742376088,0.764774192744866
1772025682851365400,2.448365478515625,-0.38353637600541113,-0.8670312558442353,0.6223831260472535
1772025682861363500,2.458363525390625,-0.512031823015213,-0.6890719590939581,0.5510754010282457
1772025682871360300,2.4683603515625,-0.6702525462031365,-0.5558573746077716,0.5725155178114771
1772025682881358300,2.4783583984375,-0.7778349690437316,-0.5523286159597337,0.574712370268628
1772025682891355400,2.48835546875,-0.8109323520034551,-0.5626005652576684,0.58230852448605
1772025682901352400,2.4983525390625,-0.7861971391975879,-0.5169584657624363,0.5450606707833707
1772025682911350300,2.508350341796875,-0.7676356465905905,-0.45910248912125823,0.5332140925798565
1772025682921347300,2.518347412109375,-0.7713520367652177,-0.4575933997325599,0.610162819160521
1772025682931345200,2.52834521484375,-0.6774415809243917,-0.5220839920826256,0.6082284900970757
1772025682941342500,2.538342529296875,-0.45555707159936426,-0.5174104473136365,0.5190340299274772
1772025682951339300,2.54833935546875,-0.2865466588497162,-0.41646585505232214,0.4819274843916297
1772025682961337300,2.55833740234375,-0.20729776556789875,-0.4204325667262077,0.4657573073679581
1772025682971334400,2.56833447265625,-0.1060766944527626,-0.5723356311999261,0.5046177473664284
1772025682981332200,2.578332275390625,0.013374445357918738,-0.748428841817379,0.5865809411082417
1772025682991329500,2.58832958984375,0.005088263049721717,-0.7653180172979831,0.7373672034464777
1772025683001326300,2.598326416015625,-0.08504676590561866,-0.6729568367257713,0.9038573039382696
1772025683011324400,2.608324462890625,-0.14327449846863746,-0.5896174592599273,0.9684088326953351
1772025683021321200,2.6183212890625,-0.10429857886433601,-0.5394830167815089,1.0038830277889967
1772025683031319300,2.6283193359375,-0.03877133694291115,-0.5117255335450173,0.9603767712786793
1772025683041316400,2.63831640625,-0.09353460826575756,-0.4451531664848327,0.8384644289862364
1772025683051313400,2.6483134765625,-0.2817699459671974,-0.3438517236098647,0.7232770110346376
1772025683061311200,2.658311279296875,-0.4425467833787203,-0.25721885755658147,0.5743528893064708
1772025683071308300,2.668308349609375,-0.5176350498497486,-0.2621791103124618,0.4211164208045229
1772025683081306400,2.678306396484375,-0.6073761110514402,-0.2946668369412422,0.2580836759586818
1772025683091303400,2.688303466796875,-0.7385650349289179,-0.28413492153286934,0.15867507935930042
1772025683101301500,2.698301513671875,-0.9215542886704206,-0.2427557401791215,0.01575045377425849
1772025683111298300,2.70829833984375,-1.0519944400072097,-0.1644496807053685,-0.09388085528700611
1772025683121295400,2.71829541015625,-0.9906675723850726,-0.06834317612498998,-0.1826686617513187
1772025683131293200,2.728293212890625,-0.8313327504754066,0.054447044980525966,-0.2812351449707523
1772025683141290500,2.73829052734375,-0.6477899545043706,0.22648440433591602,-0.3528851440887898
1772025683151288300,2.748288330078125,-0.4911602999001741,0.3893874401211738,-0.4363336810175329
1772025683161285400,2.758285400390625,-0.3307330065786838,0.5353887332051992,-0.544510051163286
1772025683171282200,2.7682822265625,-0.15617898822724818,0.6358294675976037,-0.6899147665936499
1772025683181280300,2.7782802734375,0.005014028769731521,0.6842322639778255,-0.7829024815663694
1772025683191277300,2.78827734375,0.10792904432117939,0.6673392891049384,-0.8512170161187649
1772025683201275400,2.798275390625,0.18037644089460372,0.638020547901094,-0.9059092680320143
1772025683211272200,2.808272216796875,0.2404261281877756,0.607851911869645,-0.9269137698769568
1772025683221270300,2.818270263671875,0.2718932795971632,0.5532841631188988,-0.923952362788096
1772025683231267300,2.828267333984375,0.288400762283802,0.47266602731049057,-0.9789703395243734
1772025683241264400,2.838264404296875,0.34925825882852074,0.4365308840900659,-1.0697574757128954
1772025683251262500,2.848262451171875,0.44379006143808364,0.4849935939639807,-1.1538860307950525
1772025683261259300,2.85825927734375,0.5139747737765312,0.5478276512786746,-1.2284405557155609
1772025683271257300,2.86825732421875,0.5397182868421078,0.5132914676874876,-1.235346097320318
1772025683281254400,2.87825439453125,0.5052618904888629,0.4027086939871311,-1.174523452893272
1772025683291251500,2.88825146484375,0.42086335935890673,0.33359014957547184,-1.0283515524826943
1772025683301249300,2.898249267578125,0.31052023963332176,0.2848603131979704,-0.8653885301385075
1772025683311246300,2.908246337890625,0.19122867429852486,0.20467910750210283,-0.7359286950759589
1772025683321244200,2.918244140625,0.11155834073424338,0.113953711438179,-0.6591513064742088
1772025683331241500,2.928241455078125,0.13359306240975857,0.04573649978041649,-0.6662791855927557
1772025683341238300,2.93823828125,0.22259470342099666,0.015880875220894812,-0.7589318233922123
1772025683351236400,2.948236328125,0.3595212941676378,0.021053601683676242,-0.9130437960870563
1772025683361233200,2.958233154296875,0.5347393293857574,0.02885316951870918,-1.0091802574142814
1772025683371231200,2.968231201171875,0.6498597465157508,0.008500409580767154,-1.0216488399736583
1772025683381228500,2.978228515625,0.7261515435576439,-0.055503276035189626,-1.0197583500519394
1772025683391226400,2.988226318359375,0.7786831103056668,-0.17500789959877727,-0.9512988540709019
1772025683401223000,2.998222900390625,0.8476146077126264,-0.3273357653558254,-0.8414027474604546
1772025683411220000,3.008219970703125,0.9266004661440849,-0.5127823491215705,-0.6978681367509066
1772025683421217800,3.0182177734375,0.9790642283529043,-0.7009092580124735,-0.5544494440386072
1772025683431215000,3.028215087890625,0.977197849959135,-0.8325769053176045,-0.4837213455384597
1772025683441213000,3.038212890625,0.9291817148089409,-0.9019771892800926,-0.42478926409836854
1772025683451210000,3.0482099609375,0.8781196360915898,-0.9878367328733205,-0.377551383311674
1772025683461207000,3.05820703125,0.8380600129038095,-1.0716077797546981,-0.33455351471491157
1772025683471205000,3.068205078125,0.8132669324308633,-1.1166396383970976,-0.30303244116120037
1772025683481202200,3.0782021484375,0.7163906125217676,-1.0979422444507478,-0.24761823164895175
1772025683491200000,3.088199951171875,0.5349556024849415,-1.0942406134538352,-0.22668540680073201
1772025683501197000,3.098197021484375,0.4206546850442886,-1.1179533513441682,-0.2944334665767848
1772025683511194000,3.108194091796875,0.3581137654572725,-1.1239642821967601,-0.4195138444460928
1772025683521192200,3.118192138671875,0.27901509430110455,-1.0786514146558939,-0.5425420390259474
1772025683531189000,3.12818896484375,0.17329963437616824,-1.000495723438263,-0.5775048505313695
1772025683541187000,3.13818701171875,0.09460545236766338,-0.9676099374026059,-0.638724458386749
1772025683551184000,3.148183837890625,0.1304845750004053,-0.95687870002985,-0.7040465331248938
1772025683561182000,3.158181884765625,0.14529343707561493,-0.910544526617229,-0.6745145875617862
1772025683571179000,3.168178955078125,0.06820435217618942,-0.8607491068348287,-0.6096887719079852
1772025683581176000,3.178176025390625,-0.03396832057535648,-0.8440972472414374,-0.5668082460805773
1772025683591174100,3.188174072265625,-0.0672293696641922,-0.8170791841953993,-0.5426479105532169
1772025683601171000,3.1981708984375,-0.06965455098450184,-0.748598353165388,-0.4858238342430442
1772025683611169000,3.2081689453125,-0.16394143892228602,-0.6551387098319829,-0.45393816516064106
1772025683621166000,3.218166015625,-0.2850409304618835,-0.6183171917825937,-0.471336386141926
1772025683631163100,3.2281630859375,-0.3410749523729086,-0.602353898975253,-0.5045836989663541
1772025683641161000,3.238160888671875,-0.3585112403422594,-0.5633347247511148,-0.5397286621056496
1772025683651158000,3.248157958984375,-0.4200988047271967,-0.4750026535645127,-0.5554289931278675
1772025683661155800,3.25815576171875,-0.45985272296667096,-0.4202098638862371,-0.580160479606688
1772025683671153200,3.268153076171875,-0.44811201629042624,-0.4118117456361651,-0.5477019790723919
1772025683681150000,3.27814990234375,-0.4636152903705835,-0.4112228398323059,-0.4693960657291114
1772025683691148000,3.28814794921875,-0.4958797296375036,-0.43655105009526013,-0.386145681720972
1772025683701144800,3.298144775390625,-0.4725117135316133,-0.517486873550713,-0.2734331294503063
1772025683711143000,3.308142822265625,-0.5565022483825683,-0.5497615419507026,-0.15799334417283534
1772025683721140000,3.318139892578125,-0.862059897172451,-0.5364531475663185,-0.02095335617959499
1772025683731138000,3.328137939453125,-1.0523509983599186,-0.5533054981678724,0.06577785568162799
1772025683741135000,3.338135009765625,-1.110521447777748,-0.5733738882064819,0.14868592905811964
1772025683751132000,3.3481318359375,-1.184040272974968,-0.5114411636456847,0.20218056868463755
1772025683761130000,3.3581298828125,-1.3420143279254435,-0.372879957434535,0.19475312209762632
1772025683771127000,3.368126953125,-1.5189771609842777,-0.21409370931833982,0.14104593569897114
1772025683781125000,3.378125,-1.6594097140252588,-0.07914280255883932,0.055867067846283314
1772025683791122000,3.388121826171875,-1.7098264805763959,0.02946808654665947,-0.07745740675516426
1772025683801119000,3.398118896484375,-1.65274967161417,0.16196107876002788,-0.15298596433959902
1772025683811117000,3.408116943359375,-1.5422335334092379,0.29131372712105513,-0.21192885943464934
1772025683821114000,3.418114013671875,-1.395151459351182,0.4509729586794972,-0.29570808962248263
1772025683831112000,3.42811181640625,-1.2178723999500274,0.5911646887019276,-0.35036351665668186
1772025683841109000,3.43810888671875,-1.015846437305212,0.7331596687540411,-0.36010691203586753
1772025683851107000,3.448107177734375,-0.8960024987846612,0.8287707910329103,-0.31192842593081294
1772025683861104000,3.458104248046875,-0.7344096688151359,0.8838920820131897,-0.3021292817763984
1772025683871101000,3.468100830078125,-0.5124959333956242,0.9716349551349878,-0.32670360493212935
1772025683881099000,3.47809912109375,-0.187007841733098,1.0294815794259309,-0.383080595061928
1772025683891096000,3.488095947265625,0.19587386975586413,0.9894485519841313,-0.45197102980613707
1772025683901094000,3.498093994140625,0.6311573841333389,0.8950053044408559,-0.45105552239641544
1772025683911091200,3.50809130859375,1.010715504157543,0.8229647351026534,-0.35921105917468665
1772025683921088000,3.518087890625,1.223065292418003,0.7996531253591179,-0.2171558733679354
1772025683931086000,3.528086181640625,1.2856225786179303,0.7239873512610793,-0.04079758207350969
1772025683941083000,3.538082763671875,1.3060855209320783,0.5699751856788993,0.12291194778904319
1772025683951081000,3.5480810546875,1.21661801597476,0.3318473975613713,0.294121624148637
1772025683961078000,3.558078125,1.07372111864686,0.06837853969931602,0.4436636585794389
1772025683971075000,3.568074951171875,0.9115408441781997,-0.08098843042552471,0.5959698970265687
1772025683981073000,3.578072998046875,0.7610925085574388,-0.13173515958338974,0.7372974992111325
1772025683991070000,3.588070068359375,0.8290238890111445,-0.2607356335058808,0.7707289364308119
1772025684001068000,3.598068115234375,0.7248726096630096,-0.20054303061068057,0.7638873999729752
1772025684011065000,3.608065185546875,-0.2535620886147022,0.8694400705516337,0.9542596035726368
1772025684021063200,3.618063232421875,1.7712620692700147,-0.18603841217905281,0.8216941306449472
1772025684031060000,3.62806005859375,2.3041420345246793,-1.0043629202604294,-0.11477277273610234
1772025684041057000,3.63805712890625,-0.651683454811573,-0.30325638611018657,0.11081950506567954
1772025684051054800,3.648054931640625,-1.0174030190974472,0.5812348308399319,0.6281747150607406
1772025684061052200,3.65805224609375,-1.0385369925409556,0.8257128647670149,0.7122741171136499
1772025684071050000,3.668050048828125,-1.0368605837613343,0.49346127031892534,0.4486917889397591
1772025684081047000,3.678047119140625,-0.7967927674919366,0.15006401247829199,0.27025727589316667
1772025684091043800,3.6880439453125,-0.4997025027960539,0.11053776551485062,0.14341967909298836
1772025684101042000,3.6980419921875,-0.20299743802547454,0.25073855562657116,0.04990501763671636
1772025684111039000,3.7080390625,0.19698679943382738,0.3819219265460968,-0.05203910705596208
1772025684121037000,3.718037109375,0.6069517481595278,0.48836365491896866,-0.1403287273403257
1772025684131033900,3.728033935546875,0.8941460572630167,0.5442293345257639,-0.10964213184937834
1772025684141032000,3.738031982421875,0.9403449138581752,0.5142103360980749,0.015416107253357767
1772025684151029000,3.748029052734375,0.9125631729632615,0.3819111128911376,0.13764146101772784
1772025684161026000,3.758026123046875,0.8398428046673536,0.19412293443530798,0.24046514502391217
1772025684171024100,3.768024169921875,0.770206373861432,-0.04441577257066965,0.37610323032997545
1772025684181021000,3.77802099609375,0.7519821503847837,-0.25945523830652234,0.47438664055801927
1772025684191019000,3.78801904296875,0.8287368887633084,-0.34102468349039555,0.5718181831970811
1772025684201016000,3.79801611328125,0.9352040438383817,-0.36611382430046796,0.681747169163823
1772025684211013000,3.80801318359375,0.8743933090448379,-0.43536710100769993,0.7572562913954257
1772025684221011000,3.818010986328125,0.7623936542838812,-0.5841071714058518,0.7495508315846323
1772025684231008000,3.828008056640625,0.7014969947725535,-0.6922364144742489,0.7038470650300384
1772025684241005800,3.838005859375,0.6641349401056766,-0.7272732410639524,0.7063643085479736
1772025684251003100,3.848003173828125,0.5933686284869909,-0.7144432778462767,0.6684568949580192
1772025684261000000,3.858,0.6254629718840122,-0.6638993777841329,0.6670983199559152
1772025684270998000,3.867998046875,0.6591349398612976,-0.56892947601825,0.6814915869675576
1772025684280994800,3.877994873046875,0.6659095485627651,-0.4789624971061945,0.6555021363168955
1772025684290993000,3.887992919921875,0.6033306350529194,-0.4487330707982182,0.6624358811028301
1772025684300990200,3.897990234375,0.5244412227332592,-0.44051761563867325,0.6921355113830417
1772025684310988000,3.907988037109375,0.40957390358150003,-0.4367036103084683,0.7664668220069258
1772025684320985000,3.917985107421875,0.3106570177555084,-0.45166912425011396,0.878165082668513
1772025684330982000,3.92798193359375,0.18339900358617306,-0.4702741637378931,0.9711663877751677
1772025684340980000,3.93797998046875,0.10543488941788673,-0.4688339018017053,1.0058664566911757
1772025684350977000,3.94797705078125,0.02307400159537792,-0.4416384363621473,1.0080000346537679
1772025684360975000,3.95797509765625,-0.11968611761033535,-0.4100269080460071,0.9707572955176234
1772025684370972000,3.967971923828125,-0.2963426611989736,-0.4198763941481709,0.9371600732769817
1772025684380969000,3.977968994140625,-0.4128752832144499,-0.43445787720829243,0.8806832029692828
1772025684390966800,3.987966796875,-0.4786638064205646,-0.39242899977415796,0.8365184094849973
1772025684400964000,3.997964111328125,-0.5676181011587381,-0.32208851235210895,0.8022988175623118
1772025684410962200,4.007962158203125,-0.6244827286750078,-0.2703226692795753,0.7244675359934568
1772025684420959000,4.017958984375,-0.6102554658800363,-0.2346250406935811,0.6407818293079733
1772025684430957000,4.02795703125,-0.5467167674273252,-0.20738778193891047,0.5731904944635927
1772025684440954000,4.0379541015625,-0.445738272896409,-0.23839520688205956,0.5022851397003978
1772025684450951200,4.047951171875,-0.2229284654200077,-0.3962313146665692,0.5354103605151176
1772025684460949200,4.05794921875,-0.12603870150744914,-0.5713058497607708,0.6390778018690645
1772025684470946000,4.067946044921875,-0.3942290349334478,-0.5755968249529599,0.8506228496178985
1772025684480944000,4.077944091796875,-0.7327443659514188,-0.6142655783042311,1.0237969579182564
1772025684490941000,4.08794091796875,-0.915050313603878,-0.8372261924281715,1.0438308611653744
1772025684500938200,4.097938232421875,-0.9951327351003885,-1.0414651549473404,1.0070515748225153
1772025684510936000,4.10793603515625,-1.123677281948924,-0.9799149999633431,0.9206000566855073
1772025684520933000,4.11793310546875,-1.258496671283245,-0.6880930310592055,0.7065699871879071
1772025684530931000,4.127930908203125,-1.2621569473564624,-0.33997780478596684,0.3866277296168729
1772025684540928000,4.137927978515625,-1.049843399453163,-0.10507336262911557,0.0684807031658478
1772025684550926300,4.14792626953125,-0.7874684743076562,0.05628916571587324,-0.23167022774228824
1772025684560923100,4.157923095703125,-0.5657318490207195,0.2813978977844119,-0.4821730566505342
1772025684570920000,4.167919921875,-0.34658757831454273,0.5037725287139415,-0.6413173974893986
1772025684580918000,4.17791796875,-0.07802431992292404,0.6390133583307266,-0.7537213222023099
1772025684590915300,4.187915283203125,0.13904898972809313,0.7285191494718194,-0.8325227639775723
1772025684600913200,4.1979130859375,0.28659166703522204,0.7907862205535173,-0.8279287141855806
1772025684610910200,4.20791015625,0.29548809019625183,0.8020224848389625,-0.7751894960362464
1772025684620907000,4.217906982421875,0.2741442733943462,0.7667422048822045,-0.681710417350009
1772025684630905000,4.227905029296875,0.32417057932317256,0.6801078775241971,-0.6003690087683499
1772025684640902100,4.237902099609375,0.3941331733435392,0.6139633804872632,-0.5715293197857215
1772025684650900200,4.247900146484375,0.38157062889039517,0.6137751644387841,-0.5322683361623436
1772025684660897000,4.25789697265625,0.29528643014431,0.6717065444037318,-0.5296196848170831
1772025684670895000,4.26789501953125,0.28592765016853805,0.691857644289732,-0.5554342538248748
1772025684680892000,4.277891845703125,0.3296796981334686,0.6794827313631773,-0.5856218502851203
1772025684690889200,4.28788916015625,0.39807986514270305,0.6764815037205815,-0.6256364287547767
1772025684700887300,4.29788720703125,0.4617629405021667,0.6850514714062214,-0.6515864972431212
1772025684710884000,4.307884033203125,0.4976847332328558,0.7016615376845001,-0.6519848489109427
1772025684720882200,4.317882080078125,0.4713800791531801,0.7216963177144528,-0.6409048711657523
1772025684730879000,4.32787890625,0.3578524841725826,0.7230322424933314,-0.628440307194367
1772025684740876300,4.337876220703125,0.20701134984195232,0.6846686095684766,-0.6420894778404385
1772025684750874000,4.3478740234375,0.0734422528296709,0.6167307993739843,-0.708837932119891
1772025684760871200,4.35787109375,-0.0852279676914215,0.5663344910889864,-0.7784864917550236
1772025684770869000,4.367868896484375,-0.16603636537492275,0.5059133401349186,-0.8702820743337273
1772025684780866000,4.377865966796875,-0.06851590234339237,0.4366311295941472,-0.9701469815995544
1772025684790864000,4.38786376953125,0.12851824336349962,0.39854631361067294,-1.0276640086099504
1772025684800861200,4.397861083984375,0.31692367693483825,0.3920078517526388,-1.025398255635053
1772025684810858000,4.40785791015625,0.4693102871417999,0.37977351634055373,-1.004622374914214
1772025684820856000,4.41785595703125,0.6381237160146236,0.2785913159310818,-0.891743087774515
1772025684830852900,4.427852783203125,0.8279659043908119,0.12110329093188046,-0.7204302433013916
1772025684840851000,4.437850830078125,0.9889870719522237,-0.03644727790951729,-0.5578118696764112
1772025684850848300,4.44784814453125,1.0126175383865832,-0.1784969107583165,-0.429322560146451
1772025684860845000,4.457844970703125,0.9494546875089407,-0.35787440374344587,-0.30200587459243833
1772025684870843100,4.467843017578125,0.82455638820827,-0.5814592872455716,-0.19360190623588858
1772025684880840000,4.47783984375,0.6955261036694049,-0.8146312065213919,-0.13345014680773018
1772025684890838300,4.48783837890625,0.5633341402292251,-1.0161264232903717,-0.10278291360437869
1772025684900835000,4.4978349609375,0.4409586374044418,-1.1205611957550048,-0.11035217981487512
1772025684910832000,4.50783203125,0.3829226280212402,-1.1154960213199256,-0.16004457761421798
1772025684920830000,4.517829833984375,0.3814204067647457,-1.0538716320559383,-0.215684193380177
1772025684930827300,4.5278271484375,0.33222587548494337,-0.9852455473363398,-0.3279380420979112
1772025684940825000,4.5378251953125,0.25704174742400643,-0.9080278676211834,-0.460611724640429
1772025684950822100,4.547822265625,0.21168752495944498,-0.8319745555102824,-0.549846224559471
1772025684960820200,4.5578203125,0.20257833583056925,-0.7460559752061963,-0.6053486968770623
1772025684970817000,4.567817138671875,0.20332710837125778,-0.640260143521428,-0.6819075473573059
1772025684980814000,4.57781396484375,0.20897008269429207,-0.5934872864305972,-0.7595430871583521
1772025684990812200,4.587812255859375,0.24763503665328024,-0.5793234442606569,-0.7985058550201356
1772025685000809200,4.597809326171875,0.3056429889857769,-0.6095557931780815,-0.8248718838982284
1772025685010807000,4.60780712890625,0.370628963637352,-0.6708797381907701,-0.8581439658377319
1772025685020804000,4.61780419921875,0.3869172506153583,-0.7895018798314034,-0.8443241878651082
1772025685030802000,4.627802001953125,0.449220269793272,-0.9411648519389331,-0.8267848779127002
1772025685040799200,4.63779931640625,0.4612865551620722,-0.9788605224743485,-0.7243881140816957
1772025685050796000,4.647796142578125,0.3783569275408983,-0.9420970182225108,-0.5695017229482531
1772025685060794000,4.657794189453125,0.3470002507686615,-0.9387756187148392,-0.5030185685414821
1772025685070791000,4.667791015625,0.32681904800534245,-0.9557333293870091,-0.45468971418030557
1772025685080789000,4.6777890625,0.25140754092931744,-0.9612367491088807,-0.43193245038390154
1772025685090786000,4.6877861328125,0.15002046559751034,-0.9240775235377252,-0.39761955415457484
1772025685100783000,4.697783203125,0.03811784147024155,-0.8415874563775956,-0.34175241324305533
1772025685110781200,4.70778125,-0.03350187210738659,-0.7685229508191347,-0.32897045388557017
1772025685120778000,4.717778076171875,-0.11579612443447113,-0.693792557875067,-0.29680574866607784
1772025685130776000,4.727776123046875,-0.17415771251022816,-0.5854644312337041,-0.26333215280510486
1772025685140773000,4.737773193359375,-0.23260697886943815,-0.43490576710626483,-0.23275895456075668
1772025685150771200,4.747771240234375,-0.329475699993968,-0.31183614453747865,-0.23007395326048136
1772025685160768000,4.75776806640625,-0.39070553698241706,-0.2200957262121141,-0.2472066551733762
1772025685170765000,4.76776513671875,-0.42848377123475073,-0.21329583693891763,-0.2122195860095322
1772025685180763000,4.777762939453125,-0.489571569404006,-0.2613489430986345,-0.15409356025531887
1772025685190760200,4.78776025390625,-0.7250140639603138,-0.2525438514828682,-0.016607508995011448
1772025685200758000,4.797758056640625,-1.0477654241353274,-0.18950301954969762,0.13147870060428976
1772025685210755000,4.807755126953125,-1.2228893513292074,-0.19264950088188051,0.22429975377321243
1772025685220752100,4.817752197265625,-1.299838150975108,-0.2080333863660693,0.28224377402402456
1772025685230750200,4.827750244140625,-1.4248743974417448,-0.20803850093260406,0.3408056339122355
1772025685240747000,4.8377470703125,-1.5544482873380183,-0.2126604616448283,0.3874516497530043
1772025685250745000,4.8477451171875,-1.5890806247800588,-0.16818302201479673,0.3820062438286841
1772025685260742100,4.8577421875,-1.5221633898049591,-0.02015782188773155,0.3915918913628906
1772025685270740000,4.867739990234375,-1.4763526557445525,0.10778612871915101,0.33886187943331897
1772025685280737300,4.8777373046875,-1.4244927046477793,0.19301015088781714,0.26499066060185433
1772025685290734000,4.887734130859375,-1.330163146612048,0.21763503518700597,0.17779519222974777
1772025685300732200,4.897732177734375,-1.2464549358338117,0.267745804528892,0.07987703511752188
1772025685310729000,4.90772900390625,-1.1714426572084427,0.35399215548262,-0.01921937199383974
1772025685320727000,4.91772705078125,-1.0584721115887163,0.438175728687644,-0.10791443127393723
1772025685330724000,4.92772412109375,-0.9055062401890754,0.4710891333825886,-0.1884889471363276
1772025685340721200,4.93772119140625,-0.657211278322339,0.49143049514368176,-0.23150595882497726
1772025685350719000,4.947718994140625,-0.3016425211727619,0.499802017647773,-0.26545944715738296
1772025685360716000,4.957716064453125,0.0952583633184433,0.5076103533111512,-0.2988245411425829
1772025685370714000,4.967714111328125,0.4949292970448732,0.5298432279072701,-0.311846665931493
1772025685380711200,4.977711181640625,0.8951444206506013,0.5594751267135143,-0.24711393538862467
1772025685390709200,4.987709228515625,1.1692197204619645,0.544288955758512,-0.08478358492478728
1772025685400706800,4.997706787109375,1.2505717235028744,0.489309557466954,0.13842004417479037
1772025685410704000,5.007703857421875,1.2424433621048927,0.42292102254107594,0.38975861152112484
1772025685420702000,5.017701904296875,1.1677145765960215,0.37196371937245126,0.6604211802795529
1772025685430698800,5.02769873046875,1.0550380454868078,0.2817578171379864,0.9404337611854076
1772025685440696800,5.03769677734375,0.9380325452625751,0.1262780632212758,1.136106701541692
1772025685450694000,5.04769384765625,0.8376309738367795,-0.06613368338197469,1.2034214114017785
1772025685460691000,5.05769091796875,0.7686848633825778,-0.18554858283549547,1.1892324347905814
1772025685470688800,5.067688720703125,0.7031096906661987,-0.19604718049615621,1.1469389150708913
1772025685480685800,5.077685791015625,0.6345896966695785,-0.11642127059549093,1.1003140881486237
1772025685490684000,5.087683837890625,0.5074556011408567,-0.009317278921604156,1.0372775670643894
1772025685500681000,5.097680908203125,0.359097515797615,0.09431903664171695,0.9844332811053842
1772025685510678800,5.1076787109375,0.12925883259773255,0.21023528032451866,0.938658056749776
1772025685520675800,5.11767578125,-0.1348112060278654,0.36167701089680193,0.8668880479812622
1772025685530673000,5.1276728515625,-0.3978250135987997,0.5172904741957783,0.7481755246434361
1772025685540671000,5.1376708984375,-0.5558323862969875,0.5895239357575773,0.5831301430672406
1772025685550668000,5.14766796875,-0.4921136551022529,0.5962549975782633,0.36271797131709754
1772025685560665900,5.157665771484375,-0.23948738603293895,0.6659979574985802,0.14211480703949927
1772025685570663000,5.167662841796875,0.05022621241509914,0.7938229579009115,-0.03547543720267713
1772025685580660000,5.177659912109375,0.2783937475323677,0.8809646502591669,-0.16791231531463563
1772025685590658000,5.187657958984375,0.5087257672071457,0.9009506227113306,-0.2109207053054124
1772025685600654800,5.19765478515625,0.715384650349617,0.8853016565501689,-0.10277326899319887
1772025685610653000,5.20765283203125,0.7409726805925368,0.8087763430133461,0.08594977915994823
1772025685620649700,5.217649658203125,0.7229618076056241,0.6306767610095441,0.3237379600595683
1772025685630647800,5.227647705078125,0.7939023067474364,0.41465734432563184,0.5184776381537318
1772025685640644900,5.237644775390625,0.8972019377022981,0.22145722382366656,0.6459141506951301
1772025685650642000,5.247641845703125,0.9364747944265603,0.06590396627932786,0.7194164631489663
1772025685660640000,5.257639892578125,0.9578308861881494,-0.06471168775483965,0.7599869584683329
1772025685670636800,5.26763671875,0.9735270524919033,-0.1786927255913615,0.7646633527815342
1772025685680635000,5.277634765625,0.9539572596251964,-0.32924174510762094,0.7800556407678871
1772025685690632000,5.2876318359375,0.9254004427045583,-0.47638095618039367,0.8087433905918151
1772025685700629000,5.29762890625,0.881304695868492,-0.5872434236049652,0.8464649262208491
1772025685710626800,5.307626708984375,0.7821627691149711,-0.6805231803268194,0.9216917243797331
1772025685720623900,5.317623779296875,0.6568155570030212,-0.7738258795328438,0.9634122665170579
1772025685730621000,5.327620849609375,0.48526013594567774,-0.854843243791908,0.9815637170184404
1772025685740618000,5.337617919921875,0.3874468274474144,-0.9482217847131192,0.9632479428008198
1772025685750615800,5.34761572265625,0.3639361880004406,-0.971647522355616,0.9221651140451431
1772025685760612900,5.35761279296875,0.3280202404886484,-0.9031149611383676,0.907412585267052
1772025685770610700,5.367610595703125,0.18101240071058272,-0.8391450316615402,0.8949697947360574
1772025685780608000,5.37760791015625,-0.011603344032168388,-0.7914236416742205,0.8575248110260814
1772025685790605800,5.387605712890625,-0.16841653850972652,-0.7424667185425758,0.791050570578128
1772025685800603000,5.397602783203125,-0.3027542818069458,-0.6272802504390478,0.7150679856158793
1772025685810599700,5.407599609375,-0.5110024799674749,-0.5268894926682114,0.6601008622840047
1772025685820597800,5.41759765625,-0.714692576432228,-0.4735463172763586,0.6270023102805018
1772025685830594800,5.4275947265625,-0.9357868121623992,-0.45567529115155336,0.6053005834190175
1772025685840593000,5.437593017578125,-1.0705652849644423,-0.4467560716368258,0.5121419688588008
1772025685850590000,5.44758984375,-1.0557020623534916,-0.3900117094993591,0.37351821880545466
1772025685860587800,5.457587890625,-1.0572387704014778,-0.2717860198304057,0.232620788199082
1772025685870585000,5.467585205078125,-1.0765420212864876,-0.21094211341962216,0.10273666330985724
1772025685880582000,5.477581787109375,-0.9257184226125478,-0.37965003609135745,0.03296012991350144
1772025685890580000,5.487580078125,-0.801409905898571,-0.6526261424891651,0.03990629578959196
1772025685900576800,5.49757666015625,-1.046799793973565,-0.5369307019501924,0.22318214792013166
1772025685910574800,5.507574951171875,-1.2495049710541963,-0.31897169550582766,0.42328766389638184
1772025685920572000,5.517572021484375,-1.1448650314062834,-0.4308823568090796,0.4609790235828608
1772025685930569000,5.52756884765625,-1.019873208603263,-0.6547898963943124,0.39418205398656425
1772025685940566800,5.53756689453125,-1.171082007202506,-0.6107844581902027,0.3084101886767894
1772025685950563800,5.547563720703125,-1.3688123184800147,-0.3271338130429387,0.21307791987191885
1772025685960562000,5.55756201171875,-1.341644325569272,-0.04268704908192158,0.022770895029534586
1772025685970559000,5.56755908203125,-1.1854577385574578,0.15011048196852206,-0.2099583813455887
1772025685980557000,5.57755712890625,-1.0930629479765892,0.32232173658609387,-0.37916400614008305
1772025685990553900,5.587553955078125,-1.0029501308530568,0.5269662111662328,-0.5048180922441184
1772025686000551000,5.597551025390625,-0.8696879078328609,0.683884473453462,-0.6379442677944899
1772025686010548700,5.607548828125,-0.7030775419622659,0.8335708847910165,-0.7787211772937327
1772025686020546000,5.617546142578125,-0.49112873571813104,0.9695176707200706,-0.8842631072826683
1772025686030544000,5.6275439453125,-0.2271978133022785,1.0145919071994722,-0.9581635522086173
1772025686040541000,5.637541015625,0.08381576280593872,0.9982375692479312,-1.0066159598842264
1772025686050537700,5.647537841796875,0.3723760995656252,0.9603057518690824,-1.0216768970243633
1772025686060535800,5.657535888671875,0.597273819231987,0.8821325249947607,-0.9465076012063771
1772025686070532900,5.667532958984375,0.7731628855794668,0.7489588570408523,-0.8192953989401459
1772025686080531000,5.677531005859375,0.8059756063789129,0.5861674649365246,-0.6871834419336169
1772025686090527700,5.68752783203125,0.751670015695691,0.41207931053116914,-0.624208660973981
1772025686100525800,5.69752587890625,0.6480342846542596,0.2786206881560385,-0.501134581425786
1772025686110523000,5.70752294921875,0.5584048671334981,0.18884908568561076,-0.36632191409319637
1772025686120520000,5.71752001953125,0.5442804801911115,0.08269041203781961,-0.30253530529402195
1772025686130518000,5.72751806640625,0.611048662084341,0.011375088234245776,-0.32588856222219764
1772025686140514800,5.737514892578125,0.6697352443307638,0.0010565233156085013,-0.400604269053787
1772025686150513000,5.747512939453125,0.6447229681491852,0.04675649047791958,-0.4814969109546393
1772025686160510000,5.757510009765625,0.5657482156336308,0.0600586012519896,-0.5553589966315776
1772025686170507000,5.767507080078125,0.48166883345544337,0.046310646406561136,-0.6282436886437237
1772025686180504800,5.7775048828125,0.4330658383280039,0.0345665787294507,-0.6873631824146956
1772025686190502000,5.787501953125,0.46847032918632026,0.038229923542588945,-0.7459129134736955
1772025686200499700,5.797499755859375,0.5635241098433733,0.04825695816874504,-0.7913724960088729
1772025686210497000,5.8074970703125,0.6615729806631803,0.05821195047199726,-0.7837968731228262
1772025686220495000,5.8174951171875,0.8029623960375786,0.07109934296533466,-0.7881332218267023
1772025686230492000,5.827491943359375,1.0147621491998433,0.07320625211670995,-0.8182588954992592
1772025686240488700,5.83748876953125,1.2235972073376178,0.05223623706325888,-0.8911625114075838
1772025686250486800,5.84748681640625,1.396807409864664,0.03164455380290746,-0.9273932970222085
1772025686260484000,5.857484130859375,1.476822026821971,-0.03291559665203094,-0.9261177971936762
1772025686270482000,5.86748193359375,1.457095582088828,-0.15622268123850225,-0.8442329293850809
1772025686280479000,5.87747900390625,1.3850912531077861,-0.3127459528587758,-0.6936923854362219
1772025686290476800,5.887476806640625,1.3088754439115524,-0.516760458972305,-0.5008138615714386
1772025686300473900,5.897473876953125,1.2202765384823082,-0.734082190426439,-0.36379981173705306
1772025686310471000,5.907470947265625,1.0982540868788957,-0.9146756350725889,-0.2523544663906097
1772025686320469000,5.917468994140625,0.969810662317276,-1.0241786507122217,-0.17520225312709808
1772025686330465800,5.9274658203125,0.8663619782805442,-1.080758177676797,-0.18015132690183816
1772025686340463900,5.9374638671875,0.7811603140741586,-1.1097044323064387,-0.28218623515050856
1772025686350460700,5.947460693359375,0.6714800421714783,-1.1091172800682485,-0.38216735267452895
1772025686360458000,5.9574580078125,0.5615928495198488,-1.0729632860168814,-0.4860437606040388
1772025686370456000,5.9674560546875,0.49479777961969373,-1.0320283412992954,-0.6099961573567241
1772025686380452900,5.977452880859375,0.4283586835503578,-0.9821154326170682,-0.7665512123547494
1772025686390451000,5.987450927734375,0.3910667715102434,-0.8902094484664499,-0.8611928320143372
1772025686400447700,5.99744775390625,0.3207446965277195,-0.7781298603370785,-0.8860575894840061
1772025686410449000,6.007448974609375,0.17994681730568407,-0.7499712489537894,-0.8759365198988467
1772025686420445700,6.01744580078125,0.024269933381676673,-0.796557935822755,-0.8281995670162141
1772025686430442800,6.02744287109375,-0.08645838626921176,-0.8243342698901891,-0.7381933520723134
1772025686440440600,6.037440673828125,-0.1163590190142393,-0.8230925992660224,-0.6728734692912548
1772025686450438000,6.04743798828125,-0.12535013472139836,-0.7904621031656861,-0.6203267780393361
1772025686460436000,6.05743603515625,-0.18651099812686442,-0.7420652981348336,-0.5840107252940535
1772025686470432800,6.067432861328125,-0.2720481778979301,-0.6967695278592407,-0.5881761013451964
1772025686480429600,6.0774296875,-0.3355272551178932,-0.6593139496900141,-0.6108172644812614
1772025686490427600,6.087427734375,-0.41278818945288653,-0.6018951954223215,-0.6399417982872575
1772025686500425000,6.097425048828125,-0.46322307618260383,-0.5076211669661105,-0.6759781573083251
1772025686510422800,6.1074228515625,-0.479701917296648,-0.4081672516539693,-0.6711251643192022
1772025686520419800,6.117419921875,-0.5269277788519859,-0.2867532873377204,-0.5989814999327063
1772025686530417700,6.127417724609375,-0.5690349822193383,-0.2158670026011765,-0.5076928439628332
1772025686540414700,6.137414794921875,-0.5481488460570574,-0.27300007179528474,-0.3558939705159515
1772025686550411800,6.147411865234375,-0.5424748920738697,-0.44881212738379833,-0.14910028201267123
1772025686560409900,6.157409912109375,-0.8505126672416925,-0.4579729005694389,0.060402665449306364
1772025686570406700,6.16740673828125,-1.3047230004072188,-0.2838052511870861,0.2846817417606711
1772025686580404700,6.17740478515625,-1.5048592037826776,-0.174031163521111,0.4342665193546563
1772025686590401500,6.187401611328125,-1.4650883344084022,-0.2356891627937555,0.49372781230062246
1772025686600399600,6.197399658203125,-1.4393728783935307,-0.3157788908138871,0.5010113203722983
1772025686610397000,6.20739697265625,-1.6168962679445742,-0.2185331530705094,0.46801301387287675
1772025686620393700,6.217393798828125,-1.8338930052280424,0.019555179819464683,0.4205525398440659
1772025686630391800,6.227391845703125,-1.8813766409367323,0.21649039519652724,0.3428003879260272
1772025686640388600,6.237388671875,-1.9037451246112584,0.2744276203803718,0.26454269763864574
1772025686650386700,6.24738671875,-1.948328947225213,0.2807397261366248,0.1859783525548875
1772025686660383700,6.2573837890625,-1.9683879849135875,0.3209609696269035,0.1469432501092553
1772025686670380800,6.267380859375,-1.8568208763509988,0.3987517730548978,0.11375610650684684
1772025686680378600,6.277378662109375,-1.6031114882200956,0.5181105584070086,0.02796641327943653
1772025686690375700,6.287375732421875,-1.306742523536086,0.6546965190224349,-0.08605228968635201
1772025686700373800,6.297373779296875,-0.9772913734614849,0.7516888665266335,-0.1847172831105068
1772025686710370800,6.307370849609375,-0.6655068129807711,0.8523140175752342,-0.2297557541567832
1772025686720369000,6.317368896484375,-0.3952273983210325,0.9360922248497605,-0.2190919925296679
1772025686730365700,6.32736572265625,-0.057034723386168475,0.8990050416015088,-0.21307437620796263
1772025686740362800,6.33736279296875,0.3825660696685314,0.7750055908367037,-0.14640260389391332
1772025686750360800,6.34736083984375,0.8242009988993406,0.6340975292384624,-0.03755706578232348
1772025686760358000,6.35735791015625,1.190661152419448,0.5602855663135647,0.11552848647423088
1772025686770355700,6.367355712890625,1.4748568642288447,0.5183865988694131,0.31246457863412797
1772025686780352800,6.377352783203125,1.6728882042795419,0.4710074464485049,0.4965115247350186
1772025686790350600,6.3873505859375,1.7455524584740398,0.3964664385966956,0.7545343190856277
1772025686800348000,6.397347900390625,1.7141659710854291,0.25629575136229393,1.0381647982276976
1772025686810344700,6.4073447265625,1.594389837104082,0.030053046827763316,1.3099044946983456
1772025686820342800,6.4173427734375,1.4567846164435148,-0.20631912979409098,1.5341763375513255
1772025686830339600,6.427339599609375,1.3090244969934224,-0.3843316180363297,1.671271124471724
1772025686840337700,6.437337646484375,1.1242290706127882,-0.5323012885838747,1.7387772652506828
1772025686850334700,6.447334716796875,0.9182254365086555,-0.6043704994946718,1.7462436556085943
1772025686860331800,6.457331787109375,0.7004454398930072,-0.6055339903160929,1.7723165467590092
1772025686870329900,6.467329833984375,0.455188238286972,-0.5399687544718385,1.7698656464755533
1772025686880326700,6.47732666015625,0.16600889284610748,-0.4040750139042735,1.780682662435621
1772025686890324700,6.48732470703125,-0.07825403702557086,-0.2272881219342351,1.725966006733477
1772025686900321800,6.49732177734375,-0.2892465654581785,-0.041776363977789874,1.564782926608622
1772025686910319900,6.50731982421875,-0.4388192872881889,0.1370180684223771,1.3934740276582538
1772025686920316700,6.517316650390625,-0.5062953251898289,0.25392361540347336,1.174161999169737
1772025686930313700,6.527313720703125,-0.410756391364336,0.32246874384135005,0.8567091107290238
1772025686940311600,6.5373115234375,-0.15895546720325945,0.40364465966299173,0.5287137854859233
1772025686950308900,6.547308837890625,0.15682430039346218,0.5186782752923668,0.2937610106753185
1772025686960306700,6.557306640625,0.3904705591827631,0.6234643454127013,0.16956245714183896
1772025686970303700,6.5673037109375,0.543432923451066,0.6969795173481106,0.12489676493071018
1772025686980300500,6.577300537109375,0.6967711352944373,0.6452456768490373,0.14992559038829056
1772025686990298600,6.587298583984375,0.7921651076912879,0.4247058601312339,0.29676928911320866
1772025687000296000,6.5972958984375,0.8104746713638306,0.14226269107759,0.533168499872461
1772025687010293800,6.607293701171875,0.8071043181478976,-0.1427292856760323,0.7776745177850127
1772025687020290800,6.617290771484375,0.8769885862350464,-0.3653561378009617,0.9294929727151989
1772025687030288600,6.62728857421875,0.9625748658448458,-0.5008725694887339,1.0464542684715241
1772025687040286000,6.637285888671875,0.9718594115406274,-0.6373834190413356,1.1545876031931488
1772025687050282800,6.64728271484375,0.9118231682509184,-0.7958594321645795,1.236859132231772
1772025687060280800,6.65728076171875,0.8340285654306411,-0.9228256237804889,1.3214847501158713
1772025687070277600,6.667277587890625,0.7177858662724494,-1.0007334777168928,1.3960646286733447
1772025687080275700,6.677275634765625,0.5655348651438952,-1.030710244438052,1.3940265469744801
1772025687090272800,6.687272705078125,0.4366238230705261,-1.0346282946646213,1.3025877419441938
1772025687100269800,6.697269775390625,0.3661655544877052,-0.9770365219175815,1.137941808014363
1772025687110268000,6.707267822265625,0.2943716533869505,-0.8825896211124956,0.9415566277354955
1772025687120264700,6.7172646484375,0.21427637240886688,-0.8138278542492539,0.7811116526268422
1772025687130262800,6.7272626953125,0.11140753408670424,-0.7866046240199357,0.7183514642659574
1772025687140259800,6.737259765625,0.02663198633790016,-0.7947122348908334,0.7173124035418034
1772025687150258000,6.7472578125,-0.0313403101593256,-0.8105761589769274,0.7939807788111269
1772025687160254700,6.757254638671875,-0.13506021235287188,-0.835358644990623,0.9039176558233797
1772025687170251800,6.767251708984375,-0.28844810855686664,-0.8017454214632511,0.9676489542387425
1772025687180249600,6.77724951171875,-0.4400923759639263,-0.7563795085608959,0.9806696177229285
1772025687190247000,6.787246826171875,-0.5834849478542804,-0.6985476434476673,0.9300148776974528
1772025687200244700,6.79724462890625,-0.7678741315215826,-0.6394356753960252,0.8459331574317067
1772025687210241800,6.80724169921875,-0.9391033893644809,-0.581063273665309,0.7776878887232392
1772025687220238600,6.817238525390625,-1.0795353578835725,-0.5074157075218856,0.7313105337560176
1772025687230236700,6.827236572265625,-1.1603723971396684,-0.4313542121045291,0.6277909033749253
1772025687240233700,6.837233642578125,-1.1446692165732384,-0.3527573529906571,0.5152807418085634
1772025687250231800,6.847231689453125,-1.0918465579241514,-0.3392828082591295,0.4227021190933883
1772025687260228900,6.857228759765625,-1.0336474669337272,-0.49053120821639895,0.3597000117354095
1772025687270226700,6.867226806640625,-1.1517261493474245,-0.5066293794497847,0.33714090085960924
1772025687280223700,6.8772236328125,-1.4031231688827275,-0.27923998909816145,0.4310846379155293
1772025687290220800,6.887220703125,-1.4412018473863601,-0.18756372205018995,0.4792044526359066
1772025687300219000,6.897218994140625,-1.3077899867624043,-0.2632142985790968,0.39705808434691275
1772025687310215700,6.907215576171875,-1.259175885719061,-0.295888779951632,0.31323969119247047
1772025687320213800,6.9172138671875,-1.3779086481273173,-0.1603435605607927,0.20821725503299385
1772025687330210600,6.92721044921875,-1.469085879611969,0.03996770712062716,0.06776198783670552
1772025687340209000,6.937208984375,-1.366840726146102,0.1927250503361225,-0.10181831548907794
1772025687350205700,6.947205810546875,-1.1413625762432813,0.27473668632954357,-0.2719252273716964
1772025687360202800,6.95720263671875,-0.9385638756603002,0.3524624616973102,-0.4045036876451224
1772025687370200800,6.967200927734375,-0.7563023516714572,0.43132805474996566,-0.4842269204404205
1772025687380198000,6.977197998046875,-0.5427776744127273,0.4954004216879606,-0.5216988652225584
1772025687390196000,6.987196044921875,-0.31509061628878116,0.5251344656944275,-0.5601981437584385
1772025687400192800,6.99719287109375,-0.07154898642897606,0.5148873585768043,-0.6027743163444101
1772025687410186500,7.0071865234375,0.09290566271245479,0.5090931392148137,-0.6274279152814298
1772025687420184600,7.0171845703125,0.23083763110935687,0.48396147443726656,-0.6414026646200567
1772025687430181400,7.027181396484375,0.40240474260449405,0.3868117444142699,-0.6627890784546733
1772025687440179700,7.0371796875,0.5850701712191104,0.3096443335816264,-0.7047592845041304
1772025687450176500,7.047176513671875,0.7835539312124252,0.29215909190401435,-0.7247638885915278
1772025687460174600,7.057174560546875,0.920069018548727,0.3060610682673752,-0.7082873124998063
1772025687470171400,7.06717138671875,0.95529347666502,0.30156974819749593,-0.659749564628303
1772025687480168700,7.077168701171875,0.9196019855588674,0.23108999843522904,-0.591376577886939
1772025687490166500,7.08716650390625,0.8049912715166807,0.1647505633480847,-0.5377912277696654
1772025687500163600,7.09716357421875,0.673518854522705,0.1567225935846567,-0.5137839639121666
1772025687510161400,7.107161376953125,0.5311930350810289,0.1901684977211058,-0.5379536883223801
1772025687520158500,7.117158447265625,0.4167342967301607,0.18927388696894049,-0.6066187168128788
1772025687530156500,7.127156494140625,0.32989597123265263,0.16925605807378888,-0.7033597199045121
1772025687540153600,7.137153564453125,0.23811960481107233,0.16134338525310157,-0.8312460220400244
1772025687550150400,7.147150390625,0.20320961947143076,0.1702897850356996,-0.9582432663813233
1772025687560148500,7.1571484375,0.20863982782661913,0.20334844342023134,-1.0118468462750314
1772025687570145500,7.1671455078125,0.19846914694607257,0.29290377279147506,-0.9697029641591012
1772025687580143400,7.177143310546875,0.12256488791704177,0.4160682340368628,-0.9173129247736185
1772025687590140700,7.187140625,0.006116437053680419,0.5163248440340161,-0.8630167595058679
1772025687600137500,7.197137451171875,-0.08378419862389563,0.5193706414707004,-0.8699661402523517
1772025687610135600,7.207135498046875,-0.08397942893505096,0.4859818743489682,-0.8706744346521794
1772025687620132400,7.21713232421875,0.06642857467532158,0.4883518183507025,-0.9335746160056442
1772025687630130400,7.22713037109375,0.33369945516884325,0.5516378572165965,-1.0547162661865352
1772025687640127500,7.23712744140625,0.6130179163306951,0.5975475216068327,-1.1604986538678408
1772025687650125600,7.24712548828125,0.865366537502408,0.5378447480551898,-1.2066750794354826
1772025687660122400,7.257122314453125,1.0149971269994973,0.4268994246527552,-1.1341986759632825
1772025687670119400,7.267119384765625,1.059166523593664,0.2890865525908768,-0.9561808539588004
1772025687680117500,7.277117431640625,1.045997829940915,0.10373583041504025,-0.7067024544611573
1772025687690114600,7.287114501953125,0.9956266560971736,-0.10683642677888273,-0.5083575914818793
1772025687700112600,7.297112548828125,0.9543284310251474,-0.323090821262449,-0.42440307779237624
1772025687710109400,7.307109375,0.931641382920742,-0.5019521814189851,-0.3790919638171792
1772025687720107500,7.317107421875,0.9040829293876886,-0.6170970023378729,-0.32205428128894414
1772025687730104300,7.327104248046875,0.8835229564398527,-0.6950692998126149,-0.30586094258539376
1772025687740101600,7.3371015625,0.8418260874390602,-0.7539626566775143,-0.32532110106516626
1772025687750099500,7.347099365234375,0.7437514976561069,-0.7449979905858636,-0.3281242488523945
1772025687760096500,7.357096435546875,0.6551438243985176,-0.7193855565540492,-0.33077845315560694
1772025687770094300,7.36709423828125,0.5482271719902754,-0.7078466560602188,-0.34388840235844254
1772025687780091600,7.377091552734375,0.43280455704331394,-0.704388624560833,-0.3902879691574722
1772025687790089700,7.38708984375,0.359821153897047,-0.6956552830070257,-0.45366906589567657
1772025687800086500,7.39708642578125,0.36407764229774475,-0.6743411306910216,-0.5254918277647346
1772025687810083600,7.40708349609375,0.4035053973227739,-0.6019191608197987,-0.5779205186601728
1772025687820081400,7.417081298828125,0.3904612068325281,-0.5331257567092776,-0.5989194675471633
1772025687830078700,7.42707861328125,0.3490905010461807,-0.509734067466855,-0.607374284420535
1772025687840076500,7.43707666015625,0.3058247752934694,-0.5125890185065567,-0.5913289393529295
1772025687850073600,7.447073486328125,0.22847440910935402,-0.543706041304022,-0.5459162646993995
1772025687860070400,7.4570703125,0.04184884469211101,-0.571571076568216,-0.4823636838518083
1772025687870068500,7.467068359375,-0.14542670806646346,-0.5785355087533592,-0.4298892541185021
1772025687880065500,7.4770654296875,-0.2589519649595022,-0.5647532132469117,-0.3506500785131007
1772025687890063600,7.487063720703125,-0.3802811736017465,-0.5256101203821599,-0.2733713162604719
1772025687900060400,7.497060302734375,-0.5030746095776558,-0.4507802125863731,-0.20393179626613855
1772025687910058500,7.50705859375,-0.5465151073753833,-0.3461990173883736,-0.20502353702560067
1772025687920055300,7.51705517578125,-0.5788286464810372,-0.23174510134309528,-0.22637319904640316
1772025687930052600,7.527052490234375,-0.6698474725335836,-0.12292188466116785,-0.25392799931764604
1772025687940050700,7.53705078125,-0.7840928603947163,-0.0325035087198019,-0.31466851841919125
1772025687950047500,7.547047607421875,-0.8941817130982875,-0.010184124884009362,-0.35476094789803025
1772025687960045600,7.557045654296875,-0.9007207594782114,-0.12332958867922425,-0.32848515458665783
1772025687970042400,7.56704248046875,-0.9513485384315252,-0.27940336296632884,-0.2223168363276869
1772025687980040400,7.57704052734375,-1.3226561319828032,-0.20898308830633758,-0.16277575614377857
1772025687990037500,7.58703759765625,-1.6954226921707392,-0.07705708232596516,-0.14576280815303325
1772025688000034600,7.59703466796875,-1.8223685716509819,-0.07388269007354974,-0.18379582088403404
1772025688010032400,7.607032470703125,-1.8618623776495455,-0.13937339937686918,-0.20209354798831045
1772025688020029400,7.617029541015625,-2.0036913534849883,-0.0665083619132638,-0.193674825341627
1772025688030027300,7.62702734375,-2.195098891481757,0.12701149206236004,-0.18351320455037057
1772025688040024600,7.637024658203125,-2.217160501164198,0.32990298549532887,-0.20058745427429675
1772025688050021400,7.647021484375,-1.9945634596556423,0.4763271801665425,-0.26313107727505264
1772025688060019500,7.65701953125,-1.686588228330016,0.6028969198107719,-0.30752339590489863
1772025688070016500,7.6670166015625,-1.3996020090192556,0.7613042516119778,-0.2942505842905491
1772025688080014600,7.6770146484375,-1.1226929470866918,0.9211470230437815,-0.25660079872347413
1772025688090011600,7.68701171875,-0.8965911123275756,1.0418599994838238,-0.16234481738060713
1772025688100009500,7.697009521484375,-0.6885492503941059,1.0555978713266552,-0.06466141887232661
1772025688110006500,7.707006591796875,-0.4435702812075615,0.9873784677118063,0.03451236432418227
1772025688120003600,7.717003662109375,-0.12274550518095492,0.8905778433874249,0.12435513233467936
1772025688130001700,7.727001708984375,0.2625339150995016,0.7678875755250454,0.19615144458822906
1772025688139998500,7.73699853515625,0.6420914506018162,0.6284831964880228,0.2564951463919133
1772025688149996500,7.74699658203125,0.9581623100996017,0.4812546996966004,0.30545433454588056
1772025688159993300,7.756993408203125,1.242444531148672,0.36145503870919343,0.3794757024377584
1772025688169991400,7.766991455078125,1.4600696294635533,0.2956890195958316,0.47699477722980077
1772025688179988700,7.77698876953125,1.530804376900196,0.2707686594814062,0.6528546905480325
1772025688189985500,7.786985595703125,1.4276345098048449,0.2544134447470307,0.8940894317049533
1772025688199983600,7.796983642578125,1.3439222073733805,0.13604220912754536,1.0514872211374342
1772025688209980400,7.80698046875,1.3100386424720287,-0.06799187846928835,1.1615435598108916
1772025688219978500,7.816978515625,1.1821306399613618,-0.28705168576240536,1.228753567187488
1772025688229975600,7.8269755859375,1.011553124025464,-0.46451881508156656,1.2612863020017742
1772025688239973600,7.8369736328125,0.9232131617933511,-0.6132645845681428,1.2757152248486876
1772025688249970400,7.846970458984375,0.8954676612555981,-0.6570451279751957,1.30078566095829
1772025688259967500,7.856967529296875,0.9018260903716087,-0.551098051251471,1.314161567620933
1772025688269965300,7.86696533203125,0.8937304621994495,-0.3734387603610754,1.3064248358890413
1772025688279962600,7.876962646484375,0.7495131299227475,-0.22429200885817407,1.2888121684394775
1772025688289960700,7.886960693359375,0.49451311745941634,-0.14487418875023722,1.2233419174022973
1772025688299957500,7.89695751953125,0.1577595354169607,-0.06616670886874199,1.0938491299182176
1772025688309954300,7.906954345703125,-0.11268237632811069,0.023355595015734434,0.8985076865386217
1772025688319952400,7.916952392578125,-0.25137188509404657,0.10541676923930644,0.7452810453109443
1772025688329949700,7.92694970703125,-0.3076362086296081,0.15240750686451793,0.6127155723832547
1772025688339947500,7.936947509765625,-0.25559680931270123,0.2206270566098392,0.48339518232401457
1772025688349944600,7.946944580078125,-0.05369710339605808,0.353114641995728,0.3491559309652075
1772025688359942400,7.9569423828125,0.19360358673632144,0.47646863446384663,0.246106913770549
1772025688369939500,7.966939453125,0.47514673821032044,0.5453815733008086,0.20578173498176036
1772025688379936500,7.9769365234375,0.7287187636971473,0.5440840808361769,0.26760150068737565
1772025688389934600,7.9869345703125,0.8089327026188373,0.48032194889113305,0.4019141095433384
1772025688399931400,7.996931396484375,0.7766577419579028,0.3352614437885582,0.671414794915542
1772025688409932800,8.006932861328124,0.7075421201556921,0.10658595914915203,0.9295635537333786
1772025688419929900,8.016929931640625,0.6451748035699129,-0.1319346276782453,1.078987222481519
1772025688429928000,8.026927978515625,0.6189204183727502,-0.32836920005679127,1.121734038926661
1772025688439925000,8.036925048828126,0.6074935999512672,-0.4648027465894818,1.130028550671786
1772025688449921800,8.046921875,0.5645651433289051,-0.5518554454900324,1.1397205081246793
1772025688459920000,8.056919921875,0.5018628957003355,-0.6098012923717498,1.147071236213669
1772025688469917000,8.0669169921875,0.4348591514855623,-0.6497272061772644,1.168806098159775
1772025688479915000,8.0769150390625,0.33947102430760856,-0.665471449406445,1.1823920673765242
1772025688489911800,8.086911865234375,0.24477614009082316,-0.6422447414673864,1.1024198282562196
1772025688499910000,8.096909912109375,0.17850947797894476,-0.5842771211452782,0.9654037325952202
1772025688509906700,8.10690673828125,0.10520809492468833,-0.5245366459317505,0.8214500196907669
1772025688519904000,8.116904052734375,0.009375731110572815,-0.4918868606090545,0.7402145557016134
1772025688529902000,8.126902099609374,-0.05192015685141086,-0.47681554820537564,0.7356042123619466
1772025688539899000,8.13689892578125,-0.11229776092469691,-0.4644793598540127,0.7291416652843355
1772025688549897000,8.14689697265625,-0.17484920190572736,-0.4535827027864754,0.7504734993875026
1772025688559893800,8.156893798828126,-0.2853770305484533,-0.4476650031752884,0.7416193079330027
1772025688569891000,8.16689111328125,-0.42362990146279333,-0.44843072685077784,0.7265111706502735
1772025688579889000,8.176888916015624,-0.5762795465201139,-0.4451758167080581,0.686845222955197
1772025688589886000,8.186885986328125,-0.6955261036694049,-0.44714273286685347,0.6201959912665188
1772025688599883800,8.1968837890625,-0.776153884088993,-0.4272610975719988,0.5553550145762041
1772025688609880800,8.206880859375,-0.829336608222127,-0.4062511888995766,0.5051857565127312
1772025688619878700,8.216878662109375,-0.8714496568083763,-0.3806793791390955,0.4607314420299604
1772025688629876000,8.2268759765625,-0.9000339462578296,-0.3227829243570566,0.3498706185732037
1772025688639872800,8.236872802734375,-0.8427642450720071,-0.23829379233419895,0.24242329335436225
1772025688649870800,8.246870849609374,-0.8115694808632135,-0.18497692042738198,0.171846038034372
1772025688659868000,8.256867919921875,-0.8320014435172081,-0.20043825506195426,0.08908413166292012
1772025688669865700,8.26686572265625,-0.8073153305500745,-0.31266981888264417,0.03377232307922095
1772025688679863000,8.276863037109376,-0.6818395236223935,-0.5315772120930254,0.05743548620678484
1772025688689860900,8.28686083984375,-0.7235469140172004,-0.606670739261061,0.14649240106921643
1772025688699858000,8.29685791015625,-0.8316273495078086,-0.48536476536393164,0.29094467461295426
1772025688709854700,8.306854736328125,-0.7449936066716909,-0.45131022780984636,0.3638911798149347
1772025688719852800,8.316852783203124,-0.6524941866725683,-0.5981029635325074,0.3572989054104313
1772025688729849900,8.326849853515625,-0.6923445510238408,-0.7432851953186095,0.4187118073482066
1772025688739848000,8.336847900390625,-0.8241478074073791,-0.6943140975311398,0.4781411707859486
1772025688749844700,8.3468447265625,-0.9223457313090563,-0.4628387530401349,0.4949286394577473
1772025688759842800,8.3568427734375,-0.8626590321093797,-0.257006237719208,0.3965742828853428
1772025688769840000,8.366840087890624,-0.7107037990570068,-0.12900515009760855,0.14651795563558115
1772025688779837000,8.3768369140625,-0.6248539000749588,0.024520693272352217,-0.030750509306322782
1772025688789835000,8.3868349609375,-0.5884527993947267,0.2390758826225996,-0.12682544970465823
1772025688799831800,8.396831787109376,-0.4514537279337644,0.4295129681520164,-0.21474683946482837
1772025688809830000,8.406829833984375,-0.2727817528694868,0.5545965608917176,-0.29544878109917044
1772025688819827000,8.416826904296874,-0.14825462496876715,0.6677271193787455,-0.3919272242644801
1772025688829825000,8.426824951171875,0.006688683983683586,0.7623373940519989,-0.4506650617741048
1772025688839821800,8.43682177734375,0.16688918281197546,0.8302648289829492,-0.44797180410213766
1772025688849819000,8.44681884765625,0.2755909650713205,0.8394498598270118,-0.39244010569006205
1772025688859816700,8.456816650390625,0.3882873699247837,0.786810594920814,-0.3397450920086354
1772025688869814000,8.46681396484375,0.4878571667015552,0.7217438101179897,-0.2286217999571003
1772025688879812000,8.47681201171875,0.5060241070330143,0.6385337581202387,-0.09769644065294414
1772025688889809000,8.486808837890624,0.4526514132857322,0.5612346837319433,-0.04615804966073483
1772025688899807000,8.496806884765626,0.38824879148006436,0.5081071969173848,-0.07114656137423589
1772025688909803800,8.5068037109375,0.3800532100647688,0.5061648306779564,-0.0658099495866336
1772025688919801000,8.516801025390626,0.40309915460944173,0.510869062846154,-0.09029557154560461
1772025688929799000,8.526798828125,0.4780547346115112,0.5536147102475166,-0.17610367721254006
1772025688939796000,8.5367958984375,0.5941828674793243,0.61760612090379,-0.2690562843392603
1772025688949793800,8.546793701171875,0.660780953502655,0.650414311658591,-0.346905119831115
1772025688959790800,8.556790771484375,0.6522276446908712,0.6128934131681919,-0.4157660362198949
1772025688969788700,8.56678857421875,0.5957184064835309,0.5839654248476028,-0.43449404450021684
1772025688979786000,8.576785888671875,0.5204816714525222,0.6049512219920754,-0.40419155295602976
1772025688989782800,8.58678271484375,0.47521454274952407,0.6259802737563848,-0.3489213550243527
1772025688999780900,8.59678076171875,0.4106459167271852,0.6185729201093316,-0.32922578035350886
1772025689009777700,8.606777587890624,0.29368776277601716,0.5663719004899262,-0.3982725747032091
1772025689019775700,8.616775634765625,0.2466916183233261,0.4859714990854263,-0.5115106486853211
1772025689029773000,8.62677294921875,0.2933744590431452,0.4425356774628162,-0.565109917730093
1772025689039769900,8.636769775390626,0.39274610289931294,0.40959173149913547,-0.5623428276369348
1772025689049768000,8.646767822265625,0.529600212931633,0.3466428156331181,-0.6067971055870875
1772025689059764700,8.6567646484375,0.6919546749234199,0.30799072115570303,-0.6690094142742454
1772025689069763000,8.66676318359375,0.8571271169453859,0.29041765506416556,-0.6371186306253075
1772025689079760000,8.676759765625,0.9787842423677444,0.23834435347765684,-0.4982552996624261
1772025689089758000,8.686758056640626,0.9832207635104656,0.10726795006394385,-0.26797822504527863
1772025689099754800,8.696754638671875,0.9436609065383672,-0.05466302581876516,-0.044989700001105665
1772025689109752000,8.706751953125,0.9370540556192397,-0.21505992400199173,0.10465236073806881
1772025689119750000,8.71675,0.8607704418838024,-0.36851153309196233,0.15635361414179205
1772025689129747000,8.726746826171874,0.7635866634607315,-0.5067226106911897,0.16815964113920925
1772025689139745000,8.7367451171875,0.719718880161643,-0.6117832599692046,0.1714388820055872
1772025689149741800,8.746741943359375,0.6524842498004436,-0.6156603936634958,0.10646277116090058
1772025689159740000,8.756739990234376,0.629573914334178,-0.5954986262530088,0.029663316857814787
1772025689169737000,8.766737060546875,0.623454554671049,-0.5886861697591841,-0.03431991049200296
1772025689179734000,8.776734130859374,0.5832552307516337,-0.6237734113618731,-0.1012573114722967
1772025689189731800,8.78673193359375,0.5255594131082296,-0.6822640326447784,-0.14304463523551822
1772025689199729000,8.79672900390625,0.43541327823698517,-0.6870956905849278,-0.13243658585101364
1772025689209726700,8.806726806640626,0.33369536351561546,-0.6645965662680566,-0.0940953108884394
1772025689219724000,8.81672412109375,0.2319037990361452,-0.6562823269091547,-0.09346833809651434
1772025689229721900,8.826721923828124,0.17736381507515905,-0.6596994418762624,-0.11167217637225985
1772025689239719000,8.836718994140625,0.11559037272930145,-0.6327480143256485,-0.11713825975842773
1772025689249715700,8.8467158203125,0.010279401952028274,-0.6521751838512718,-0.08813326067887246
1772025689259713800,8.8567138671875,-0.07669628618955612,-0.7035346380800008,-0.07762202273234725
1772025689269710800,8.8667109375,-0.15340192472934722,-0.7180218669854104,-0.09669855218939483
1772025689279709000,8.876708984375,-0.21394728658497333,-0.6595384060956537,-0.1425983527727425
1772025689289706000,8.8867060546875,-0.2342477318137884,-0.5969957329429686,-0.1957623722054064
1772025689299703800,8.896703857421874,-0.28450960006415843,-0.5413372663460672,-0.2736702261418104
1772025689309700900,8.906700927734375,-0.33451369416117666,-0.4656336444556713,-0.2930035068389028
1772025689319698000,8.916697998046875,-0.4297434159070253,-0.38444443076103924,-0.25036395016051827
1772025689329696000,8.926696044921876,-0.5624585264384746,-0.35778000345826144,-0.24082089965902267
1772025689339692800,8.93669287109375,-0.6551385637015104,-0.32210970127061006,-0.2658634979136288
1772025689349691000,8.94669091796875,-0.673183338958025,-0.24232597045972942,-0.3037028877686709
1772025689359687700,8.956687744140625,-0.643831572267413,-0.15499240879118442,-0.2995032441217452
1772025689369686000,8.96668603515625,-0.6072200437068939,-0.11111702670753001,-0.2527519412755966
1772025689379682800,8.976682861328126,-0.5378793809771537,-0.16095774693638085,-0.1480922009486705
1772025689389679900,8.986679931640625,-0.5078174201905727,-0.2735429465003312,0.002624941676110029
1772025689399678000,8.996677978515624,-0.7287386374413967,-0.23990210431367157,0.14922076658718286
1772025689409671200,9.006671142578124,-0.8996616058140993,-0.21899287953674793,0.2245575279265642
1772025689419669000,9.0166689453125,-0.8799129492491483,-0.3510086096271872,0.1987637459784746
1772025689429666000,9.026666015625,-0.9709680156588554,-0.47569414296001195,0.1595031642138958
1772025689439664000,9.0366640625,-1.2131798582196236,-0.5001994925327599,0.15156250740773974
1772025689449661000,9.046660888671875,-1.4429922379344702,-0.43863545515388247,0.11984613047763705
1772025689459658000,9.056657958984376,-1.5519196456432343,-0.32945787207633254,0.03092610333524644
1772025689469656000,9.066656005859375,-1.4891215364247559,-0.19865239455848932,-0.08652370659038423
1772025689479653000,9.076653076171874,-1.3609686192423105,-0.06183160227388143,-0.15013473962694407
1772025689489651000,9.08665087890625,-1.2437158662587404,0.0800641551874578,-0.18549385697357357
1772025689499648000,9.09664794921875,-1.1025199276298283,0.1980684571906924,-0.18793810832053423
1772025689509645800,9.106645751953126,-0.8528770582854748,0.31042978487089273,-0.16677359360828994
1772025689519643100,9.11664306640625,-0.644130262953043,0.4369559776343405,-0.09961999259404837
1772025689529640000,9.126639892578124,-0.5063058465838433,0.5042443840093911,-0.024434257097914813
1772025689539638000,9.136637939453125,-0.36044776136279105,0.48442982260137796,0.005399813216924667
1772025689549634800,9.146634765625,-0.16661504204571245,0.46246202868223185,0.06055464114062488
1772025689559633000,9.1566328125,0.002302431723475456,0.4495174991741776,0.14162563528306782
1772025689569630000,9.1666298828125,0.21874738034307956,0.441319141279906,0.1684183651406318
1772025689579627000,9.176626953125,0.4954255561292171,0.5005227331377565,0.21478234916962682
1772025689589625000,9.186625,0.7479670695245265,0.5868764899887144,0.32399734164811667
1772025689599622000,9.196621826171874,0.9717541976004839,0.6100356856495142,0.43408400239460165
1772025689609620000,9.206619873046876,1.1899562190204858,0.5860705804333091,0.50903921707049
1772025689619617000,9.216616943359375,1.3335586342692374,0.5815080948233604,0.615457710698247
1772025689629615000,9.226614990234374,1.332000298911333,0.5523948130637407,0.7499419497940689
1772025689639612000,9.23661181640625,1.1953425882339477,0.5061678994178772,0.8463879885271192
1772025689649610000,9.24660986328125,1.091017121362686,0.4500155118241906,0.9839311768021434
1772025689659607000,9.25660693359375,1.0411661720007657,0.41003626039624214,1.156650088680908
1772025689669604000,9.26660400390625,0.9675853874832391,0.3576327039420604,1.286520404240489
1772025689679602000,9.276601806640626,0.9023375470250844,0.28794220486134287,1.3762272709116339
1772025689689599000,9.286598876953125,0.8322861056774854,0.1723568005681038,1.4585887432560323
1772025689699597000,9.29659716796875,0.74773676789999,0.038575814370810986,1.5080316963389515
1772025689709594000,9.306593994140625,0.6908382381141185,0.027601415891945362,1.5342065865591168
1772025689719592200,9.31659228515625,0.5999702187091112,0.14705810866057872,1.5750485922962427
1772025689729589000,9.326589111328126,0.40048867985010145,0.268087165312469,1.5697047470502554
1772025689739586000,9.3365859375,0.08793313499689101,0.3516647354483604,1.5111657565809786
1772025689749584000,9.346583984375,-0.31525720502734184,0.43844431649595494,1.3892264532163738
1772025689759581200,9.356581298828125,-0.6379957057207822,0.5485992201730608,1.2368956648498772
1772025689769579000,9.3665791015625,-0.7875035456210374,0.6409013640344142,1.0715738774850965
1772025689779576000,9.376576171875,-0.773503661841154,0.7016206211522221,0.9431010076332836
1772025689789572900,9.38657275390625,-0.6818512140601873,0.7555471493899821,0.7254309741981327
1772025689799571000,9.396571044921876,-0.429822326362133,0.901896525259316,0.4663276546018198
1772025689809568000,9.406568115234375,-0.053389644882082934,1.0691334985956549,0.2442382703544572
1772025689819566000,9.416566162109374,0.300920636638999,1.1316001839026808,0.09674651951696724
1772025689829563000,9.42656298828125,0.6330009661734104,1.0908011405244469,0.02472399729210883
1772025689839561000,9.43656103515625,0.776387108322978,0.9830518366843461,0.11345628331005572
1772025689849558000,9.44655810546875,0.7962561763972044,0.7535588981822132,0.3577145370066166
1772025689859555000,9.45655517578125,0.8684042977631091,0.420073962546885,0.6210367529395967
1772025689869553200,9.46655322265625,0.9419885894119739,0.10621522614061832,0.8343838086090981
1772025689879550000,9.476550048828125,0.9442091880708933,-0.09923252764642237,0.9759128516498953
1772025689889548000,9.486548095703125,0.9045359338521957,-0.23984248308092354,1.1440150635134427
1772025689899544800,9.496544921875,0.8898398845016956,-0.42513738341629503,1.3087012563884257
1772025689909543000,9.50654296875,0.8567676359832286,-0.6204962893873452,1.4255717320561407
1772025689919540000,9.5165400390625,0.7562287019133568,-0.7345224815398455,1.4808470445543527
1772025689929537000,9.526537109375,0.6154939510554075,-0.7681861200802028,1.5389783310055731
1772025689939534800,9.536534912109374,0.4652268172204494,-0.7688603660799562,1.5035264938741921
1772025689949532200,9.5465322265625,0.3369254314780235,-0.7365379130154848,1.3905090403728186
1772025689959530200,9.5565302734375,0.24487726237773894,-0.6463165209509432,1.2068862379681318
1772025689969527000,9.566527099609376,0.14084756358265876,-0.5343788255102933,1.067758703111112
1772025689979525000,9.576525146484375,0.025348960790038108,-0.4511516762472689,1.0224284460440278
1772025689989522000,9.58652197265625,-0.03725450263917446,-0.4048981668554246,1.0394017926767467
1772025689999519200,9.596519287109375,-0.11095569866597652,-0.3501287580527365,1.0869118049357085
1772025690009517000,9.60651708984375,-0.2601946584969759,-0.25870588124394417,1.1235633732456713
1772025690019514000,9.61651416015625,-0.47724283370673654,-0.16673720712065696,1.1141207874439656
1772025690029512000,9.626511962890625,-0.6927367652118206,-0.0964681774996221,1.057019793888554
1772025690039509000,9.636509033203126,-0.9091916507035493,-0.04771379120275378,0.9924781289383768
1772025690049506800,9.6465068359375,-1.1266098282694816,-0.014838088169693946,0.8933617019522935
1772025690059504000,9.656504150390624,-1.2509528317749499,0.03273030321300029,0.7662277525540441
1772025690069501000,9.6665009765625,-1.3021890980154276,0.07694543864503503,0.6049955360578373
1772025690079499000,9.6764990234375,-1.3423498434901238,0.16778949265256524,0.44268425562065095
1772025690089495800,9.686495849609376,-1.3116601061940192,0.26022622267901896,0.3029667737801559
1772025690099494000,9.696493896484375,-1.208537000849843,0.2699905147157609,0.23192637619413434
1772025690109491200,9.7064912109375,-1.0262988577365875,0.06927315045148134,0.2677996536079794
1772025690119489000,9.716489013671875,-0.9463877011537551,-0.2955351442083716,0.44714616693295534
1772025690129486000,9.726486083984375,-1.2307441564828157,-0.3588119768545031,0.7249424600288271
1772025690139483000,9.73648291015625,-1.4581635035812854,-0.2160176631182432,0.911889584550634
1772025690149481000,9.74648095703125,-1.3934189364701508,-0.3546294304728508,0.8978946692068129
1772025690159478000,9.75647802734375,-1.3284440677344798,-0.609517506994307,0.8219795234575867
1772025690169476000,9.76647607421875,-1.488304374822974,-0.5861375081896781,0.7082381395958364
1772025690179473000,9.776472900390624,-1.65284319511652,-0.31799890495091676,0.5120792058208957
1772025690189471000,9.786470947265625,-1.588787194791436,-0.0617281418994069,0.21581569253904745
1772025690199467800,9.7964677734375,-1.3164596154302357,0.06655658496916293,-0.04322198707568459
1772025690209465000,9.806465087890626,-1.0693091474235057,0.20633184314519165,-0.19280717566162348
1772025690219463200,9.816463134765625,-0.8528127608776092,0.409794998986274,-0.27343813441898673
1772025690229460000,9.8264599609375,-0.5658160201728344,0.5794966088704765,-0.3033393151532858
1772025690239458000,9.8364580078125,-0.2885205892711878,0.7069438620015979,-0.2991468501658179
1772025690249454800,9.846454833984374,-0.046669396716356275,0.7962035694271326,-0.26952717152033
1772025690259453200,9.856453125,0.16034078408181665,0.8488035252362489,-0.2588584962560795
1772025690269450000,9.866449951171875,0.33432840072214604,0.8348013033688068,-0.2591593971651047
1772025690279447000,9.876447021484376,0.43504035327136514,0.8125576151177286,-0.2203052042443305
1772025690289444900,9.88644482421875,0.476121136200428,0.786447022305429,-0.17531241723699495
1772025690299442200,9.896442138671874,0.535726586857438,0.7354960027471185,-0.11877523157680406
1772025690309440000,9.90643994140625,0.6184662448644638,0.7084332237765193,-0.07532686099987476
1772025690319437000,9.91643701171875,0.6232715993195772,0.720852852627635,-0.022979126386158167
1772025690329437000,9.92643701171875,0.5130184959650039,0.7294841951116919,0.05396554507389664
1772025690339434000,9.93643408203125,0.4599509226441383,0.7454375510469079,0.07553553531449288
1772025690349431000,9.94643115234375,0.46340486249029633,0.764022132268548,0.07994597216788679
1772025690359429000,9.95642919921875,0.5161345821589232,0.8035504250586032,0.053025560810044406
1772025690369426000,9.966426025390625,0.5160761299699544,0.8505790104761719,0.04850622022207826
1772025690379424000,9.976424072265624,0.4636813413441181,0.8245771387353539,0.0660796881724149
1772025690389421000,9.986421142578125,0.40029578762650486,0.7910448714897036,0.08741013403609395
1772025690399419100,9.996419189453125,0.3195645468324423,0.7782797902017832,0.12528558158520609
1772025690409419300,10.006419189453124,0.2144061362683773,0.8015054752275347,0.15808387200050056
1772025690419416300,10.016416259765625,0.1115016421109438,0.8261179384365678,0.18587445378899572
1772025690429414400,10.026414306640625,0.04698094688355922,0.8272934119567275,0.1682746823536232
1772025690439411500,10.036411376953126,0.022121230915188788,0.870814281514287,0.13169336626827716
1772025690449409300,10.0464091796875,0.014469254857301711,0.9051037968680262,0.08748195716328919
1772025690459406300,10.05640625,0.10694003328382969,0.8867661761447787,0.08886953906416893
1772025690469404400,10.066404296875,0.2727209625929594,0.8373454348936676,0.1432060363423079
1772025690479401500,10.0764013671875,0.4137801230996847,0.781232502527535,0.21148538998346775
1772025690489398300,10.086398193359376,0.499608979293704,0.7076368127018213,0.2695600508766249
1772025690499396400,10.096396240234375,0.6451853249639272,0.6014017128169536,0.3244263807151466
1772025690509393400,10.106393310546874,0.7252624857634306,0.47131022878736256,0.4120139171447605
1772025690519391200,10.11639111328125,0.691596363005042,0.3104571112692356,0.4875389675978571
1772025690529388500,10.126388427734375,0.6742068367868661,0.13204729427248238,0.5233871471030638
1772025690539386400,10.136386474609376,0.675473495721817,-0.02860094832330942,0.5562766959983855
1772025690549383400,10.146383544921875,0.6340957756727934,-0.12369213838130234,0.5400491992969065
1772025690559380200,10.156380126953126,0.5714455504924059,-0.17417027973085641,0.5451535366985947
1772025690569378300,10.16637841796875,0.5182897143661975,-0.22239567371755836,0.5184812183503061
1772025690579375400,10.176375244140624,0.45442894435226916,-0.28356062877625227,0.4512589360140264
1772025690589373400,10.18637353515625,0.41076983536779876,-0.32895781359970566,0.3876564150774851
1772025690599370200,10.196370361328125,0.4069879787415266,-0.3099611444458365,0.34271661863271147
1772025690609368300,10.206368408203126,0.40088089403808114,-0.2610553669795394,0.27533450609222054
1772025690619365400,10.216365478515625,0.36319793685376645,-0.2317950779646635,0.2223856637801975
1772025690629362400,10.226362548828124,0.3077081048220396,-0.21649054132699966,0.10920777728641405
1772025690639360500,10.236360595703125,0.2764022814542055,-0.2091775879651308,-0.007582335754623636
1772025690649357300,10.246357421875,0.2486532737851143,-0.19197393970787524,-0.06831500034327619
1772025690659355400,10.25635546875,0.2728729382842779,-0.17861761452853678,-0.1152689130894374
1772025690669352200,10.266352294921875,0.37101240999698637,-0.15037380907982587,-0.16101205267319454
1772025690679349500,10.276349609375,0.446001307746768,-0.14494856916069984,-0.1739806754428893
1772025690689347300,10.286347412109375,0.48471828415393825,-0.1842243484944105,-0.1700179092917591
1772025690699344400,10.296344482421874,0.5118307474851608,-0.26532529938369986,-0.15453986098440364
1772025690709342200,10.30634228515625,0.5140028308272362,-0.35193683038800955,-0.16245503628943114
1772025690719339300,10.31633935546875,0.4887105686604976,-0.4287076431185007,-0.15176847830861806
1772025690729337300,10.32633740234375,0.4433469938457012,-0.551987693567574,-0.12614486529566346
1772025690739334400,10.33633447265625,0.4715069204032421,-0.6730338474847376,-0.13384272632189095
1772025690749331200,10.346331298828124,0.48758536402285096,-0.7638394691780209,-0.06634307008264585
1772025690759329300,10.356329345703125,0.3749140936106443,-0.9050925448216497,0.009376973219588398
1772025690769326300,10.366326416015625,0.2555056238979101,-1.0469961933284997,0.06656175433462486
1772025690779324400,10.376324462890626,0.16146891132891178,-1.1196044795520603,0.10611888962667435
1772025690789321500,10.386321533203125,0.06163257257044315,-1.1249945020273326,0.09928966466113924
1772025690799319300,10.3963193359375,-0.028907530054450032,-1.1069792451262472,0.025614333727955817
1772025690809316400,10.40631640625,-0.07914426386356353,-1.1023359493650495,-0.06306826792936772
1772025690819313400,10.4163134765625,-0.10428455033898353,-1.0192642829246819,-0.08848046668134629
1772025690829311500,10.4263115234375,-0.16628420265614985,-0.8504265963934361,-0.09542436753511428
1772025690839308300,10.436308349609375,-0.2507084527492523,-0.685152885954082,-0.15507647034544497
1772025690849306400,10.446306396484376,-0.32386078272163865,-0.5561407215937971,-0.21438626252412796
1772025690859303200,10.45630322265625,-0.43114919105172156,-0.4559785118818283,-0.24666020027175545
1772025690869301200,10.46630126953125,-0.5662544115900993,-0.37927871856093404,-0.2338840130679309
1772025690879298600,10.476298583984375,-0.6578717880576849,-0.29270810408890247,-0.18006792293470353
1772025690889295400,10.48629541015625,-0.83395608471632,-0.26503070035129783,-0.14931914892774073
1772025690899293400,10.49629345703125,-0.9729226568579673,-0.2670230432122946,-0.1857559419758618
1772025690909290200,10.506290283203125,-1.2329869669735432,-0.07503975115418433,-0.24245840120036152
1772025690919288300,10.516288330078124,-1.458141876271367,0.1638292107194662,-0.2745872313888743
1772025690929285400,10.526285400390625,-1.4519564656347035,0.1666091968268156,-0.26126769455596804
1772025690939283500,10.536283447265625,-1.4561661922842264,0.020922376519441604,-0.2701541443122551
1772025690949280300,10.5462802734375,-1.3827707012057304,0.0592471387386322,-0.2545725808314979
1772025690959277300,10.55627734375,-1.158401973849535,0.29822540620565413,-0.1881971976481378
1772025690969275100,10.566275146484376,-1.0261047964692116,0.4823582770243287,-0.1507702610515058
1772025690979272400,10.5762724609375,-0.9624404258102178,0.4553884370341897,-0.12647241674959658
1772025690989270500,10.5862705078125,-0.8659118964254856,0.3434617013789713,0.020201661029458046
1772025690999267300,10.596267333984375,-0.7284849549412727,0.2675922214023769,0.1892678956195712
1772025691009265400,10.606265380859375,-0.6514227580487728,0.29166590155959127,0.34246231507807967
1772025691019262200,10.61626220703125,-0.48708267519772047,0.33522973347604273,0.4749724045567214
1772025691029259500,10.626259521484375,-0.2649041513621807,0.22341624893695114,0.5603467219162732
1772025691039257300,10.63625732421875,-0.13403613000214099,0.09506693239957094,0.6542026710908859
1772025691049254400,10.64625439453125,-0.27192133664786816,0.01569879665225744,0.8374092208448797
1772025691059252200,10.656252197265625,-0.529130257332325,-0.09505378065705299,1.0096935406986622
1772025691069249300,10.666249267578126,-0.666709759029746,-0.16143822392970322,1.1738014952942728
1772025691079247400,10.676247314453125,-0.7293120534151792,-0.21188684692382811,1.21411436259076
1772025691089244400,10.686244384765626,-0.7477846986949443,-0.20198621515631673,1.14169348869808
1772025691099241200,10.6962412109375,-0.6907803704470395,-0.108717710480839,1.0057779746901243
1772025691109239300,10.7062392578125,-0.4786486088514328,-0.05165697587057948,0.874523657426238
1772025691119236400,10.716236328125,-0.22717384790480136,0.08358107726722955,0.7961636027429252
1772025691129234400,10.726234375,-0.12385317416191101,0.29159970445558425,0.7521556803207844
1772025691139231500,10.7362314453125,0.06771510735452174,0.4454885359190404,0.6578702536877244
1772025691149229300,10.746229248046875,0.4667705395311117,0.5859647819712758,0.47672531263865525
1772025691159226400,10.756226318359374,0.7496604294389486,0.8775367216371,0.46420697265341876
1772025691169223400,10.766223388671875,0.9830728794723749,1.1556569129250942,0.48464390374347566
1772025691179221500,10.776221435546875,1.2851777574598788,1.210559592718631,0.43224093181118367
1772025691189218300,10.78621826171875,1.482054666778445,1.1011783037625253,0.4005909711807966
1772025691199216400,10.79621630859375,1.5322230115264652,0.9596689152702689,0.41087636448219417
1772025691209213200,10.806213134765626,1.5046516985118388,0.827743786072731,0.44945773181095716
1772025691219210500,10.81621044921875,1.423965465903282,0.7186530044957995,0.5280426082260906
1772025691229208300,10.826208251953124,1.2426175496280192,0.6347231137908995,0.7136945053055882
1772025691239205400,10.836205322265625,1.0110720625102518,0.5079511295728385,0.9847942964375018
1772025691249203500,10.846203369140625,0.7907043874889612,0.28573519633635874,1.3424039117649196
1772025691259200300,10.8562001953125,0.6698129857420921,-0.0028854923084378242,1.5805736393280327
1772025691269198300,10.8661982421875,0.5269347931146622,-0.24671646050363777,1.7419405515871942
1772025691279195400,10.8761953125,0.4529845907628536,-0.286957285477221,1.7481228934839368
1772025691289192400,10.8861923828125,0.47319443509876724,-0.15211743787676096,1.5825598447091878
1772025691299190300,10.896190185546875,0.6649088470876217,0.08679448635578155,1.6598846380606294
1772025691309187300,10.906187255859376,1.2505869210720062,0.3338293651588261,2.124141879596561
1772025691319185200,10.91618505859375,0.6004267303049564,0.3315843627110123,1.9894234664186834
1772025691329182500,10.926182373046874,0.06293254925310611,0.330865108525753,1.4920352319143713
1772025691339180300,10.93618017578125,-0.4920820909202099,0.2544330262303352,0.8886099043153226
1772025691349177300,10.94617724609375,-0.5226788892358541,0.2748597281873226,0.6551419247023761
1772025691359174100,10.956174072265625,-0.3420984502017498,0.41125177366584537,0.6921814694166183
1772025691369172200,10.966172119140625,-0.20148469537496566,0.4637520684927702,0.8505847095645964
1772025691379169300,10.976169189453126,0.09156827662885189,0.4673936398655176,0.8929042405083775
1772025691389167400,10.98616748046875,0.5572644649267197,0.3785729083791375,0.5962669802770019
1772025691399164400,10.996164306640624,0.8672481134653091,0.28427345322072506,0.3878160991512239
1772025691409163300,11.006163330078126,0.8416437166094779,0.19496099269464612,0.41111718750074505
