time,seconds_elapsed,z,y,x
1772459216616483300,0.0764833984375,-0.0015229261480271816,0.2346903383731842,-0.28509244322776794
1772459216626480400,0.08648046875,0.004258403088897467,0.26022210717201233,-0.28421157598495483
1772459216636477400,0.0964775390625,0.014166693203151226,0.2754301130771637,-0.272993266582489
1772459216646475500,0.1064755859375,0.030986744910478592,0.30955561995506287,-0.235153466463089
1772459216656472300,0.116472412109375,0.05517277494072914,0.3638817071914673,-0.1746235340833664
1772459216666469400,0.126469482421875,0.08631446957588196,0.3903847336769104,-0.11075174808502197
1772459216676466400,0.136466552734375,0.12685495615005493,0.36821550130844116,-0.07127411663532257
1772459216686463200,0.146463134765625,0.18112528324127197,0.30439475178718567,-0.04756168648600578
1772459216696460500,0.15646044921875,0.2570578455924988,0.206898033618927,-0.035526860505342484
1772459216706458400,0.166458251953125,0.32683372497558594,0.11312200129032135,0.0004740182776004076
1772459216716455400,0.176455322265625,0.380395770072937,0.029233761131763458,0.06662800908088684
1772459216726452200,0.1864521484375,0.42156022787094116,-0.02641078643500805,0.1449887603521347
1772459216736449500,0.196449462890625,0.4558795988559723,-0.0483538992702961,0.23374871909618378
1772459216746446300,0.2064462890625,0.4820132851600647,-0.052448857575654984,0.3346302807331085
1772459216756443400,0.216443359375,0.49028798937797546,-0.08301502466201782,0.4247196912765503
1772459216766440400,0.2264404296875,0.48446935415267944,-0.14795318245887756,0.4982191324234009
1772459216776438500,0.2364384765625,0.45952749252319336,-0.2022249400615692,0.5613024830818176
1772459216786435300,0.246435302734375,0.4156593382358551,-0.22905442118644714,0.617346465587616
1772459216796432400,0.256432373046875,0.37289509177207947,-0.24059922993183136,0.6508926749229431
1772459216806429400,0.266429443359375,0.3384712040424347,-0.2227296084165573,0.6540960073471069
1772459216816426500,0.276426513671875,0.30658864974975586,-0.20721030235290527,0.6116278767585754
1772459216826423300,0.28642333984375,0.28144845366477966,-0.22592686116695404,0.5118280053138733
1772459216836421400,0.29642138671875,0.26575127243995667,-0.24257855117321014,0.35680243372917175
1772459216846418400,0.30641845703125,0.2574479579925537,-0.21345409750938416,0.20056110620498657
1772459216856415500,0.31641552734375,0.24613113701343536,-0.13307270407676697,0.0529484786093235
1772459216866412300,0.326412353515625,0.2401057779788971,-0.02742488868534565,-0.07374690473079681
1772459216876409600,0.33640966796875,0.22664989531040192,0.09845767915248871,-0.18005576729774475
1772459216886406400,0.346406494140625,0.20349866151809692,0.23670847713947296,-0.2499123513698578
1772459216896403500,0.356403564453125,0.18479208648204803,0.35842612385749817,-0.2762853503227234
1772459216906401300,0.3664013671875,0.1645192950963974,0.43127503991127014,-0.26865941286087036
1772459216916398600,0.376398681640625,0.14046749472618103,0.4416416585445404,-0.24730990827083588
1772459216926395400,0.3863955078125,0.11819804459810257,0.4097566604614258,-0.22206474840641022
1772459216936392400,0.396392333984375,0.0901256650686264,0.364054411649704,-0.19956262409687042
1772459216946389500,0.406389404296875,0.05582110211253166,0.3240406811237335,-0.19112282991409302
1772459216956386300,0.41638623046875,0.011296777054667473,0.23852258920669556,-0.21511977910995483
1772459216966384400,0.42638427734375,-0.0398990660905838,0.09085816144943237,-0.30133742094039917
1772459216976381400,0.43638134765625,-0.07292333245277405,-0.09565766155719757,-0.43316203355789185
1772459216986378500,0.44637841796875,-0.07198036462068558,-0.2846163511276245,-0.6103165745735168
1772459216996375300,0.456375244140625,-0.060543421655893326,-0.4112429916858673,-0.8320082426071167
1772459217006372400,0.466372314453125,-0.03400898724794388,-0.4816301465034485,-1.0471065044403076
1772459217016369400,0.476369384765625,-0.008985394611954689,-0.5259220004081726,-1.234438419342041
1772459217026366500,0.486366455078125,0.008171516470611095,-0.6103443503379822,-1.4183776378631592
1772459217036364300,0.4963642578125,0.04692903161048889,-0.7281902432441711,-1.6239885091781616
1772459217046361300,0.506361328125,0.13510993123054504,-0.7415664196014404,-1.7982690334320068
1772459217056358400,0.5163583984375,0.0900694951415062,-0.5318083763122559,-1.8688327074050903
1772459217066355500,0.52635546875,-0.1465887725353241,-0.3395594656467438,-1.848517894744873
1772459217076352300,0.536352294921875,-0.45270103216171265,-0.22437454760074615,-1.7947436571121216
1772459217086349600,0.546349609375,-0.7005212903022766,-0.15250718593597412,-1.681777834892273
1772459217096347400,0.556347412109375,-0.8600504994392395,-0.17156262695789337,-1.494146704673767
1772459217106344400,0.566344482421875,-0.9373943209648132,-0.3696178197860718,-1.2813959121704102
1772459217116341200,0.57634130859375,-0.9459907412528992,-0.5700883269309998,-1.0303183794021606
1772459217126338600,0.586338623046875,-0.8356485962867737,-0.49215659499168396,-0.7563663125038147
1772459217136335400,0.59633544921875,-0.5738513469696045,-0.3986455798149109,-0.5408076643943787
1772459217146332400,0.60633251953125,-0.22718475759029388,-0.2571203410625458,-0.5194119811058044
1772459217156329500,0.61632958984375,-0.007476631551980972,-0.2418852150440216,-0.4963732361793518
1772459217166327600,0.62632763671875,0.048912469297647476,-0.23978616297245026,-0.4318878948688507
1772459217176324400,0.636324462890625,0.023454777896404266,-0.24336092174053192,-0.3262650668621063
1772459217186321400,0.6463212890625,0.02189970575273037,-0.22527793049812317,-0.1720203161239624
1772459217196318500,0.656318359375,0.09791138023138046,-0.1216074600815773,0.00005638576112687588
1772459217206315500,0.6663154296875,0.19554829597473145,-0.018165133893489838,0.1444944590330124
1772459217216312300,0.676312255859375,0.2507777214050293,0.06392388045787811,0.23655861616134644
1772459217226310400,0.686310302734375,0.23965950310230255,0.14581166207790375,0.27525559067726135
1772459217236307500,0.696307373046875,0.1829858422279358,0.22556747496128082,0.2813987135887146
1772459217246304500,0.706304443359375,0.10372267663478851,0.27816241979599,0.2697097659111023
1772459217256301300,0.71630126953125,0.022684020921587944,0.3039833605289459,0.268688440322876
1772459217266298600,0.726298583984375,-0.06143467128276825,0.2869565188884735,0.2626127600669861
1772459217276295400,0.73629541015625,-0.1431676298379898,0.2152453064918518,0.24506306648254395
1772459217286292500,0.74629248046875,-0.2009211629629135,0.12956495583057404,0.23414179682731628
1772459217296290300,0.756290283203125,-0.2257697880268097,0.05710488185286522,0.2614527940750122
1772459217306287600,0.76628759765625,-0.23747925460338593,0.011541958898305893,0.29949337244033813
1772459217316284400,0.776284423828125,-0.24052803218364716,-0.03468891978263855,0.3467373251914978
1772459217326281500,0.786281494140625,-0.23179398477077484,-0.07165125012397766,0.40101414918899536
1772459217336278500,0.796278564453125,-0.2337934970855713,-0.08915568143129349,0.4462149143218994
1772459217346275300,0.806275390625,-0.2591261565685272,-0.105782650411129,0.5029534101486206
1772459217356273400,0.8162734375,-0.2941017150878906,-0.11488240212202072,0.5630223155021667
1772459217366270500,0.8262705078125,-0.30514630675315857,-0.1258111596107483,0.6233006119728088
1772459217376267500,0.836267578125,-0.2809925079345703,-0.1542513072490692,0.6662461757659912
1772459217386264300,0.846264404296875,-0.22924664616584778,-0.2067641317844391,0.7114949226379395
1772459217396261400,0.856261474609375,-0.1913304179906845,-0.2673521339893341,0.7687978744506836
1772459217406258400,0.866258544921875,-0.17695733904838562,-0.30533573031425476,0.8489046692848206
1772459217416256500,0.876256591796875,-0.18361373245716095,-0.338515967130661,0.8991942405700684
1772459217426253300,0.88625341796875,-0.19181020557880402,-0.36558669805526733,0.9105472564697266
1772459217436250400,0.89625048828125,-0.19655010104179382,-0.3742923140525818,0.877707302570343
1772459217446247400,0.906247314453125,-0.19962738454341888,-0.3459831774234772,0.82728111743927
1772459217456244500,0.916244384765625,-0.19438202679157257,-0.2815788686275482,0.7691859006881714
1772459217466241300,0.9262412109375,-0.19053196907043457,-0.2259702980518341,0.6951730251312256
1772459217476238600,0.936238525390625,-0.18528367578983307,-0.20673827826976776,0.613843560218811
1772459217486236400,0.946236328125,-0.18018434941768646,-0.2119179368019104,0.5461101531982422
1772459217496233500,0.9562333984375,-0.16067296266555786,-0.2233399748802185,0.46884945034980774
1772459217506230300,0.966230224609375,-0.13945412635803223,-0.23649010062217712,0.3802128732204437
1772459217516231200,0.976231201171875,-0.11033564805984497,-0.19503825902938843,0.3061719536781311
1772459217526228000,0.98622802734375,-0.0719633549451828,-0.10705581307411194,0.24858440458774567
1772459217536225000,0.99622509765625,-0.04007652774453163,-0.05199708789587021,0.18418917059898376
1772459217546223000,1.00622314453125,-0.03179657459259033,-0.06759041547775269,0.1154688224196434
1772459217556220200,1.01622021484375,-0.03351457789540291,-0.13732236623764038,0.05077850818634033
1772459217566217000,1.026217041015625,-0.041075967252254486,-0.188562273979187,0.005082728341221809
1772459217576214000,1.036214111328125,-0.03843171149492264,-0.15512149035930634,0.007948555983603
1772459217586211000,1.046211181640625,-0.03224003314971924,-0.08989597111940384,0.030563002452254295
1772459217596208000,1.0562080078125,-0.02352270670235157,-0.03484203293919563,0.04774864763021469
1772459217606205000,1.066204833984375,-0.00839710421860218,-0.0105002885684371,0.04288474842905998
1772459217616203000,1.076203125,0.03233062103390694,-0.0016322290757670999,0.018284330144524574
1772459217626200000,1.086199951171875,0.08252464979887009,-0.008594144135713577,-0.021016964688897133
1772459217636197000,1.096197021484375,0.14849886298179626,0.03038175217807293,-0.04890558868646622
1772459217646194000,1.10619384765625,0.212872713804245,0.08150015026330948,-0.05948173627257347
1772459217656191200,1.116191162109375,0.25859811902046204,0.08493402600288391,-0.06928537040948868
1772459217666188000,1.12618798828125,0.29226648807525635,0.05026160553097725,-0.07501540333032608
1772459217676186000,1.13618603515625,0.31397923827171326,0.012572817504405975,-0.07168591767549515
1772459217686183000,1.146182861328125,0.3245883285999298,-0.02447519078850746,-0.05929872766137123
1772459217696180200,1.15618017578125,0.3261880874633789,-0.05612073093652725,-0.05557296425104141
1772459217706177000,1.166177001953125,0.3401380181312561,-0.1009100154042244,-0.04614071547985077
1772459217716174000,1.176174072265625,0.35463014245033264,-0.1443336457014084,-0.03851715102791786
1772459217726171100,1.186171142578125,0.3708171248435974,-0.17196911573410034,-0.01668405532836914
1772459217736168200,1.196168212890625,0.38087719678878784,-0.20117440819740295,0.012815779075026512
1772459217746166000,1.206166015625,0.4001529812812805,-0.2531917095184326,0.043220460414886475
1772459217756163000,1.2161630859375,0.423765629529953,-0.3058091104030609,0.04079831391572952
1772459217766160100,1.22616015625,0.43984338641166687,-0.38774874806404114,0.017528006806969643
1772459217776157200,1.2361572265625,0.45190295577049255,-0.4623121917247772,-0.007251642178744078
1772459217786154000,1.246154052734375,0.444764107465744,-0.5110755562782288,-0.03410754352807999
1772459217796151000,1.256151123046875,0.4131651520729065,-0.5286327004432678,-0.063789002597332
1772459217806149000,1.266149169921875,0.367238312959671,-0.5160605311393738,-0.09485851228237152
1772459217816146200,1.276146240234375,0.31042587757110596,-0.49814727902412415,-0.1321805864572525
1772459217826143000,1.28614306640625,0.2371605783700943,-0.4882220923900604,-0.17450827360153198
1772459217836140000,1.29614013671875,0.16548532247543335,-0.4976813495159149,-0.22921733558177948
1772459217846137000,1.30613720703125,0.09463617950677872,-0.5118790864944458,-0.2898041307926178
1772459217856134100,1.316134033203125,0.03038235940039158,-0.5025340914726257,-0.3510262072086334
1772459217866132000,1.326132080078125,-0.009734611958265305,-0.4576999247074127,-0.3920465111732483
1772459217876129000,1.33612890625,-0.04363958165049553,-0.39992424845695496,-0.42496874928474426
1772459217886126000,1.3461259765625,-0.07386378198862076,-0.3482913374900818,-0.44124677777290344
1772459217896123100,1.356123046875,-0.0905599370598793,-0.2929772138595581,-0.43503814935684204
1772459217906120000,1.366119873046875,-0.1083512008190155,-0.2466019243001938,-0.40870994329452515
1772459217916117000,1.376116943359375,-0.12372563034296036,-0.23738446831703186,-0.36685144901275635
1772459217926114000,1.386114013671875,-0.17581859230995178,-0.2117864191532135,-0.243611142039299
1772459217936112000,1.396112060546875,-0.30127742886543274,-0.19141510128974915,-0.050500281155109406
1772459217946109200,1.406109130859375,-0.3234823942184448,-0.24325482547283173,0.06305134296417236
1772459217956106000,1.41610595703125,-0.3552568256855011,-0.3253113627433777,0.11412756890058517
1772459217966103000,1.42610302734375,-0.38910922408103943,-0.37437933683395386,0.17260190844535828
1772459217976099800,1.436099853515625,-0.3995027244091034,-0.38142526149749756,0.20287033915519714
1772459217986097200,1.44609716796875,-0.39944255352020264,-0.3856196999549866,0.19812554121017456
1772459217996095000,1.456094970703125,-0.39649683237075806,-0.35443300008773804,0.17098873853683472
1772459218006092000,1.466092041015625,-0.3764435052871704,-0.30682358145713806,0.11314305663108826
1772459218016089000,1.476089111328125,-0.3419608771800995,-0.2973911762237549,0.0397934764623642
1772459218026086100,1.486086181640625,-0.3114587664604187,-0.2691042125225067,0.006936036050319672
1772459218036083000,1.4960830078125,-0.3055422902107239,-0.22338013350963593,-0.03891827166080475
1772459218046080000,1.506080078125,-0.2745124399662018,-0.19156190752983093,-0.110532745718956
1772459218056077000,1.5160771484375,-0.22468258440494537,-0.16134728491306305,-0.21060022711753845
1772459218066075100,1.5260751953125,-0.16741539537906647,-0.15116557478904724,-0.3219328224658966
1772459218076072000,1.536072021484375,-0.12885361909866333,-0.17447996139526367,-0.4466262757778168
1772459218086069000,1.546069091796875,-0.10455538332462311,-0.21841828525066376,-0.5745217204093933
1772459218096066000,1.556066162109375,-0.09295199066400528,-0.2593849003314972,-0.7125192880630493
1772459218106063000,1.56606298828125,-0.07371192425489426,-0.27209556102752686,-0.8122527599334717
1772459218116060000,1.576059814453125,-0.04545418918132782,-0.23773227632045746,-0.8109781742095947
1772459218126058000,1.58605810546875,-0.03630366921424866,-0.07036806643009186,-0.6816643476486206
1772459218136055000,1.596054931640625,-0.09943949431180954,-0.1305810660123825,-0.49411553144454956
1772459218146052000,1.606052001953125,-0.2538314461708069,-0.1910208761692047,-0.33309677243232727
1772459218156049000,1.616048828125,-0.30587494373321533,-0.2397812306880951,-0.1396796554327011
1772459218166046200,1.626046142578125,-0.3383474349975586,-0.3621719777584076,0.003905275836586952
1772459218176043000,1.63604296875,-0.3697455823421478,-0.46005675196647644,0.1337120085954666
1772459218186041000,1.646041015625,-0.36888039112091064,-0.4295867681503296,0.2114107757806778
1772459218196038000,1.656037841796875,-0.3586932420730591,-0.4167170524597168,0.21451760828495026
1772459218206035200,1.66603515625,-0.36759501695632935,-0.4063228666782379,0.1644718199968338
1772459218216032000,1.676031982421875,-0.35394152998924255,-0.38747942447662354,0.07326626032590866
1772459218226029000,1.686029052734375,-0.3345045745372772,-0.3483545184135437,-0.040372468531131744
1772459218236026000,1.696026123046875,-0.32262128591537476,-0.27475300431251526,-0.13988946378231049
1772459218246023200,1.706023193359375,-0.3181346356868744,-0.1922183334827423,-0.20931002497673035
1772459218256021000,1.71602099609375,-0.3153849244117737,-0.13280612230300903,-0.25124603509902954
1772459218266018000,1.72601806640625,-0.3191930949687958,-0.10044395178556442,-0.2740837335586548
1772459218276015000,1.73601513671875,-0.3293032646179199,-0.1019398495554924,-0.28956523537635803
1772459218286012200,1.74601220703125,-0.32151782512664795,-0.0937054455280304,-0.2910011112689972
1772459218296009000,1.756009033203125,-0.3224067986011505,-0.09722348302602768,-0.2779870331287384
1772459218306006000,1.766006103515625,-0.3344633877277374,-0.1052103042602539,-0.2611546516418457
1772459218316004000,1.776004150390625,-0.3345116078853607,-0.10824631154537201,-0.23490041494369507
1772459218326001200,1.786001220703125,-0.34087324142456055,-0.09269972145557404,-0.2069249153137207
1772459218335998000,1.795998046875,-0.34060800075531006,-0.0709156021475792,-0.17494168877601624
1772459218345995000,1.8059951171875,-0.3340502977371216,-0.05141593515872955,-0.14142058789730072
1772459218355992000,1.815991943359375,-0.3186415135860443,-0.038844216614961624,-0.10147318989038467
1772459218365988900,1.82598876953125,-0.29752129316329956,-0.011934462934732437,-0.06793887168169022
1772459218375986200,1.835986083984375,-0.269880086183548,0.009978825226426125,-0.046506017446517944
1772459218385984000,1.84598388671875,-0.23846440017223358,0.034798119217157364,-0.018181849271059036
1772459218395981000,1.85598095703125,-0.20169998705387115,0.06522341072559357,-0.001333359512500465
1772459218405977900,1.865977783203125,-0.1654559075832367,0.07633789628744125,0.013116716407239437
1772459218415975200,1.87597509765625,-0.13145986199378967,0.08347596973180771,0.019036391749978065
1772459218425972000,1.885971923828125,-0.10852467268705368,0.10096970945596695,0.012635729275643826
1772459218435969000,1.895968994140625,-0.08021420985460281,0.0934489443898201,-0.008171814493834972
1772459218445966800,1.905966796875,-0.05067235976457596,0.08952488005161285,-0.02517165057361126
1772459218455964200,1.915964111328125,-0.007267097942531109,0.0828496664762497,-0.041203614324331284
1772459218465961000,1.9259609375,0.025433089584112167,0.08647425472736359,-0.05025581642985344
1772459218475958000,1.9359580078125,0.04351542145013809,0.07488498091697693,-0.05307796970009804
1772459218485955000,1.945955078125,0.04473744332790375,0.039454102516174316,-0.04780913144350052
1772459218495952100,1.9559521484375,0.051398009061813354,-0.00044857466127723455,-0.03294283151626587
1772459218505950000,1.965949951171875,0.057049863040447235,-0.00743182934820652,0.006284643430262804
1772459218515944200,1.975944091796875,0.08247026801109314,-0.0011768632102757692,0.04920654371380806
1772459218525941200,1.985941162109375,0.10534326732158661,-0.000020072096958756447,0.06711505353450775
1772459218535938300,1.995938232421875,0.12086363881826401,0.002935770433396101,0.06709827482700348
1772459218545935400,2.005935302734375,0.1304795891046524,0.005994932726025581,0.057231929153203964
1772459218555932200,2.01593212890625,0.1452537477016449,0.0033970188815146685,0.0494949147105217
1772459218565929500,2.025929443359375,0.16642819344997406,0.006124905776232481,0.03286973759531975
1772459218575927300,2.03592724609375,0.18377576768398285,0.0022947476245462894,0.006881012115627527
1772459218585924400,2.04592431640625,0.19380751252174377,-0.005040055140852928,-0.021353796124458313
1772459218595921200,2.055921142578125,0.20406201481819153,-0.008362614549696445,-0.04638990759849548
1772459218605918500,2.06591845703125,0.21103115379810333,-0.011246904730796814,-0.060702960938215256
1772459218615915300,2.075915283203125,0.21372468769550323,-0.015217944048345089,-0.05897936597466469
1772459218625912300,2.085912353515625,0.21705928444862366,-0.012181080877780914,-0.04471651092171669
1772459218635910400,2.095910400390625,0.22776678204536438,-0.01552574522793293,-0.034998636692762375
1772459218645907500,2.105907470703125,0.23876136541366577,-0.020183026790618896,-0.019625645130872726
1772459218655904300,2.115904296875,0.24942465126514435,-0.010683262720704079,0.005553478375077248
1772459218665901300,2.1259013671875,0.25169044733047485,-0.003932532854378223,0.03553009778261185
1772459218675898400,2.1358984375,0.25223854184150696,-0.0030920393764972687,0.04687356576323509
1772459218685895400,2.1458955078125,0.264992892742157,-0.014162135310471058,0.04591888561844826
1772459218695892200,2.155892333984375,0.27161189913749695,-0.02340836450457573,0.03924926742911339
1772459218705890300,2.165890380859375,0.2841778099536896,-0.02061331458389759,0.036443375051021576
1772459218715887400,2.175887451171875,0.29591435194015503,-0.00765410577878356,0.04133081063628197
1772459218725884400,2.185884521484375,0.2956182658672333,0.012826168909668922,0.0644083246588707
1772459218735881200,2.195881103515625,0.2816840708255768,0.03790249302983284,0.09296593815088272
1772459218745878500,2.20587841796875,0.25238192081451416,0.051095250993967056,0.12950889766216278
1772459218755875300,2.215875244140625,0.21314556896686554,0.06428908556699753,0.16546928882598877
1772459218765873400,2.225873291015625,0.1803000569343567,0.07987253367900848,0.18546748161315918
1772459218775870200,2.2358701171875,0.16213862597942352,0.0755707249045372,0.18587255477905273
1772459218785867500,2.245867431640625,0.1466606706380844,0.06351165473461151,0.1681826412677765
1772459218795864300,2.2558642578125,0.1257556676864624,0.06513937562704086,0.13511310517787933
1772459218805861000,2.265861083984375,0.09542766213417053,0.059707026928663254,0.08720079809427261
1772459218815858400,2.2758583984375,0.06886529922485352,0.06356301158666611,0.04500247538089752
1772459218825856500,2.2858564453125,0.05689633637666702,0.07733610272407532,0.01722080446779728
1772459218835853300,2.295853271484375,0.055773813277482986,0.0987015813589096,0.003960127476602793
1772459218845850400,2.305850341796875,0.05026038736104965,0.12349813431501389,-0.0036426051519811153
1772459218855847400,2.315847412109375,0.05283965915441513,0.16082417964935303,-0.014490192756056786
1772459218865844200,2.32584423828125,0.04303954169154167,0.21413078904151917,-0.03076798841357231
1772459218875841300,2.33584130859375,0.03881337121129036,0.27641361951828003,-0.046965599060058594
1772459218885839400,2.34583935546875,0.025563759729266167,0.3388789892196655,-0.05797276645898819
1772459218895836400,2.35583642578125,0.015927378088235855,0.382998526096344,-0.06088386848568916
1772459218905833200,2.365833251953125,0.005650772713124752,0.420962929725647,-0.056562889367341995
1772459218915830300,2.375830322265625,-0.0036825411953032017,0.44064876437187195,-0.05605049803853035
1772459218925827300,2.385827392578125,-0.0123396385461092,0.45461395382881165,-0.05400073900818825
1772459218935824400,2.395824462890625,-0.009897518903017044,0.4811193346977234,-0.05649532005190849
1772459218945822200,2.405822265625,-0.008427780121564865,0.5107666254043579,-0.04278753325343132
1772459218955819300,2.4158193359375,-0.01825697533786297,0.5374554991722107,-0.00927245058119297
1772459218965816300,2.42581640625,-0.026017941534519196,0.5455077886581421,0.05411755293607712
1772459218975813400,2.4358134765625,0.01985980197787285,0.6668355464935303,0.04523271322250366
1772459218985810200,2.44581005859375,0.031528882682323456,0.7164352536201477,0.03471171483397484
1772459218995807500,2.455807373046875,0.018898308277130127,0.7084196209907532,0.014820295386016369
1772459219005804300,2.46580419921875,0.00715795811265707,0.6363239884376526,-0.02462572604417801
1772459219015802400,2.47580224609375,0.02505706436932087,0.5485539436340332,-0.08117422461509705
1772459219025799200,2.485799072265625,0.06514547020196915,0.46543341875076294,-0.14160378277301788
1772459219035796500,2.49579638671875,0.1204417496919632,0.47090834379196167,-0.21271763741970062
1772459219045793300,2.505793212890625,0.18506962060928345,0.48823705315589905,-0.2911193370819092
1772459219055790300,2.515790283203125,0.23559750616550446,0.5358200073242188,-0.3673965334892273
1772459219065787400,2.525787353515625,0.2773096561431885,0.5424879193305969,-0.43196773529052734
1772459219075785500,2.535785400390625,0.2981667220592499,0.5340653657913208,-0.4552837312221527
1772459219085782300,2.5457822265625,0.2844431698322296,0.503555178642273,-0.44822219014167786
1772459219095779300,2.555779296875,0.23915478587150574,0.46252891421318054,-0.4047066867351532
1772459219105776400,2.5657763671875,0.17551718652248383,0.4049403667449951,-0.33522313833236694
1772459219115773400,2.5757734375,0.10697060823440552,0.3369802236557007,-0.2478136569261551
1772459219125770200,2.585770263671875,0.047390054911375046,0.24138927459716797,-0.14912566542625427
1772459219135768300,2.595768310546875,-0.010601076297461987,0.12375637888908386,-0.05262203514575958
1772459219145765400,2.605765380859375,-0.06998322904109955,0.02029404602944851,0.05196329951286316
1772459219155762400,2.615762451171875,-0.13229666650295258,-0.06639903038740158,0.15323452651500702
1772459219165759200,2.62575927734375,-0.19724076986312866,-0.13548383116722107,0.24035903811454773
1772459219175756500,2.635756591796875,-0.24721339344978333,-0.16749103367328644,0.3096238672733307
1772459219185753300,2.64575341796875,-0.2846798896789551,-0.17241451144218445,0.355560839176178
1772459219195751400,2.65575146484375,-0.31288090348243713,-0.16040340065956116,0.36426058411598206
1772459219205748200,2.665748291015625,-0.33234235644340515,-0.13653618097305298,0.34628862142562866
1772459219215745500,2.67574560546875,-0.3420863449573517,-0.09440471231937408,0.3134923279285431
1772459219225742300,2.685742431640625,-0.3370002806186676,-0.03444526344537735,0.2642306089401245
1772459219235739400,2.695739501953125,-0.3276304602622986,0.015226149931550026,0.19594024121761322
1772459219245736400,2.705736328125,-0.31847330927848816,0.0301786158233881,0.10425499081611633
1772459219255733200,2.715733154296875,-0.30480116605758667,0.018724359571933746,0.00537475012242794
1772459219265731300,2.7257314453125,-0.2864534258842468,0.02359013259410858,-0.07414688915014267
1772459219275728400,2.735728271484375,-0.271388977766037,0.03843006491661072,-0.13458305597305298
1772459219285725400,2.745725341796875,-0.25790897011756897,0.06419070810079575,-0.17716653645038605
1772459219295722200,2.75572216796875,-0.24340778589248657,0.10246992111206055,-0.2037225216627121
1772459219305719300,2.76571923828125,-0.22288940846920013,0.13920189440250397,-0.22523336112499237
1772459219315716400,2.77571630859375,-0.2075221687555313,0.1592283397912979,-0.24662041664123535
1772459219325714400,2.78571435546875,-0.18715006113052368,0.17577248811721802,-0.2604638934135437
1772459219335711200,2.795711181640625,-0.15331965684890747,0.21580937504768372,-0.24473100900650024
1772459219345708300,2.805708251953125,-0.11775927990674973,0.2581966817378998,-0.20802763104438782
1772459219355705300,2.815705322265625,-0.09260465949773788,0.27602842450141907,-0.17580364644527435
1772459219365702400,2.825702392578125,-0.08527776598930359,0.28569790720939636,-0.14657887816429138
1772459219375699200,2.83569921875,-0.08311447501182556,0.27594274282455444,-0.12257421016693115
1772459219385697300,2.845697265625,-0.09431668370962143,0.2317388355731964,-0.11298095434904099
1772459219395694300,2.8556943359375,-0.11093108355998993,0.16498537361621857,-0.109738290309906
1772459219405691400,2.86569140625,-0.13128159940242767,0.09752245992422104,-0.10665261000394821
1772459219415688200,2.875688232421875,-0.15347851812839508,0.03655790910124779,-0.10407573729753494
1772459219425685500,2.885685546875,-0.17179743945598602,-0.007250766735523939,-0.10578200966119766
1772459219435682300,2.895682373046875,-0.18537503480911255,-0.05288562923669815,-0.11127051711082458
1772459219445680400,2.905680419921875,-0.19914859533309937,-0.08914823085069656,-0.11571808904409409
1772459219455677200,2.91567724609375,-0.20743875205516815,-0.10539963841438293,-0.12745730578899384
1772459219465674500,2.925674560546875,-0.20340503752231598,-0.11298397183418274,-0.1387350708246231
1772459219475671300,2.93567138671875,-0.18087682127952576,-0.12268586456775665,-0.16704075038433075
1772459219485668400,2.94566845703125,-0.1522090584039688,-0.12744717299938202,-0.19896051287651062
1772459219495665400,2.95566552734375,-0.11375060677528381,-0.13168852031230927,-0.22737032175064087
1772459219505663500,2.96566357421875,-0.0774945318698883,-0.12678749859333038,-0.24147161841392517
1772459219515659500,2.975659423828125,-0.04106541723012924,-0.11786910146474838,-0.2490517646074295
1772459219525656600,2.985656494140625,-0.009863066487014294,-0.12286195904016495,-0.2589091658592224
1772459219535653600,2.995653564453125,0.008373994380235672,-0.1517849564552307,-0.28549233078956604
1772459219545650700,3.005650634765625,0.02615359239280224,-0.1727939397096634,-0.3133355677127838
1772459219555647500,3.0156474609375,0.04231498762965202,-0.1838604360818863,-0.33587417006492615
1772459219565644500,3.02564453125,0.05424558371305466,-0.20301276445388794,-0.35519248247146606
1772459219575642600,3.035642578125,0.054057829082012177,-0.22910988330841064,-0.37780722975730896
1772459219585639700,3.0456396484375,0.05042124539613724,-0.24379487335681915,-0.398824542760849
1772459219595636500,3.055636474609375,0.04690427705645561,-0.2540126144886017,-0.42432111501693726
1772459219605633500,3.065633544921875,0.05332040786743164,-0.24828720092773438,-0.4380848705768585
1772459219615630600,3.075630615234375,0.0640052780508995,-0.22680214047431946,-0.43792322278022766
1772459219625627400,3.08562744140625,0.07896767556667328,-0.1963687241077423,-0.4441719949245453
1772459219635625700,3.095625732421875,0.09800634533166885,-0.17543628811836243,-0.4500653147697449
1772459219645622500,3.10562255859375,0.12630927562713623,-0.1495056003332138,-0.46246030926704407
1772459219655619600,3.11561962890625,0.1614677906036377,-0.12368625402450562,-0.4687342047691345
1772459219665616600,3.12561669921875,0.19997873902320862,-0.100560761988163,-0.4770016074180603
1772459219675613700,3.13561376953125,0.24444739520549774,-0.08189307153224945,-0.4813804030418396
1772459219685610500,3.145610595703125,0.30994534492492676,-0.046103011816740036,-0.4721880555152893
1772459219695608600,3.155608642578125,0.37943094968795776,0.010170914232730865,-0.43818479776382446
1772459219705605600,3.165605712890625,0.43824678659439087,0.07174316793680191,-0.38630086183547974
1772459219715602700,3.175602783203125,0.4792008697986603,0.11950775980949402,-0.32706311345100403
1772459219725599500,3.185599609375,0.5232325792312622,0.1330064982175827,-0.2627941071987152
1772459219735596500,3.195596435546875,0.5693140625953674,0.11486663669347763,-0.19842523336410522
1772459219745593600,3.205593505859375,0.5998435020446777,0.07302843779325485,-0.1431744545698166
1772459219755591700,3.215591796875,0.6149761080741882,0.020323151722550392,-0.1055072471499443
1772459219765588500,3.22558837890625,0.6152865290641785,-0.05413801968097687,-0.08429529517889023
1772459219775585500,3.23558544921875,0.6027763485908508,-0.15870784223079681,-0.07665042579174042
1772459219785582600,3.24558251953125,0.5799214839935303,-0.26806360483169556,-0.08366092294454575
1772459219795579600,3.25557958984375,0.5514723062515259,-0.369196355342865,-0.08943331986665726
1772459219805576400,3.265576416015625,0.5142033100128174,-0.44507884979248047,-0.09069325774908066
1772459219815574500,3.275574462890625,0.47507160902023315,-0.4876193702220917,-0.08641408383846283
1772459219825571600,3.285571533203125,0.44550198316574097,-0.4958149492740631,-0.07397032529115677
1772459219835568600,3.295568603515625,0.4301837384700775,-0.48340460658073425,-0.05033690482378006
1772459219845565400,3.3055654296875,0.42168477177619934,-0.4430656433105469,-0.024679427966475487
1772459219855562800,3.315562744140625,0.42503103613853455,-0.38788601756095886,0.016140704974532127
1772459219865559600,3.3255595703125,0.4256455898284912,-0.3223046064376831,0.06305638700723648
1772459219875557600,3.3355576171875,0.42869439721107483,-0.25502970814704895,0.12270639836788177
1772459219885554400,3.345554443359375,0.424002081155777,-0.20179761946201324,0.1777208298444748
1772459219895551700,3.3555517578125,0.4168075621128082,-0.16096417605876923,0.22405263781547546
1772459219905548500,3.365548583984375,0.4078685939311981,-0.12207270413637161,0.2555089592933655
1772459219915545600,3.375545654296875,0.3992018699645996,-0.09335344284772873,0.26533281803131104
1772459219925542700,3.385542724609375,0.39225172996520996,-0.08318500220775604,0.2581995129585266
1772459219935540700,3.395540771484375,0.37754949927330017,-0.0677810087800026,0.23316341638565063
1772459219945537500,3.40553759765625,0.35468998551368713,-0.044799163937568665,0.20387853682041168
1772459219955534600,3.41553466796875,0.3183343708515167,-0.00980735756456852,0.16623848676681519
1772459219965531600,3.42553173828125,0.2658778131008148,0.007745004259049892,0.11546772718429565
1772459219975528700,3.43552880859375,0.20528972148895264,0.004165764898061752,0.051891304552555084
1772459219985525500,3.445525390625,0.15263912081718445,-0.00009422143921256065,-0.009355541318655014
1772459219995523600,3.455523681640625,0.1048167496919632,0.02035672590136528,-0.0522335022687912
1772459220005520600,3.465520751953125,0.06626059859991074,0.05015993490815163,-0.07435302436351776
1772459220015517700,3.475517578125,0.03241129219532013,0.06021709740161896,-0.08732102066278458
1772459220025514500,3.485514404296875,0.01598237454891205,0.03135741129517555,-0.10366209596395493
1772459220035511600,3.495511474609375,0.006519096903502941,-0.016702793538570404,-0.12168237566947937
1772459220045508600,3.505508544921875,-0.0010620281100273132,-0.05793560668826103,-0.1263967603445053
1772459220055506700,3.515506591796875,-0.010444078594446182,-0.07871518284082413,-0.11977827548980713
1772459220065503500,3.52550341796875,-0.02781374752521515,-0.11324972659349442,-0.10969049483537674
1772459220075500500,3.53550048828125,-0.0441298708319664,-0.16297627985477448,-0.1005403995513916
1772459220085497600,3.54549755859375,-0.04797084257006645,-0.18452735245227814,-0.07203630357980728
1772459220095494400,3.555494384765625,-0.018429193645715714,-0.20367388427257538,-0.013116002082824707
1772459220105491700,3.56549169921875,0.003885640762746334,-0.24579182267189026,0.05423371493816376
1772459220115489500,3.575489501953125,0.009435934945940971,-0.3121439516544342,0.10962453484535217
1772459220125486600,3.585486572265625,-0.006398778408765793,-0.3819686770439148,0.14036521315574646
1772459220135483400,3.5954833984375,-0.018492458388209343,-0.44584885239601135,0.1455455869436264
1772459220145480700,3.605480712890625,-0.024486681446433067,-0.5031792521476746,0.12766419351100922
1772459220155477500,3.6154775390625,-0.050398703664541245,-0.5696523189544678,0.06703918427228928
1772459220165474600,3.625474609375,-0.10977223515510559,-0.6201163530349731,-0.01776842586696148
1772459220175472400,3.635472412109375,-0.1805710345506668,-0.6172036528587341,-0.09493138641119003
1772459220185469700,3.6454697265625,-0.2238221913576126,-0.5516043901443481,-0.12670567631721497
1772459220195466500,3.655466552734375,-0.2158239185810089,-0.44229868054389954,-0.10140245407819748
1772459220205463600,3.665463623046875,-0.18461360037326813,-0.3302103877067566,-0.038508255034685135
1772459220215460600,3.675460693359375,-0.14908064901828766,-0.22144849598407745,0.0486985519528389
1772459220225457700,3.685457763671875,-0.11442172527313232,-0.12341886758804321,0.15643486380577087
1772459220235455500,3.69545556640625,-0.07722561806440353,-0.06408204138278961,0.27240514755249023
1772459220245452500,3.70545263671875,-0.033827975392341614,-0.007142029702663422,0.39394810795783997
1772459220255449600,3.71544970703125,0.01632733829319477,0.058779194951057434,0.529144823551178
1772459220265446700,3.72544677734375,0.0708201602101326,0.12506332993507385,0.6591183543205261
1772459220275443500,3.735443359375,0.12910503149032593,0.17744185030460358,0.7856051921844482
1772459220285440800,3.745440673828125,0.1792268007993698,0.19320617616176605,0.8845661282539368
1772459220295438600,3.7554384765625,0.2086283564567566,0.1578870564699173,0.9430046677589417
1772459220305435600,3.765435546875,0.21042072772979736,0.061341311782598495,0.9460720419883728
1772459220315432400,3.775432373046875,0.18047401309013367,-0.07452064007520676,0.8908543586730957
1772459220325429800,3.7854296875,0.1192086935043335,-0.2131190299987793,0.7839874029159546
1772459220335426600,3.795426513671875,0.03691275790333748,-0.3239094316959381,0.6477012038230896
1772459220345423600,3.805423583984375,-0.05653044953942299,-0.38976114988327026,0.48459258675575256
1772459220355421400,3.81542138671875,-0.14226746559143066,-0.3921223282814026,0.3250599205493927
1772459220365418800,3.825418701171875,-0.2073708474636078,-0.33254101872444153,0.19079998135566711
1772459220375415600,3.83541552734375,-0.2560853958129883,-0.24230432510375977,0.0736541897058487
1772459220385412600,3.84541259765625,-0.28645995259284973,-0.14715567231178284,-0.033535487949848175
1772459220395409700,3.85540966796875,-0.30079734325408936,-0.03939990699291229,-0.12921728193759918
1772459220405406700,3.86540673828125,-0.31525570154190063,0.07469020783901215,-0.1971001774072647
1772459220415404500,3.875404541015625,-0.328823447227478,0.1627873033285141,-0.25123053789138794
1772459220425401600,3.885401611328125,-0.35920414328575134,0.21919304132461548,-0.3111283779144287
1772459220435398700,3.895398681640625,-0.3949911892414093,0.2541257441043854,-0.3733137249946594
1772459220445395700,3.905395751953125,-0.4221856892108917,0.2409445196390152,-0.4332923889160156
1772459220455392500,3.915392578125,-0.44192612171173096,0.19760636985301971,-0.47738102078437805
1772459220465389600,3.9253896484375,-0.4574531614780426,0.16176825761795044,-0.49492526054382324
1772459220475387600,3.9353876953125,-0.4644322395324707,0.12156783789396286,-0.48800745606422424
1772459220485384700,3.945384765625,-0.47904008626937866,0.07524658739566803,-0.46980318427085876
1772459220495381500,3.955381591796875,-0.5020828247070312,0.028645796701312065,-0.4444115459918976
1772459220505378600,3.965378662109375,-0.5198051333427429,-0.028737228363752365,-0.41732433438301086
1772459220515375600,3.975375732421875,-0.5387082695960999,-0.0702870637178421,-0.38919201493263245
1772459220525372400,3.985372314453125,-0.560071587562561,-0.08250026404857635,-0.34436357021331787
1772459220535370500,3.99537060546875,-0.582704484462738,-0.06633833795785904,-0.2767387330532074
1772459220545367600,4.005367431640625,-0.6097992062568665,-0.03923487290740013,-0.21379172801971436
1772459220555364600,4.015364501953125,-0.6437145471572876,-0.028060518205165863,-0.16841918230056763
1772459220565361400,4.025361328125,-0.6903870701789856,-0.03340514004230499,-0.1467137336730957
1772459220575358700,4.035358642578125,-0.7428356409072876,-0.028978431597352028,-0.13430500030517578
1772459220585355500,4.04535546875,-0.7974920868873596,-0.025500308722257614,-0.12105147540569305
1772459220595353600,4.055353515625,-0.8543239235877991,-0.018397923558950424,-0.1052221804857254
1772459220605350400,4.065350341796875,-0.9099768996238708,-0.030081193894147873,-0.08821189403533936
1772459220615347700,4.07534765625,-0.963388204574585,-0.06930876523256302,-0.0793672725558281
1772459220625344500,4.085344482421875,-1.0006731748580933,-0.1269187182188034,-0.05433499440550804
1772459220635341600,4.095341552734375,-1.0130970478057861,-0.16607330739498138,-0.007498777937144041
1772459220645338600,4.105338623046875,-0.9958907961845398,-0.19518542289733887,0.05588110536336899
1772459220655336700,4.115336669921875,-0.9596763253211975,-0.22598782181739807,0.10261878371238708
1772459220665333500,4.12533349609375,-0.9119964241981506,-0.26291894912719727,0.12986931204795837
1772459220675330600,4.13533056640625,-0.8718950748443604,-0.30893436074256897,0.12411608546972275
1772459220685327600,4.14532763671875,-0.8385559916496277,-0.34179291129112244,0.10287341475486755
1772459220695324700,4.15532470703125,-0.8066710233688354,-0.3515062630176544,0.08566060662269592
1772459220705321500,4.165321533203125,-0.7682598233222961,-0.3424432873725891,0.07716402411460876
1772459220715319600,4.175319580078125,-0.7165170311927795,-0.3009698987007141,0.08272604644298553
1772459220725316600,4.185316650390625,-0.6485113501548767,-0.23988214135169983,0.08923410624265671
1772459220735313700,4.195313720703125,-0.5704719424247742,-0.1686881184577942,0.09857594221830368
1772459220745310500,4.205310546875,-0.49385643005371094,-0.10211563110351562,0.09798265248537064
1772459220755307800,4.215307861328125,-0.425674706697464,-0.05328390747308731,0.08708393573760986
1772459220765304600,4.2253046875,-0.3724924623966217,-0.02070826292037964,0.0634915828704834
1772459220775302700,4.235302734375,-0.35086894035339355,-0.01837559975683689,0.0381593257188797
1772459220785299500,4.245299560546875,-0.3479645252227783,-0.01877100206911564,0.021948574110865593
1772459220795296800,4.255296875,-0.3674125373363495,0.005498651415109634,0.02500082179903984
1772459220805293600,4.26529345703125,-0.3951394557952881,0.051963821053504944,0.05001157894730568
1772459220815290400,4.275290283203125,-0.4116419851779938,0.11250146478414536,0.07654838263988495
1772459220825287700,4.28528759765625,-0.405732125043869,0.19094370305538177,0.09883059561252594
1772459220835285800,4.29528564453125,-0.37307751178741455,0.23043811321258545,0.11804370582103729
1772459220845282600,4.305282470703125,-0.33147644996643066,0.19653932750225067,0.10984386503696442
1772459220855279400,4.315279296875,-0.3067939877510071,0.14696192741394043,0.09191306680440903
1772459220865276700,4.325276611328125,-0.28915753960609436,0.10926144570112228,0.08429430425167084
1772459220875273500,4.3352734375,-0.292102187871933,0.07004719972610474,0.08359096199274063
1772459220885271600,4.345271484375,-0.32396161556243896,0.047345951199531555,0.0773906484246254
1772459220895268600,4.3552685546875,-0.3689240515232086,0.02793630212545395,0.07373013347387314
1772459220905265700,4.365265625,-0.415020227432251,0.01665029488503933,0.06403832882642746
1772459220915262500,4.375262451171875,-0.4530978202819824,0.0011496314546093345,0.03592786192893982
1772459220925259500,4.385259521484375,-0.4794146418571472,-0.02880510315299034,-0.016291145235300064
1772459220935256600,4.395256591796875,-0.4959384799003601,-0.0644611045718193,-0.10066727548837662
1772459220945254700,4.405254638671875,-0.48852038383483887,-0.10776510834693909,-0.21940337121486664
1772459220955251500,4.41525146484375,-0.4710713326931,-0.15789885818958282,-0.34889477491378784
1772459220965248500,4.42524853515625,-0.4362964332103729,-0.18458464741706848,-0.47267404198646545
1772459220975245600,4.43524560546875,-0.3847336173057556,-0.16433477401733398,-0.5437213182449341
1772459220985242600,4.44524267578125,-0.33190396428108215,-0.0940844938158989,-0.5671549439430237
1772459220995239400,4.455239501953125,-0.2540786862373352,0.031333085149526596,-0.5235203504562378
1772459221005237500,4.465237548828125,-0.15824122726917267,0.17685623466968536,-0.4357496500015259
1772459221015234600,4.475234619140625,-0.062492065131664276,0.29968389868736267,-0.3248031735420227
1772459221025231600,4.485231689453125,0.007640021853148937,0.3828986585140228,-0.213388592004776
1772459221035228400,4.495228515625,0.05936713144183159,0.42583999037742615,-0.10303598642349243
1772459221045225700,4.505225830078125,0.11000330001115799,0.43503913283348083,0.010800561867654324
1772459221055222500,4.515222412109375,0.15317180752754211,0.3888775110244751,0.10357391089200974
1772459221065220600,4.525220703125,0.17764218151569366,0.2957058846950531,0.17531532049179077
1772459221075217400,4.535217529296875,0.17978495359420776,0.17550279200077057,0.22323916852474213
1772459221085214700,4.545214599609375,0.1750601977109909,0.03673987835645676,0.25708210468292236
1772459221095211500,4.55521142578125,0.16889764368534088,-0.10902264714241028,0.290436327457428
1772459221105208600,4.56520849609375,0.16900396347045898,-0.23818309605121613,0.3271304965019226
1772459221115205600,4.57520556640625,0.1619226187467575,-0.3536849319934845,0.35842904448509216
1772459221125203700,4.58520361328125,0.13894978165626526,-0.46210145950317383,0.3669535517692566
1772459221135200500,4.595200439453125,0.09327629208564758,-0.5710058212280273,0.33374419808387756
1772459221145197600,4.605197509765625,0.017070205882191658,-0.6498332619667053,0.26423966884613037
1772459221155194600,4.615194580078125,-0.09449600428342819,-0.7002958655357361,0.1582602560520172
1772459221165191700,4.625191650390625,-0.2253492921590805,-0.6811612844467163,0.047148678451776505
1772459221175188500,4.6351884765625,-0.3415028154850006,-0.5765076279640198,-0.03049311973154545
1772459221185186600,4.6451865234375,-0.4288344383239746,-0.4122314155101776,-0.06165016442537308
1772459221195183600,4.65518359375,-0.48096635937690735,-0.2082045078277588,-0.054717689752578735
1772459221205180700,4.6651806640625,-0.48965924978256226,-0.003605992067605257,-0.019570963457226753
1772459221215177500,4.675177490234375,-0.46022704243659973,0.1632777899503708,0.02955476939678192
1772459221225174800,4.6851748046875,-0.40268662571907043,0.2761012017726898,0.08432943373918533
1772459221235172600,4.695172607421875,-0.3338119387626648,0.3550093472003937,0.12548646330833435
1772459221245169700,4.705169677734375,-0.2713879942893982,0.4054076671600342,0.15516915917396545
1772459221255166500,4.71516650390625,-0.216274693608284,0.449735164642334,0.19975446164608002
1772459221265163800,4.725163818359375,-0.16949765384197235,0.5183836817741394,0.25922131538391113
1772459221275160600,4.73516064453125,-0.1399165838956833,0.5800750255584717,0.3271300792694092
1772459221285157400,4.745157470703125,-0.12088301032781601,0.6144837141036987,0.3650049567222595
1772459221295155500,4.755155517578125,-0.11847950518131256,0.6060140132904053,0.37590742111206055
1772459221305152800,4.76515283203125,-0.11110055446624756,0.5699902772903442,0.36233025789260864
1772459221315149600,4.775149658203125,-0.09870247542858124,0.5374038219451904,0.34566473960876465
1772459221325146600,4.785146728515625,-0.08716307580471039,0.49022382497787476,0.3163605332374573
1772459221335143700,4.795143798828125,-0.07860660552978516,0.4341970384120941,0.2720426023006439
1772459221345140500,4.805140380859375,-0.06278610229492188,0.3742135167121887,0.22260573506355286
1772459221355138600,4.815138671875,-0.047689709812402725,0.3151123821735382,0.15922516584396362
1772459221365135600,4.825135498046875,-0.04298282787203789,0.2517254948616028,0.10307912528514862
1772459221375132700,4.835132568359375,-0.042118899524211884,0.1860029399394989,0.04608215019106865
1772459221385129500,4.84512939453125,-0.04929390922188759,0.12124869972467422,-0.009266737848520279
1772459221395126500,4.85512646484375,-0.05309557169675827,0.0585714690387249,-0.056833989918231964
1772459221405123600,4.86512353515625,-0.06157543137669563,0.0060072531923651695,-0.10868776589632034
1772459221415121700,4.87512158203125,-0.06947596371173859,-0.040622830390930176,-0.15415406227111816
1772459221425118500,4.885118408203125,-0.07506085187196732,-0.08231779932975769,-0.19397136569023132
1772459221435115500,4.895115478515625,-0.08335260301828384,-0.1329716593027115,-0.23304447531700134
1772459221445112600,4.905112548828125,-0.07838389277458191,-0.182966947555542,-0.2599557340145111
1772459221455109600,4.915109619140625,-0.05481411889195442,-0.21718136966228485,-0.26872125267982483
1772459221465106400,4.9251064453125,-0.012443600222468376,-0.23580719530582428,-0.2623682916164398
1772459221475104500,4.9351044921875,0.02628382109105587,-0.24902792274951935,-0.25787338614463806
1772459221485101600,4.9451015625,0.06958171725273132,-0.24903647601604462,-0.24800743162631989
1772459221495098600,4.9550986328125,0.112494558095932,-0.23670870065689087,-0.23043537139892578
1772459221505095400,4.965095458984375,0.15251165628433228,-0.2141852229833603,-0.20391905307769775
1772459221515092700,4.9750927734375,0.19745782017707825,-0.1925068199634552,-0.17379523813724518
1772459221525090800,4.9850908203125,0.23579102754592896,-0.1693405956029892,-0.13607265055179596
1772459221535087900,4.995087890625,0.2836619019508362,-0.15338213741779327,-0.09386342018842697
1772459221545085000,5.0050849609375,0.3315525949001312,-0.1588437855243683,-0.04340001195669174
1772459221555081700,5.015081787109375,0.38485604524612427,-0.18320930004119873,0.007789937313646078
1772459221565079000,5.0250791015625,0.42490196228027344,-0.22052720189094543,0.053094532340765
1772459221575075800,5.035075927734375,0.4539378881454468,-0.2640046179294586,0.08566765487194061
1772459221585074000,5.045073974609375,0.47250258922576904,-0.30456140637397766,0.11213372647762299
1772459221595070700,5.05507080078125,0.4779396951198578,-0.33147478103637695,0.12524233758449554
1772459221605068000,5.065068115234375,0.45996513962745667,-0.35295093059539795,0.13149817287921906
1772459221615064800,5.07506494140625,0.4348430037498474,-0.36313754320144653,0.13207128643989563
1772459221625062000,5.085061767578125,0.41589561104774475,-0.35240525007247925,0.14527098834514618
1772459221635059000,5.095058837890625,0.4051676094532013,-0.3222859501838684,0.17431116104125977
1772459221645057000,5.10505712890625,0.4111315608024597,-0.2797531187534332,0.22011396288871765
1772459221655053800,5.1150537109375,0.41786885261535645,-0.2725814878940582,0.26119881868362427
1772459221665051000,5.12505078125,0.3977905511856079,-0.28181329369544983,0.2683328688144684
1772459221675048000,5.1350478515625,0.3479180634021759,-0.28834736347198486,0.22646905481815338
1772459221685045000,5.145044921875,0.2867283225059509,-0.29279276728630066,0.15025055408477783
1772459221695041800,5.155041748046875,0.2250327318906784,-0.287272572517395,0.050581492483615875
1772459221705040000,5.165039794921875,0.14983657002449036,-0.3065639138221741,-0.08256533741950989
1772459221715037000,5.175036865234375,0.052496977150440216,-0.3466751277446747,-0.2395421713590622
1772459221725034000,5.185033935546875,-0.04384493827819824,-0.3756330907344818,-0.4005858302116394
1772459221735030800,5.19503076171875,-0.11783527582883835,-0.38111361861228943,-0.5241873860359192
1772459221745028000,5.205028076171875,-0.16980600357055664,-0.3645838499069214,-0.6151590943336487
1772459221755025000,5.21502490234375,-0.2112506479024887,-0.3540465235710144,-0.682307779788971
1772459221765023000,5.22502294921875,-0.22747600078582764,-0.349725604057312,-0.7140925526618958
1772459221775019800,5.235019775390625,-0.21276496350765228,-0.32660111784935,-0.6923760771751404
1772459221785017000,5.24501708984375,-0.18550997972488403,-0.27288344502449036,-0.6265347599983215
1772459221795014000,5.255013916015625,-0.15276242792606354,-0.2032095491886139,-0.5141709446907043
1772459221805011000,5.265010986328125,-0.11998777836561203,-0.13492199778556824,-0.3746388256549835
1772459221815008800,5.2750087890625,-0.09292473644018173,-0.0680771917104721,-0.20718297362327576
1772459221825006000,5.285006103515625,-0.0823194608092308,-0.01025569811463356,-0.030554726719856262
1772459221835003000,5.2950029296875,-0.09346665441989899,0.04035688191652298,0.14527302980422974
1772459221845000000,5.305,-0.12391109764575958,0.09097234904766083,0.3055975139141083
1772459221854997000,5.3149970703125,-0.1541062742471695,0.11836748570203781,0.4335426986217499
1772459221864994000,5.324994140625,-0.19454172253608704,0.11950621008872986,0.5256714224815369
1772459221874991900,5.334991943359375,-0.24061203002929688,0.10044676810503006,0.5745960474014282
1772459221884989000,5.344989013671875,-0.2938916087150574,0.05804130807518959,0.5774568319320679
1772459221894986000,5.354986083984375,-0.3640193045139313,0.006823662668466568,0.5417590141296387
1772459221904983000,5.364983154296875,-0.44307056069374084,-0.02727336622774601,0.476989209651947
1772459221914979800,5.374979736328125,-0.5229448676109314,-0.04536741226911545,0.39389485120773315
1772459221924977000,5.384976806640625,-0.5928409099578857,-0.044382669031620026,0.2972412109375
1772459221934975000,5.39497509765625,-0.6485286951065063,-0.038359932601451874,0.20196132361888885
1772459221944972000,5.404971923828125,-0.6888934373855591,-0.025394929572939873,0.11069181561470032
1772459221954968800,5.41496875,-0.712732195854187,-0.01250256597995758,0.02653566189110279
1772459221964966000,5.4249658203125,-0.7298707365989685,-0.008592220954596996,-0.05038654804229736
1772459221974963000,5.434962890625,-0.742091715335846,-0.01676785945892334,-0.1335245817899704
1772459221984961000,5.4449609375,-0.7495114207267761,-0.026163360103964806,-0.21230587363243103
1772459221994957800,5.454957763671875,-0.7441515922546387,-0.016356004402041435,-0.2848495543003082
1772459222004955100,5.464955078125,-0.7076730728149414,0.01681520789861679,-0.33341526985168457
1772459222014952000,5.474951904296875,-0.6482595205307007,0.06890290230512619,-0.364393949508667
1772459222024948700,5.48494873046875,-0.5746545195579529,0.12854279577732086,-0.3833109438419342
1772459222034946000,5.494946044921875,-0.49055957794189453,0.19522888958454132,-0.40495818853378296
1772459222044944100,5.504944091796875,-0.3892868459224701,0.2578194737434387,-0.416864275932312
1772459222054941000,5.51494091796875,-0.2661481201648712,0.3094126284122467,-0.41785895824432373
1772459222064937700,5.524937744140625,-0.13940919935703278,0.33036333322525024,-0.4171146750450134
1772459222074935000,5.53493505859375,-0.019190924242138863,0.3403632342815399,-0.4018576741218567
1772459222084931800,5.544931884765625,0.08717277646064758,0.34885257482528687,-0.3744054138660431
1772459222094929000,5.554928955078125,0.1745375096797943,0.351644366979599,-0.34134918451309204
1772459222104926700,5.5649267578125,0.23566585779190063,0.3277881145477295,-0.3189232051372528
1772459222114924000,5.574924072265625,0.2848711907863617,0.30497628450393677,-0.29238399863243103
1772459222124920800,5.5849208984375,0.3230585753917694,0.2807883322238922,-0.25814738869667053
1772459222134918000,5.59491796875,0.3344864547252655,0.2547870874404907,-0.2272624522447586
1772459222144915000,5.6049150390625,0.32357484102249146,0.20858323574066162,-0.21629536151885986
1772459222154912000,5.614912109375,0.3020405173301697,0.16036882996559143,-0.22628247737884521
1772459222164909800,5.624909912109375,0.27244284749031067,0.1294357031583786,-0.24576336145401
1772459222174907000,5.634906982421875,0.2454301416873932,0.11208787560462952,-0.26929372549057007
1772459222184904000,5.644904052734375,0.22132807970046997,0.09459000080823898,-0.296257346868515
1772459222194901000,5.65490087890625,0.203450545668602,0.0717288926243782,-0.33366596698760986
1772459222204897800,5.664897705078125,0.2092834711074829,0.058393094688653946,-0.3654509484767914
1772459222214895900,5.674895751953125,0.23670977354049683,0.04666399955749512,-0.39268097281455994
1772459222224893000,5.684892822265625,0.2687259614467621,0.02343601919710636,-0.418733149766922
1772459222234890000,5.694889892578125,0.2923223674297333,0.008976385928690434,-0.42473962903022766
1772459222244886800,5.70488671875,0.307228684425354,-0.004894888959825039,-0.42013102769851685
1772459222254884000,5.714884033203125,0.31886589527130127,-0.006061619613319635,-0.3991927206516266
1772459222264881000,5.724880859375,0.3318476974964142,-0.0012178720207884908,-0.36278823018074036
1772459222274879000,5.73487890625,0.3449195623397827,0.02459481731057167,-0.3156838119029999
1772459222284875800,5.744875732421875,0.35864517092704773,0.056904569268226624,-0.2597711384296417
1772459222294873000,5.754873046875,0.3743056356906891,0.08594154566526413,-0.20407910645008087
1772459222304870000,5.764869873046875,0.3830782175064087,0.11044419556856155,-0.1529509723186493
1772459222314867000,5.774866943359375,0.38555389642715454,0.11885232478380203,-0.10506094992160797
1772459222324864800,5.78486474609375,0.38704821467399597,0.11898060888051987,-0.050761833786964417
1772459222334862000,5.794862060546875,0.3808196187019348,0.12369546294212341,0.004928059875965118
1772459222344859000,5.80485888671875,0.3759336471557617,0.13259099423885345,0.068023182451725
1772459222354856000,5.81485595703125,0.3602446913719177,0.13605870306491852,0.11817077547311783
1772459222364853000,5.82485302734375,0.33656951785087585,0.13675066828727722,0.14721205830574036
1772459222374850000,5.83485009765625,0.3142021596431732,0.14932957291603088,0.16323603689670563
1772459222384848000,5.844847900390625,0.2979544401168823,0.1668757051229477,0.1636268049478531
1772459222394845000,5.854844970703125,0.28540244698524475,0.19197386503219604,0.16470485925674438
1772459222404842000,5.864842041015625,0.2770583927631378,0.2301364541053772,0.16975435614585876
1772459222414839000,5.874839111328125,0.28384360671043396,0.2892405092716217,0.1831955909729004
1772459222424835800,5.8848359375,0.3067951798439026,0.3284183442592621,0.19880223274230957
1772459222434833200,5.894833251953125,0.32613080739974976,0.3212515115737915,0.19154751300811768
1772459222444831000,5.9048310546875,0.3416958451271057,0.28387805819511414,0.18692894279956818
1772459222454828000,5.914828125,0.35556265711784363,0.2280281037092209,0.1788201481103897
1772459222464824800,5.924824951171875,0.3701666295528412,0.1768759787082672,0.17760618031024933
1772459222474822100,5.934822265625,0.37320610880851746,0.12294669449329376,0.17530041933059692
1772459222484819000,5.94481884765625,0.35389265418052673,0.051716431975364685,0.15635202825069427
1772459222494815700,5.954815673828125,0.3046281635761261,-0.03833676129579544,0.1211245208978653
1772459222504815900,5.96481591796875,0.24382761120796204,-0.11547918617725372,0.08482121676206589
1772459222514813000,5.97481298828125,0.17910587787628174,-0.17167562246322632,0.05884794145822525
1772459222524810800,5.984810791015625,0.12497685849666595,-0.19732771813869476,0.05311255902051926
1772459222534807800,5.994807861328125,0.09338540583848953,-0.19384042918682098,0.07436815649271011
1772459222544804900,6.004804931640625,0.08790086209774017,-0.16351790726184845,0.11886011064052582
1772459222554802000,6.014802001953125,0.11664062738418579,-0.12032649666070938,0.18251684308052063
1772459222564799700,6.0247998046875,0.16586841642856598,-0.08273857831954956,0.24731425940990448
1772459222574796800,6.034796875,0.22830890119075775,-0.07253547012805939,0.3043282926082611
1772459222584793900,6.0447939453125,0.29799017310142517,-0.0627143383026123,0.35854634642601013
1772459222594791000,6.054791015625,0.361285537481308,-0.05516241118311882,0.3966095745563507
1772459222604787700,6.06478759765625,0.40716561675071716,-0.04367057606577873,0.4194696247577667
1772459222614785800,6.074785888671875,0.44683340191841125,-0.019460048526525497,0.43932774662971497
1772459222624782800,6.084782958984375,0.4842682182788849,0.01347663439810276,0.45962852239608765
1772459222634780000,6.09477978515625,0.5269887447357178,0.04656082019209862,0.48447102308273315
1772459222644776700,6.104776611328125,0.5673701763153076,0.08368878811597824,0.5148698687553406
1772459222654774000,6.11477392578125,0.6070758104324341,0.12968504428863525,0.5406303405761719
1772459222664770800,6.124770751953125,0.652626097202301,0.17529146373271942,0.5806512832641602
1772459222674769000,6.134768798828125,0.700218141078949,0.2175915241241455,0.6201717853546143
1772459222684765700,6.144765625,0.7465543150901794,0.2562686502933502,0.6523278951644897
1772459222694763000,6.154762939453125,0.7876452803611755,0.27465832233428955,0.6645414233207703
1772459222704759800,6.164759765625,0.817207932472229,0.2852698564529419,0.6649453639984131
1772459222714756900,6.1747568359375,0.8348609805107117,0.26476672291755676,0.6262357831001282
1772459222724754700,6.184754638671875,0.8471188545227051,0.2320387065410614,0.5665528178215027
1772459222734752000,6.194751953125,0.8491402268409729,0.18080241978168488,0.49114328622817993
1772459222744748800,6.204748779296875,0.8440566658973694,0.13614992797374725,0.3932268023490906
1772459222754745900,6.214745849609375,0.8380062580108643,0.11853259056806564,0.30002787709236145
1772459222764743000,6.224742919921875,0.8373405933380127,0.10423190146684647,0.2113039791584015
1772459222774739700,6.23473974609375,0.838208794593811,0.08389227092266083,0.11561846733093262
1772459222784737800,6.24473779296875,0.8321747183799744,0.03777675703167915,-0.007266550790518522
1772459222794734800,6.25473486328125,0.8117660880088806,-0.0314374677836895,-0.15352202951908112
1772459222804732000,6.26473193359375,0.7641575932502747,-0.12930108606815338,-0.3328532874584198
1772459222814728700,6.274728759765625,0.6808544397354126,-0.2130228877067566,-0.5140129923820496
1772459222824725800,6.284725830078125,0.5888063907623291,-0.2600245177745819,-0.6667926907539368
1772459222834722800,6.294722900390625,0.4938199818134308,-0.2887190282344818,-0.7829040884971619
1772459222844721000,6.304720947265625,0.39662760496139526,-0.2985489070415497,-0.8672094345092773
1772459222854718000,6.314718017578125,0.3084298372268677,-0.263302743434906,-0.9133465886116028
1772459222864714800,6.32471484375,0.26125097274780273,-0.1683284491300583,-0.9086682796478271
1772459222874711800,6.3347119140625,0.2812025845050812,-0.029792938381433487,-0.8399270176887512
1772459222884708900,6.344708984375,0.3510962724685669,0.1120835691690445,-0.7282898426055908
1772459222894707000,6.35470703125,0.4487418830394745,0.2557975947856903,-0.6012868881225586
1772459222904703700,6.364703857421875,0.5627322196960449,0.37343984842300415,-0.463679701089859
1772459222914700800,6.37470068359375,0.6914097666740417,0.45744019746780396,-0.3243814706802368
1772459222924697900,6.38469775390625,0.8008005619049072,0.49328285455703735,-0.2107701450586319
1772459222934694700,6.394694580078125,0.8761390447616577,0.5023024678230286,-0.13317948579788208
1772459222944692000,6.40469189453125,0.9245942831039429,0.4904644787311554,-0.0926826074719429
1772459222954689800,6.414689697265625,0.9510498642921448,0.4598788917064667,-0.07678220421075821
1772459222964686800,6.424686767578125,0.9627742171287537,0.41610002517700195,-0.07627920806407928
1772459222974683600,6.43468359375,0.9634402990341187,0.3699761927127838,-0.08164174854755402
1772459222984681000,6.444680908203125,0.9625537395477295,0.31106260418891907,-0.08904504030942917
1772459222994677800,6.454677734375,0.9720383286476135,0.24752706289291382,-0.0959189236164093
1772459223004674800,6.4646748046875,0.985814094543457,0.19009049236774445,-0.09077593684196472
1772459223014672600,6.474672607421875,1.0075253248214722,0.13514281809329987,-0.07754801213741302
1772459223024670000,6.484669921875,1.0235595703125,0.07898538559675217,-0.06389246881008148
1772459223034666800,6.494666748046875,1.0375038385391235,0.028149370104074478,-0.0383564829826355
1772459223044663800,6.504663818359375,1.0545358657836914,-0.0111367367208004,-0.003694049082696438
1772459223054660900,6.514660888671875,1.0683132410049438,-0.04219958186149597,0.023077378049492836
1772459223064659000,6.524658935546875,1.0765700340270996,-0.05187941715121269,0.05068045109510422
1772459223074655700,6.53465576171875,1.0908664464950562,-0.05278941988945007,0.07499004900455475
1772459223084652800,6.54465283203125,1.098868489265442,-0.0533832386136055,0.0826014056801796
1772459223094649900,6.55464990234375,1.109489917755127,-0.04671122133731842,0.08183468133211136
1772459223104647000,6.56464697265625,1.1221539974212646,-0.04810844734311104,0.08157014846801758
1772459223114643700,6.574643798828125,1.1318506002426147,-0.071213498711586,0.07654529809951782
1772459223124641800,6.584641845703125,1.1431889533996582,-0.09667325764894485,0.08072516322135925
1772459223134638800,6.594638916015625,1.1559183597564697,-0.11982358247041702,0.08728878945112228
1772459223144636000,6.604635986328125,1.1703665256500244,-0.14660130441188812,0.10260946303606033
1772459223154632700,6.6146328125,1.1808351278305054,-0.1609397679567337,0.12287052720785141
1772459223164630000,6.624630126953125,1.1917976140975952,-0.15390504896640778,0.148294135928154
1772459223174627800,6.6346279296875,1.2165024280548096,-0.1255256086587906,0.19036808609962463
1772459223184625000,6.644625,1.260271668434143,-0.0810704156756401,0.24278247356414795
1772459223194621700,6.65462158203125,1.3185703754425049,-0.06124211475253105,0.29045945405960083
1772459223204619000,6.664618896484375,1.3577967882156372,-0.08877909183502197,0.3134646713733673
1772459223214615800,6.67461572265625,1.3628344535827637,-0.14671029150485992,0.3063284754753113
1772459223224612900,6.68461279296875,1.3460583686828613,-0.21576140820980072,0.27366673946380615
1772459223234610700,6.694610595703125,1.330260157585144,-0.2518374025821686,0.2521721124649048
1772459223244608000,6.70460791015625,1.3180346488952637,-0.2441192865371704,0.23252557218074799
1772459223254604800,6.714604736328125,1.3002703189849854,-0.2174554467201233,0.2177828550338745
1772459223264601900,6.724601806640625,1.2760432958602905,-0.16990993916988373,0.19880716502666473
1772459223274599000,6.734598876953125,1.2533241510391235,-0.11318620294332504,0.1871795356273651
1772459223284597000,6.744596923828125,1.234128475189209,-0.07618176192045212,0.1682654470205307
1772459223294593800,6.75459375,1.228347897529602,-0.055336400866508484,0.1380891650915146
1772459223304590800,6.7645908203125,1.2314982414245605,-0.06603560596704483,0.08914051204919815
1772459223314588000,6.774587890625,1.2475030422210693,-0.08807486295700073,0.03709409013390541
1772459223324585000,6.7845849609375,1.271635890007019,-0.10017627477645874,-0.009516235440969467
1772459223334581800,6.794581787109375,1.2914239168167114,-0.10558301955461502,-0.0409439355134964
1772459223344579800,6.804579833984375,1.3032021522521973,-0.10380573570728302,-0.05135377123951912
1772459223354577000,6.814576904296875,1.3043395280838013,-0.08864888548851013,-0.035627540200948715
1772459223364574000,6.824573974609375,1.293166160583496,-0.06500838696956635,0.009074058383703232
1772459223374570800,6.83457080078125,1.2769986391067505,-0.028244774788618088,0.07121466100215912
1772459223384567800,6.84456787109375,1.255042314529419,0.01356740202754736,0.13564737141132355
1772459223394566000,6.85456591796875,1.2230033874511719,0.058819301426410675,0.19299721717834473
1772459223404563000,6.86456298828125,1.1834368705749512,0.10441278666257858,0.227532759308815
1772459223414559700,6.874559814453125,1.1397188901901245,0.1264624297618866,0.24115349352359772
1772459223424557000,6.88455712890625,1.0997790098190308,0.13156256079673767,0.24323952198028564
1772459223434553900,6.894553955078125,1.0527417659759521,0.13350000977516174,0.24508428573608398
1772459223444550700,6.904550537109375,1.0030990839004517,0.14204208552837372,0.241937056183815
1772459223454548700,6.914548828125,0.9619287252426147,0.14828214049339294,0.23299309611320496
1772459223464546000,6.924546142578125,0.9168024063110352,0.16751304268836975,0.20835168659687042
1772459223474542800,6.93454296875,0.8765996098518372,0.20550569891929626,0.16230057179927826
1772459223484539600,6.94453955078125,0.8416610956192017,0.25449126958847046,0.09812378883361816
1772459223494537000,6.954536865234375,0.8084919452667236,0.321321964263916,0.020466281101107597
1772459223504533800,6.96453369140625,0.7793781161308289,0.39944297075271606,-0.04876304790377617
1772459223514531800,6.97453173828125,0.7550919651985168,0.4725845754146576,-0.1223059818148613
1772459223524527000,6.984527099609375,0.7390729188919067,0.5416504740715027,-0.18898625671863556
1772459223534524000,6.99452392578125,0.7240694761276245,0.5782486796379089,-0.2547764182090759
1772459223544521200,7.004521240234375,0.7103557586669922,0.5847294926643372,-0.3200656771659851
1772459223554518000,7.01451806640625,0.715076744556427,0.5702253580093384,-0.3779897093772888
1772459223564516000,7.02451611328125,0.7251566648483276,0.544524610042572,-0.4156380593776703
1772459223574513000,7.034512939453125,0.7334811687469482,0.5091378688812256,-0.4421897828578949
1772459223584510200,7.04451025390625,0.7401686906814575,0.47962942719459534,-0.44955456256866455
1772459223594507000,7.054507080078125,0.747739315032959,0.47504743933677673,-0.4457257390022278
1772459223604504000,7.064504150390625,0.7611937522888184,0.4698140621185303,-0.4368085563182831
1772459223614501000,7.074501220703125,0.778932511806488,0.464308500289917,-0.4365936517715454
1772459223624499200,7.084499267578125,0.8078117966651917,0.45174723863601685,-0.4359785318374634
1772459223634496000,7.09449609375,0.8389657735824585,0.43597492575645447,-0.4378345012664795
1772459223644493000,7.1044931640625,0.8804119229316711,0.41388529539108276,-0.4478833079338074
1772459223654490000,7.114489990234375,0.9285930395126343,0.3884419798851013,-0.4626079201698303
1772459223664487200,7.124487060546875,0.9747734665870667,0.3606841564178467,-0.47506046295166016
1772459223674485000,7.134485107421875,1.012791395187378,0.3451416790485382,-0.4822733700275421
1772459223684482000,7.14448193359375,1.054258108139038,0.32975253462791443,-0.48301759362220764
1772459223694479000,7.15447900390625,1.104109287261963,0.3173257112503052,-0.4661480784416199
1772459223704476200,7.16447607421875,1.1572433710098267,0.3032328188419342,-0.44281116127967834
1772459223714473000,7.174472900390625,1.203184723854065,0.29304996132850647,-0.41434168815612793
1772459223724471000,7.184470947265625,1.2512048482894897,0.27647820115089417,-0.3747374713420868
1772459223734468000,7.194468017578125,1.2945928573608398,0.25715136528015137,-0.3266248106956482
1772459223744465200,7.204465087890625,1.3358404636383057,0.23108315467834473,-0.2781365215778351
1772459223754462000,7.2144619140625,1.3787708282470703,0.2094028890132904,-0.23424121737480164
1772459223764459000,7.224458984375,1.4183375835418701,0.17575310170650482,-0.20465537905693054
1772459223774456000,7.2344560546875,1.449862003326416,0.1273418813943863,-0.19399766623973846
1772459223784454100,7.2444541015625,1.4827795028686523,0.07958242297172546,-0.18881377577781677
1772459223794451000,7.254450927734375,1.5133423805236816,0.031939536333084106,-0.18395085632801056
1772459223804448000,7.264447998046875,1.5436254739761353,-0.011601814068853855,-0.17321351170539856
1772459223814445000,7.274445068359375,1.5561522245407104,-0.05000832676887512,-0.165409654378891
1772459223824442000,7.284442138671875,1.5677435398101807,-0.08107117563486099,-0.15740163624286652
1772459223834439000,7.29443896484375,1.5742899179458618,-0.10084248334169388,-0.15232406556606293
1772459223844437200,7.304437255859375,1.5762553215026855,-0.11347056180238724,-0.15988853573799133
1772459223854434000,7.31443408203125,1.581281065940857,-0.1317875236272812,-0.17470714449882507
1772459223864431000,7.32443115234375,1.5848337411880493,-0.1478351205587387,-0.1943196803331375
1772459223874428200,7.33442822265625,1.5820754766464233,-0.157786563038826,-0.20512811839580536
1772459223884425200,7.34442529296875,1.5738866329193115,-0.15693674981594086,-0.20722121000289917
1772459223894423000,7.354423095703125,1.5744432210922241,-0.13896067440509796,-0.187058687210083
1772459223904420000,7.364420166015625,1.5788694620132446,-0.12127324938774109,-0.16561007499694824
1772459223914417200,7.374417236328125,1.5916392803192139,-0.10785225033760071,-0.15375635027885437
1772459223924414200,7.384414306640625,1.6126501560211182,-0.08179567754268646,-0.1492704600095749
1772459223934411000,7.394410888671875,1.626263976097107,-0.0414823442697525,-0.14434121549129486
1772459223944408000,7.404407958984375,1.633364200592041,0.007907165214419365,-0.14523765444755554
1772459223954406100,7.41440625,1.634048342704773,0.05301498994231224,-0.14397424459457397
1772459223964403200,7.4244033203125,1.6308873891830444,0.07949242740869522,-0.14853544533252716
1772459223974400000,7.43439990234375,1.6159720420837402,0.0929001122713089,-0.1459423154592514
1772459223984397000,7.44439697265625,1.5994064807891846,0.11320579797029495,-0.12855619192123413
1772459223994394000,7.45439404296875,1.5902683734893799,0.16144762933254242,-0.08269256353378296
1772459224004392200,7.46439208984375,1.5950838327407837,0.22729282081127167,-0.020996663719415665
1772459224014389000,7.474388916015625,1.6184000968933105,0.31801286339759827,0.04653870314359665
1772459224024386000,7.484385986328125,1.6729118824005127,0.4275786876678467,0.12888450920581818
1772459224034383000,7.494383056640625,1.756147861480713,0.5143135786056519,0.20115044713020325
1772459224044380000,7.5043798828125,1.824799656867981,0.5526836514472961,0.25412458181381226
1772459224054377000,7.514376953125,1.8685705661773682,0.5646881461143494,0.28824928402900696
1772459224064375000,7.524375,1.9028760194778442,0.5665978193283081,0.32342007756233215
1772459224074372000,7.5343720703125,1.9289253950119019,0.5545824766159058,0.36085957288742065
1772459224084369000,7.544368896484375,1.9318814277648926,0.543091356754303,0.4103017747402191
1772459224094366000,7.554365966796875,1.914524793624878,0.5315409898757935,0.4605620205402374
1772459224104363000,7.564363037109375,1.8874975442886353,0.5166377425193787,0.5193411111831665
1772459224114361000,7.574361083984375,1.8571995496749878,0.48844924569129944,0.5738748908042908
1772459224124358100,7.584358154296875,1.8191227912902832,0.43895840644836426,0.6170756816864014
1772459224134355000,7.59435498046875,1.772139549255371,0.3832882046699524,0.6420089602470398
1772459224144352000,7.60435205078125,1.7176716327667236,0.33650457859039307,0.6582332253456116
1772459224154349000,7.61434912109375,1.6697862148284912,0.29742640256881714,0.6728388071060181
1772459224164347100,7.62434716796875,1.6354602575302124,0.2574213743209839,0.6783720254898071
1772459224174344000,7.634343994140625,1.6097708940505981,0.22807863354682922,0.6820000410079956
1772459224184341000,7.644341064453125,1.575674295425415,0.1918184906244278,0.6657654643058777
1772459224194338000,7.654338134765625,1.5319881439208984,0.14645260572433472,0.6418537497520447
1772459224204334800,7.6643349609375,1.4678406715393066,0.0883500799536705,0.5920643210411072
1772459224214332200,7.674332275390625,1.3951421976089478,0.03905549645423889,0.5358338356018066
1772459224224330000,7.684330078125,1.3101475238800049,0.022749589756131172,0.46505007147789
1772459224234327000,7.6943271484375,1.2504889965057373,0.0410819910466671,0.39705291390419006
1772459224244324000,7.704323974609375,1.2142534255981445,0.09897742420434952,0.3434929847717285
1772459224254321200,7.714321044921875,1.2055782079696655,0.18399858474731445,0.3047988712787628
1772459224264318000,7.72431787109375,1.2131717205047607,0.2643894851207733,0.2798580527305603
1772459224274316000,7.73431591796875,1.2239497900009155,0.35089775919914246,0.26805707812309265
1772459224284313000,7.74431298828125,1.2445781230926514,0.44786253571510315,0.28420716524124146
1772459224294310100,7.75431005859375,1.2714844942092896,0.5266318917274475,0.30974313616752625
1772459224304307000,7.764306884765625,1.29616117477417,0.5618105530738831,0.3208947479724884
1772459224314304000,7.774303955078125,1.314271092414856,0.578028678894043,0.3325037360191345
1772459224324301000,7.784301025390625,1.3270161151885986,0.5831862688064575,0.34659522771835327
1772459224334299100,7.794299072265625,1.334754467010498,0.580160915851593,0.3625086843967438
1772459224344296000,7.8042958984375,1.3207470178604126,0.5597735643386841,0.3672257661819458
1772459224354293000,7.81429296875,1.3030742406845093,0.5264633297920227,0.34163254499435425
1772459224364290000,7.8242900390625,1.2676281929016113,0.4912205934524536,0.29721924662590027
1772459224374287000,7.834287109375,1.2224165201187134,0.45797449350357056,0.23127377033233643
1772459224384285000,7.844284912109375,1.1779561042785645,0.43777456879615784,0.15513868629932404
1772459224394282000,7.854281982421875,1.150187611579895,0.43232735991477966,0.09251312911510468
1772459224404279000,7.864279052734375,1.1351064443588257,0.4400552809238434,0.048625845462083817
1772459224414276000,7.874276123046875,1.107410192489624,0.43665042519569397,0.0032943175174295902
1772459224424273000,7.88427294921875,1.0749644041061401,0.4241272211074829,-0.04678759723901749
1772459224434270200,7.894270263671875,1.0361645221710205,0.4030211269855499,-0.09671521186828613
1772459224444268000,7.90426806640625,0.9975538849830627,0.3708890974521637,-0.15066677331924438
1772459224454265000,7.91426513671875,0.9523829221725464,0.33117392659187317,-0.20584401488304138
1772459224464262000,7.924261962890625,0.8828048706054688,0.27866339683532715,-0.24206626415252686
1772459224474259200,7.93425927734375,0.7611183524131775,0.2219255566596985,-0.2387615591287613
1772459224484256000,7.944256103515625,0.656284511089325,0.1757637858390808,-0.1880214959383011
1772459224494254000,7.954254150390625,0.5703999996185303,0.12456692010164261,-0.1406739503145218
1772459224504251000,7.9642509765625,0.5003451704978943,0.09054268151521683,-0.10334353148937225
1772459224514248200,7.974248291015625,0.4647144675254822,0.0677550807595253,-0.09208422154188156
1772459224524249600,7.98424951171875,0.4754815995693207,0.03858857974410057,-0.11051034182310104
1772459224534246400,7.994246337890625,0.5189686417579651,0.013625440187752247,-0.16031065583229065
1772459224544244500,8.004244384765625,0.6156405806541443,0.019367730244994164,-0.2347102016210556
1772459224554241500,8.014241455078125,0.7585061192512512,0.040401641279459,-0.3417450487613678
1772459224564238600,8.024238525390626,0.8711487650871277,0.06481778621673584,-0.4445289373397827
1772459224574235400,8.0342353515625,0.9703876972198486,0.09948096424341202,-0.5042985677719116
1772459224584232400,8.044232421875,1.0636835098266602,0.15421020984649658,-0.5233109593391418
1772459224594229500,8.0542294921875,1.151564359664917,0.2132711261510849,-0.5103440284729004
1772459224604227600,8.0642275390625,1.2227132320404053,0.27049294114112854,-0.47729232907295227
1772459224614224400,8.074224365234375,1.2710613012313843,0.3047318458557129,-0.42944490909576416
1772459224624221400,8.084221435546874,1.2926445007324219,0.30320054292678833,-0.3684237003326416
1772459224634218500,8.094218505859375,1.2872297763824463,0.27906882762908936,-0.29831624031066895
1772459224644215300,8.10421533203125,1.263729453086853,0.23051734268665314,-0.2214866578578949
1772459224654213400,8.11421337890625,1.2264955043792725,0.16329915821552277,-0.15279148519039154
1772459224664210400,8.12421044921875,1.1788673400878906,0.09707679599523544,-0.08882312476634979
1772459224674207500,8.13420751953125,1.13349449634552,0.04536859318614006,-0.03025009110569954
1772459224684204300,8.144204345703125,1.089015007019043,0.003598066745325923,0.025375816971063614
1772459224694201300,8.154201416015624,1.0455831289291382,-0.032842766493558884,0.069724902510643
1772459224704198400,8.164198486328125,1.0155948400497437,-0.053141914308071136,0.11499278247356415
1772459224714196500,8.174196533203125,1.008235216140747,-0.07056484371423721,0.16049927473068237
1772459224724193300,8.184193359375,1.0280499458312988,-0.09449159353971481,0.19709065556526184
1772459224734190600,8.194190673828125,1.0572408437728882,-0.11537610739469528,0.2226029336452484
1772459224744187400,8.2041875,1.0811107158660889,-0.12322274595499039,0.24273300170898438
1772459224754184400,8.214184326171875,1.0880862474441528,-0.13624054193496704,0.2620457112789154
1772459224764182300,8.224182373046874,1.0761176347732544,-0.16308951377868652,0.27640587091445923
1772459224774179600,8.2341796875,1.0528382062911987,-0.2068292647600174,0.29630687832832336
1772459224784176400,8.24417626953125,1.0179738998413086,-0.273429274559021,0.3200247585773468
1772459224794173400,8.25417333984375,0.9421544075012207,-0.37376734614372253,0.3243660032749176
1772459224804170500,8.26417041015625,0.8249791860580444,-0.5017544031143188,0.28974732756614685
1772459224814168600,8.27416845703125,0.6998870372772217,-0.6341699361801147,0.2532668113708496
1772459224824165400,8.284165283203125,0.601976215839386,-0.7407996654510498,0.23370903730392456
1772459224834162400,8.294162353515626,0.5335385799407959,-0.796755313873291,0.24052059650421143
1772459224844159500,8.304159423828125,0.4815235733985901,-0.7967440485954285,0.2524735927581787
1772459224854156500,8.314156494140626,0.44658157229423523,-0.7379733920097351,0.2522682845592499
1772459224864153300,8.3241533203125,0.4423779249191284,-0.6132912635803223,0.23235280811786652
1772459224874151400,8.3341513671875,0.47255954146385193,-0.4619312882423401,0.18679304420948029
1772459224884148500,8.3441484375,0.5402729511260986,-0.31428641080856323,0.11127829551696777
1772459224894145500,8.3541455078125,0.6386743783950806,-0.1755378544330597,0.013790620490908623
1772459224904142300,8.364142333984375,0.7520170211791992,-0.02842779830098152,-0.08392153680324554
1772459224914139400,8.374139404296875,0.8533356189727783,0.14931103587150574,-0.17945578694343567
1772459224924137500,8.384137451171876,0.9310146570205688,0.359906941652298,-0.24646341800689697
1772459224934134500,8.394134521484375,0.9783778786659241,0.5692979097366333,-0.29049718379974365
1772459224944131300,8.40413134765625,0.9984474182128906,0.7234832644462585,-0.310341477394104
1772459224954128400,8.41412841796875,1.0079303979873657,0.816020131111145,-0.30247876048088074
1772459224964125400,8.42412548828125,1.0188685655593872,0.8460485339164734,-0.26657381653785706
1772459224974122500,8.43412255859375,1.0092793703079224,0.8290088772773743,-0.22365884482860565
1772459224984120300,8.444120361328125,0.9797983765602112,0.7528983950614929,-0.17673122882843018
1772459224994117400,8.454117431640626,0.9433066844940186,0.627513587474823,-0.12088632583618164
1772459225004114400,8.464114501953125,0.9011110067367554,0.4716165065765381,-0.05636420100927353
1772459225014111500,8.474111572265626,0.8438381552696228,0.3312692642211914,0.021562552079558372
1772459225024108300,8.4841083984375,0.7784155011177063,0.22026151418685913,0.10171721875667572
1772459225034106400,8.4941064453125,0.6901071667671204,0.15570169687271118,0.1684272736310959
1772459225044103400,8.504103515625,0.6013550162315369,0.12347988039255142,0.1982928067445755
1772459225054100500,8.5141005859375,0.510713517665863,0.11446481943130493,0.18146029114723206
1772459225064097300,8.52409716796875,0.4259952902793884,0.14107048511505127,0.1155952587723732
1772459225074094600,8.534094482421875,0.35300737619400024,0.18730242550373077,0.0018460589926689863
1772459225084092400,8.544092529296876,0.28901374340057373,0.23390480875968933,-0.14065968990325928
1772459225094089500,8.55408935546875,0.24786731600761414,0.2575244903564453,-0.29498302936553955
1772459225104086300,8.564086181640626,0.23639707267284393,0.27134081721305847,-0.43305131793022156
1772459225114083600,8.57408349609375,0.25758251547813416,0.29804033041000366,-0.5343563556671143
1772459225124080400,8.584080322265624,0.30502912402153015,0.3272252082824707,-0.5784425735473633
1772459225134078500,8.594078369140625,0.37569957971572876,0.35183894634246826,-0.5638468265533447
1772459225144075500,8.604075439453124,0.4556972086429596,0.35247036814689636,-0.5073676109313965
1772459225154072600,8.614072509765625,0.5234906077384949,0.32354816794395447,-0.41717615723609924
1772459225164069400,8.6240693359375,0.5727385878562927,0.2732468247413635,-0.3033456802368164
1772459225174066400,8.63406640625,0.6159475445747375,0.21790073812007904,-0.18723878264427185
1772459225184063500,8.6440634765625,0.637204647064209,0.13176532089710236,-0.08231422305107117
1772459225194061600,8.6540615234375,0.6402891278266907,0.05871162563562393,-0.010344690643250942
1772459225204058400,8.664058349609375,0.6154224872589111,-0.0006777035305276513,0.034702591598033905
1772459225214055400,8.674055419921874,0.5850648880004883,-0.04472159594297409,0.04417652264237404
1772459225224052500,8.684052490234375,0.5621913075447083,-0.0881829634308815,0.029273973777890205
1772459225234049300,8.69404931640625,0.5520066022872925,-0.09895198792219162,-0.010664921253919601
1772459225244047400,8.70404736328125,0.5583446621894836,-0.06691562384366989,-0.04211483523249626
1772459225254044400,8.71404443359375,0.5734437108039856,-0.004344917833805084,-0.07667654007673264
1772459225264041500,8.72404150390625,0.5883162021636963,0.05291162058711052,-0.11719594150781631
1772459225274038500,8.73403857421875,0.608578622341156,0.1170237585902214,-0.15626691281795502
1772459225284035300,8.744035400390626,0.6307299137115479,0.17943115532398224,-0.19887076318264008
1772459225294033400,8.754033447265625,0.6524307131767273,0.22675739228725433,-0.24013377726078033
1772459225304030500,8.764030517578124,0.6644994616508484,0.2419404536485672,-0.2853357791900635
1772459225314027500,8.774027587890625,0.6579179763793945,0.22668667137622833,-0.3365859389305115
1772459225324024300,8.7840244140625,0.6510911583900452,0.20476765930652618,-0.3741152882575989
1772459225334021400,8.794021484375,0.6439607739448547,0.16858994960784912,-0.3955436050891876
1772459225344018400,8.804018310546875,0.6404733657836914,0.1309184730052948,-0.40669506788253784
1772459225354016500,8.8140166015625,0.6479864120483398,0.11390858888626099,-0.3890979588031769
1772459225364013300,8.824013427734375,0.6688048243522644,0.11087793856859207,-0.3518986701965332
1772459225374010400,8.83401025390625,0.7089040279388428,0.10635029524564743,-0.30446404218673706
1772459225384007400,8.84400732421875,0.7542769908905029,0.10382937639951706,-0.25503823161125183
1772459225394004200,8.854004150390624,0.799247682094574,0.1145443320274353,-0.20732690393924713
1772459225404002300,8.864002197265625,0.8282136917114258,0.12750865519046783,-0.17280372977256775
1772459225413999400,8.873999267578125,0.8496856689453125,0.14592014253139496,-0.14865630865097046
1772459225423996400,8.883996337890625,0.8519030809402466,0.16671133041381836,-0.14741919934749603
1772459225433993200,8.8939931640625,0.846035361289978,0.19471073150634766,-0.15711577236652374
1772459225443990500,8.903990478515626,0.8432360887527466,0.22155196964740753,-0.17363570630550385
1772459225453988600,8.913988525390625,0.8440038561820984,0.25150588154792786,-0.18794460594654083
1772459225463985400,8.9239853515625,0.8475502729415894,0.2700097858905792,-0.19253824651241302
1772459225473982200,8.933982177734375,0.8552851676940918,0.30131205916404724,-0.17159168422222137
1772459225483979500,8.9439794921875,0.8734912276268005,0.3470947742462158,-0.11741751432418823
1772459225493976300,8.953976318359375,0.9080278873443604,0.4252532422542572,-0.021328266710042953
1772459225503973400,8.963973388671874,0.965783417224884,0.4999632239341736,0.11626862734556198
1772459225513971500,8.973971435546876,1.0160900354385376,0.5024820566177368,0.25093695521354675
1772459225523964200,8.983964111328126,1.0253208875656128,0.4574899673461914,0.3527222275733948
1772459225533961000,8.9939609375,1.0146701335906982,0.3950667977333069,0.42717835307121277
1772459225543958300,9.003958251953126,1.0016770362854004,0.34328585863113403,0.4867752492427826
1772459225553955000,9.013955078125,0.9807337522506714,0.3204553723335266,0.5500455498695374
1772459225563953200,9.023953125,0.9324901103973389,0.31866443157196045,0.6200782060623169
1772459225573950000,9.033949951171875,0.856032133102417,0.3131951093673706,0.6783183217048645
1772459225583947300,9.043947265625,0.7617586255073547,0.2849274277687073,0.7239059209823608
1772459225593944000,9.053944091796875,0.6792230010032654,0.22986018657684326,0.7471015453338623
1772459225603941000,9.063941162109375,0.6049574613571167,0.16608504951000214,0.75665682554245
1772459225613939000,9.07393896484375,0.5393385291099548,0.09612886607646942,0.7433748245239258
1772459225623936300,9.083936279296875,0.47432371973991394,0.03427831828594208,0.715507447719574
1772459225633933000,9.09393310546875,0.4166780114173889,-0.014287352561950684,0.6592066287994385
1772459225643930000,9.10393017578125,0.36811116337776184,-0.038974273949861526,0.59682697057724
1772459225653927200,9.11392724609375,0.32782232761383057,-0.04333439841866493,0.5137280821800232
1772459225663925200,9.12392529296875,0.294459730386734,-0.022461676970124245,0.4166465699672699
1772459225673922000,9.133922119140625,0.2637268602848053,0.022908734157681465,0.3206350803375244
1772459225683919000,9.143919189453126,0.2559434473514557,0.08866451680660248,0.23876291513442993
1772459225693916200,9.153916259765625,0.27474483847618103,0.15798047184944153,0.18462830781936646
1772459225703913200,9.163913330078126,0.3142160177230835,0.24461933970451355,0.16374275088310242
1772459225713910000,9.173909912109375,0.3716942369937897,0.3358858525753021,0.16382397711277008
1772459225723908000,9.183908203125,0.44928431510925293,0.4316585063934326,0.18980078399181366
1772459225733905200,9.1939052734375,0.5396442413330078,0.5186343789100647,0.2251044511795044
1772459225743902200,9.203902099609374,0.6207712292671204,0.5763179063796997,0.2504614293575287
1772459225753899000,9.21389892578125,0.6875715851783752,0.5937416553497314,0.26232287287712097
1772459225763896000,9.22389599609375,0.7457649111747742,0.5718320608139038,0.24578042328357697
1772459225773894100,9.23389404296875,0.7808720469474792,0.518684983253479,0.2094370722770691
1772459225783891200,9.24389111328125,0.7993749380111694,0.4513004422187805,0.15286685526371002
1772459225793888000,9.253887939453126,0.8065540194511414,0.3736157715320587,0.08096364885568619
1772459225803885000,9.263885009765625,0.8085991740226746,0.2834748327732086,-0.008023139089345932
1772459225813882000,9.273882080078126,0.7893801927566528,0.22154437005519867,-0.11006827652454376
1772459225823880200,9.283880126953125,0.7552575469017029,0.14971566200256348,-0.1996801644563675
1772459225833877000,9.293876953125,0.7139678597450256,0.08116589486598969,-0.27616986632347107
1772459225843874300,9.303874267578125,0.667644202709198,0.027727659791707993,-0.3304174542427063
1772459225853871000,9.31387109375,0.6079864501953125,-0.009092938154935837,-0.36711475253105164
1772459225863866000,9.3238662109375,0.5339862704277039,-0.047806333750486374,-0.40164613723754883
1772459225873864200,9.3338642578125,0.45441287755966187,-0.050642602145671844,-0.4235120117664337
1772459225883861000,9.343861083984375,0.3865375220775604,-0.04567956179380417,-0.4330107569694519
1772459225893858300,9.3538583984375,0.33901527523994446,-0.03046439029276371,-0.44035443663597107
1772459225903855000,9.363855224609376,0.322752982378006,-0.0040025291964411736,-0.4449453055858612
1772459225913852200,9.37385205078125,0.3331766128540039,0.03558509424328804,-0.4516540765762329
1772459225923849200,9.38384912109375,0.36619406938552856,0.08139780908823013,-0.4609723687171936
1772459225933847300,9.393847412109375,0.40977030992507935,0.12525740265846252,-0.4661213159561157
1772459225943844000,9.403843994140624,0.4661226272583008,0.17138893902301788,-0.47273266315460205
1772459225953841200,9.413841064453125,0.527532160282135,0.2190358191728592,-0.4767620265483856
1772459225963838200,9.423838134765624,0.5946714878082275,0.24949412047863007,-0.48350363969802856
1772459225973835000,9.4338349609375,0.6467024683952332,0.27167585492134094,-0.4890637993812561
1772459225983833000,9.4438330078125,0.6879886984825134,0.2785191237926483,-0.49750325083732605
1772459225993830100,9.453830078125,0.7121137380599976,0.26234787702560425,-0.4987933039665222
1772459226003827200,9.4638271484375,0.7210400104522705,0.22033779323101044,-0.48969873785972595
1772459226013824000,9.473823974609376,0.7293312549591064,0.1465754210948944,-0.46907150745391846
1772459226023821000,9.483821044921875,0.70122230052948,0.08583236485719681,-0.4371708035469055
1772459226033819100,9.493819091796874,0.6585565805435181,0.01664956472814083,-0.4007936120033264
1772459226043816200,9.503816162109375,0.6088433265686035,-0.050455424934625626,-0.3509142994880676
1772459226053813200,9.513813232421874,0.5673395991325378,-0.11424053460359573,-0.2986811697483063
1772459226063810000,9.52381005859375,0.5415451526641846,-0.16380129754543304,-0.24708598852157593
1772459226073807000,9.53380712890625,0.5217605233192444,-0.21276138722896576,-0.1998273879289627
1772459226083805200,9.54380517578125,0.5099260210990906,-0.24754974246025085,-0.16236139833927155
1772459226093802200,9.55380224609375,0.5053115487098694,-0.268381804227829,-0.13577213883399963
1772459226103799000,9.563799072265626,0.5097851157188416,-0.2827441096305847,-0.12314800918102264
1772459226113796000,9.573796142578125,0.5156022310256958,-0.307935506105423,-0.13190609216690063
1772459226123793200,9.583793212890624,0.518925666809082,-0.34085267782211304,-0.16352510452270508
1772459226133790000,9.5937900390625,0.5252572894096375,-0.3681008219718933,-0.1989067941904068
1772459226143788000,9.6037880859375,0.5307607650756836,-0.3967064917087555,-0.23708473145961761
1772459226153785000,9.61378515625,0.5329339504241943,-0.4029414653778076,-0.26386573910713196
1772459226163782100,9.6237822265625,0.5367259383201599,-0.3952554762363434,-0.269824355840683
1772459226173779000,9.633779052734376,0.5459260940551758,-0.39699026942253113,-0.25966307520866394
1772459226183776300,9.6437763671875,0.5578387379646301,-0.37207189202308655,-0.2050977200269699
1772459226193774000,9.653774169921874,0.5602979063987732,-0.33746597170829773,-0.1256878525018692
1772459226203771100,9.663771240234375,0.540550708770752,-0.33587807416915894,-0.05415383726358414
1772459226213768000,9.673767822265624,0.5130183696746826,-0.3397713303565979,0.017116878181695938
1772459226223765200,9.68376513671875,0.4840303063392639,-0.3425215482711792,0.09106821566820145
1772459226233762000,9.693761962890624,0.46741509437561035,-0.35636839270591736,0.16914144158363342
1772459226243760000,9.703760009765626,0.46489742398262024,-0.35969078540802,0.2529921233654022
1772459226253757000,9.7137568359375,0.47148820757865906,-0.35214340686798096,0.3408687114715576
1772459226263754200,9.723754150390626,0.47747573256492615,-0.36064764857292175,0.4410390555858612
1772459226273751000,9.7337509765625,0.441730797290802,-0.37746524810791016,0.5264114737510681
1772459226283748000,9.743748046875,0.37478622794151306,-0.371246337890625,0.5826457738876343
1772459226293746000,9.753745849609375,0.31655168533325195,-0.32630205154418945,0.6239790916442871
1772459226303743200,9.7637431640625,0.2990218997001648,-0.24868926405906677,0.6443705558776855
1772459226313740000,9.773739990234375,0.32805222272872925,-0.15266072750091553,0.644476592540741
1772459226323737000,9.783737060546875,0.3654646575450897,-0.05724707245826721,0.6264905333518982
1772459226333734100,9.793734130859375,0.3799634277820587,-0.001167290611192584,0.5585637092590332
1772459226343731200,9.803731201171875,0.3680100739002228,0.013201889581978321,0.44173499941825867
1772459226353729000,9.81372900390625,0.3429129719734192,-0.003835150506347418,0.2947940230369568
1772459226363726000,9.82372607421875,0.3097386658191681,-0.03401981666684151,0.1322920322418213
1772459226373723100,9.83372314453125,0.26718828082084656,-0.06993600726127625,-0.02322246879339218
1772459226383720200,9.84372021484375,0.23464497923851013,-0.10367976874113083,-0.16126517951488495
1772459226393717000,9.853717041015624,0.20440424978733063,-0.1154157891869545,-0.2659492492675781
1772459226403715000,9.863715087890625,0.18193969130516052,-0.10710076987743378,-0.3134361207485199
1772459226413712100,9.873712158203125,0.16200512647628784,-0.0925079807639122,-0.3144971430301666
1772459226423709200,9.883709228515626,0.14692117273807526,-0.06483203172683716,-0.2538689970970154
1772459226433706000,9.8937060546875,0.15222512185573578,-0.03207036107778549,-0.14402399957180023
1772459226443703300,9.903703369140626,0.1685224324464798,-0.002878795610740781,-0.0038083414547145367
1772459226453701000,9.913701171875,0.19579319655895233,0.0291513092815876,0.13991154730319977
1772459226463698200,9.9236982421875,0.22477315366268158,0.06311845034360886,0.2774997055530548
1772459226473695000,9.933695068359375,0.23603884875774384,0.08585012704133987,0.39129018783569336
1772459226483692300,9.9436923828125,0.22745971381664276,0.08689934015274048,0.4436720609664917
1772459226493689000,9.953689208984375,0.20558397471904755,0.09010285884141922,0.45739907026290894
1772459226503688200,9.963688232421875,0.18967337906360626,0.0927114486694336,0.4408892095088959
1772459226513686300,9.973686279296874,0.1854831576347351,0.094586580991745,0.39640671014785767
1772459226523687200,9.983687255859374,0.18312272429466248,0.09554418921470642,0.3434877097606659
1772459226533684000,9.99368408203125,0.177779883146286,0.10378134250640869,0.2854901850223541
1772459226543681000,10.003680908203124,0.16840504109859467,0.1288699209690094,0.22272008657455444
1772459226553678000,10.013677978515625,0.14863081276416779,0.1577625572681427,0.15099449455738068
1772459226563676200,10.02367626953125,0.13496918976306915,0.16825802624225616,0.06941942125558853
1772459226573673000,10.0336728515625,0.1193111389875412,0.16118280589580536,-0.02587061934173107
1772459226583670000,10.043669921875,0.09163256734609604,0.14759741723537445,-0.1231541559100151
1772459226593667000,10.0536669921875,0.06368055939674377,0.14684800803661346,-0.2289319783449173
1772459226603664100,10.0636640625,0.042574066668748856,0.1520397961139679,-0.3332482576370239
1772459226613662000,10.073661865234374,0.025905340909957886,0.15523825585842133,-0.4366649091243744
1772459226623659000,10.083658935546875,0.012996274046599865,0.15315572917461395,-0.5366600751876831
1772459226633656000,10.093656005859375,0.009874783456325531,0.1530316323041916,-0.6209787130355835
1772459226643653000,10.103653076171875,0.024886954575777054,0.15473242104053497,-0.6690483093261719
1772459226653650000,10.11364990234375,0.05597935989499092,0.14402306079864502,-0.6851457953453064
1772459226663648300,10.123648193359376,0.0988788902759552,0.15058189630508423,-0.6663805842399597
1772459226673645000,10.13364501953125,0.13254284858703613,0.15354092419147491,-0.6311445832252502
1772459226683642000,10.14364208984375,0.1487542688846588,0.13961970806121826,-0.5981988310813904
1772459226693639000,10.153638916015625,0.16425254940986633,0.11292204260826111,-0.5669554471969604
1772459226703636200,10.16363623046875,0.1711706668138504,0.08688580989837646,-0.5390244126319885
1772459226713634000,10.173634033203125,0.17080847918987274,0.05870823562145233,-0.5138343572616577
1772459226723631000,10.183631103515625,0.16271710395812988,0.03700114041566849,-0.4898436665534973
1772459226733628200,10.193628173828126,0.1413111388683319,0.03287750110030174,-0.45808732509613037
1772459226743625200,10.203625244140625,0.11702866852283478,0.04831080511212349,-0.41940295696258545
1772459226753622000,10.2136220703125,0.08733628690242767,0.06703495979309082,-0.3763020932674408
1772459226763619000,10.223619140625,0.054986514151096344,0.07859408110380173,-0.33687824010849
1772459226773617200,10.2336171875,0.011473122984170914,0.08923181146383286,-0.2967907190322876
1772459226783614200,10.2436142578125,-0.02671804279088974,0.08343005180358887,-0.2666292190551758
1772459226793611000,10.253611083984374,-0.05289611592888832,0.07227913290262222,-0.23331762850284576
1772459226803608000,10.263608154296875,-0.06676919013261795,0.0610816590487957,-0.2012118250131607
1772459226813605000,10.273605224609375,-0.08193483203649521,0.0331118106842041,-0.17715948820114136
1772459226823603200,10.283603271484376,-0.09513813257217407,0.001221395912580192,-0.15045517683029175
1772459226833600000,10.29360009765625,-0.10543551295995712,-0.01878507062792778,-0.12277880311012268
1772459226843597000,10.30359716796875,-0.11183881759643555,-0.049993500113487244,-0.10374675691127777
1772459226853594000,10.313593994140625,-0.11336427181959152,-0.06231141835451126,-0.08529450744390488
1772459226863591200,10.323591064453124,-0.10566885024309158,-0.052281059324741364,-0.054944492876529694
1772459226873589000,10.333589111328125,-0.09978486597537994,-0.030406920239329338,-0.03429620712995529
1772459226883586000,10.3435859375,-0.10545693337917328,-0.013143121264874935,-0.02413240820169449
1772459226893583000,10.3535830078125,-0.1130773052573204,-0.00313948979601264,-0.027466418221592903
1772459226903580200,10.363580078125,-0.12690110504627228,-0.00946001335978508,-0.048244282603263855
1772459226913577000,10.373576904296876,-0.14732249081134796,-0.027649402618408203,-0.08202355355024338
1772459226923575000,10.383574951171875,-0.162918359041214,-0.021732976660132408,-0.10790474712848663
1772459226933572000,10.393572021484376,-0.17916284501552582,-0.0051401518285274506,-0.1238006204366684
1772459226943569200,10.403569091796875,-0.18778668344020844,0.057701993733644485,-0.12006091326475143
1772459226953566000,10.41356591796875,-0.1726285070180893,0.17275561392307281,-0.08986679464578629
1772459226963563300,10.423563232421875,-0.13385234773159027,0.2857368588447571,-0.046651724725961685
1772459226973561000,10.43356103515625,-0.11183573305606842,0.3506767153739929,-0.01929440349340439
1772459226983558100,10.44355810546875,-0.11470335721969604,0.393868088722229,-0.006280577275902033
1772459226993555000,10.453554931640625,-0.12162598222494125,0.4212464690208435,0.0001781212631613016
1772459227003552300,10.46355224609375,-0.12506599724292755,0.4406558573246002,0.019565047696232796
1772459227013549000,10.473549072265625,-0.127293199300766,0.45740607380867004,0.05923789367079735
1772459227023547100,10.483547119140624,-0.11577435582876205,0.47848737239837646,0.11422163248062134
1772459227033544000,10.4935439453125,-0.09454923123121262,0.4892353415489197,0.17192114889621735
1772459227043541200,10.503541259765624,-0.0581684447824955,0.46386510133743286,0.22542299330234528
1772459227053538000,10.5135380859375,-0.023624049499630928,0.409828245639801,0.26567479968070984
1772459227063535000,10.52353515625,0.017383364960551262,0.3355884552001953,0.28187263011932373
1772459227073532200,10.5335322265625,0.0481087863445282,0.2575908601284027,0.2957221269607544
1772459227083530200,10.5435302734375,0.053554221987724304,0.19001640379428864,0.2880997955799103
1772459227093527000,10.553527099609376,0.036540884524583817,0.1337568610906601,0.25598153471946716
1772459227103524000,10.563524169921875,0.004045593552291393,0.06423306465148926,0.20134657621383667
1772459227113521200,10.573521240234374,-0.039370857179164886,-0.016978701576590538,0.12937279045581818
1772459227123518000,10.58351806640625,-0.08725668489933014,-0.08910898864269257,0.05390572547912598
1772459227133516000,10.59351611328125,-0.13081641495227814,-0.1417817920446396,-0.015180399641394615
1772459227143513000,10.60351318359375,-0.1521504670381546,-0.18317537009716034,-0.05967553332448006
1772459227153510100,10.61351025390625,-0.1549539715051651,-0.20243801176548004,-0.08201172947883606
1772459227163507000,10.6235068359375,-0.14636540412902832,-0.20322191715240479,-0.0828336700797081
1772459227173504000,10.63350390625,-0.13306984305381775,-0.1606891006231308,-0.05807533115148544
1772459227183502000,10.643502197265626,-0.08337340503931046,-0.07401493191719055,0.005108611658215523
1772459227193499100,10.6534990234375,0.0019494788721203804,0.04069621115922928,0.10289109498262405
1772459227203496200,10.66349609375,0.11297972500324249,0.16643279790878296,0.23263989388942719
1772459227213493000,10.673492919921875,0.21577027440071106,0.27455341815948486,0.369026243686676
1772459227223490000,10.683489990234374,0.2992773652076721,0.3527320325374603,0.4886854588985443
1772459227233488100,10.693488037109375,0.3644520938396454,0.38675418496131897,0.579965353012085
1772459227243485200,10.703485107421875,0.42335277795791626,0.38784587383270264,0.6446695327758789
1772459227253482000,10.71348193359375,0.48350614309310913,0.36240044236183167,0.6778000593185425
1772459227263479000,10.72347900390625,0.5258613228797913,0.3073773682117462,0.6788134574890137
1772459227273476000,10.73347607421875,0.555164098739624,0.23863531649112701,0.6607399582862854
1772459227283474200,10.74347412109375,0.5576440095901489,0.20444035530090332,0.6263462901115417
1772459227293471000,10.753470947265624,0.5524985194206238,0.16965733468532562,0.5682411789894104
1772459227303468000,10.763468017578125,0.5392385125160217,0.12157631665468216,0.4856087267398834
1772459227313465000,10.773465087890624,0.5282574892044067,0.10092004388570786,0.39091283082962036
1772459227323462000,10.7834619140625,0.5147106647491455,0.0878974124789238,0.2678999900817871
1772459227333460000,10.7934599609375,0.4930175840854645,0.04767222702503204,0.1119823157787323
1772459227343457000,10.80345703125,0.4492591619491577,-0.026525475084781647,-0.06913267821073532
1772459227353454000,10.8134541015625,0.38328760862350464,-0.12335082143545151,-0.2605322003364563
1772459227363451000,10.823450927734376,0.2932552397251129,-0.22166310250759125,-0.4517703354358673
1772459227373448200,10.8334482421875,0.1816602647304535,-0.2915697395801544,-0.6206424236297607
1772459227383445000,10.843445068359374,0.08491673320531845,-0.34652161598205566,-0.7518308162689209
1772459227393443000,10.853443115234375,0.02004905603826046,-0.3885721266269684,-0.8350825309753418
1772459227403439900,10.86343994140625,-0.0015330020105466247,-0.3606833815574646,-0.8506666421890259
1772459227413437200,10.873437255859375,0.023810172453522682,-0.2727910876274109,-0.7890543937683105
1772459227423434000,10.88343408203125,0.08636143058538437,-0.15963080525398254,-0.6676275730133057
1772459227433431000,10.89343115234375,0.17080360651016235,-0.047289080917835236,-0.5206913948059082
1772459227443429000,10.90342919921875,0.2612608075141907,0.0651375874876976,-0.3457733988761902
1772459227453426200,10.91342626953125,0.3357960283756256,0.15745288133621216,-0.1813218593597412
1772459227463423000,10.923423095703125,0.3807060420513153,0.21722537279129028,-0.05241943895816803
1772459227473420000,10.933419921875,0.39606183767318726,0.24058741331100464,0.030845623463392258
1772459227483417000,10.9434169921875,0.39609405398368835,0.23435330390930176,0.07543343305587769
1772459227493415200,10.953415283203125,0.38658684492111206,0.20786122977733612,0.07563930004835129
1772459227503412000,10.963411865234375,0.3785865008831024,0.17309056222438812,0.044007305055856705
1772459227513409000,10.973408935546875,0.3672043979167938,0.12916065752506256,-0.00126536819152534
1772459227523403300,10.9834033203125,0.3543410897254944,0.07600624859333038,-0.05259853973984718
1772459227533400000,10.993400146484374,0.33535781502723694,0.0461125373840332,-0.0971931740641594
1772459227543398100,11.003398193359375,0.31569764018058777,0.030582383275032043,-0.13170157372951508
1772459227553395000,11.01339501953125,0.2937396168708801,0.018479647114872932,-0.16435325145721436
1772459227563392300,11.023392333984376,0.2718951404094696,0.006798008922487497,-0.1871197521686554
1772459227573389000,11.03338916015625,0.2636649012565613,-0.010956487618386745,-0.19894684851169586
1772459227583386000,11.04338623046875,0.27093443274497986,-0.0409504771232605,-0.20235686004161835
1772459227593384000,11.053384033203125,0.27511319518089294,-0.07635879516601562,-0.19808781147003174
1772459227603381200,11.06338134765625,0.28578364849090576,-0.11057250946760178,-0.1819046139717102
1772459227613378000,11.0733779296875,0.30186355113983154,-0.14005663990974426,-0.1506313681602478
1772459227623375000,11.083375,0.32953980565071106,-0.18509207665920258,-0.10246053338050842
1772459227633372200,11.0933720703125,0.3606990575790405,-0.2385992407798767,-0.05034353584051132
1772459227643369200,11.103369140625,0.37842318415641785,-0.2860884666442871,-0.0058168149553239346
1772459227653367000,11.113366943359376,0.3915255665779114,-0.31557199358940125,0.042692363262176514
1772459227663364000,11.123364013671875,0.4128901958465576,-0.3276335299015045,0.09138388931751251
1772459227673361200,11.133361083984376,0.43202686309814453,-0.32570141553878784,0.14065822958946228
1772459227683358200,11.143358154296875,0.4464929401874542,-0.31225255131721497,0.19503523409366608
1772459227693355000,11.15335498046875,0.4472609758377075,-0.30272001028060913,0.23687110841274261
1772459227703353000,11.16335302734375,0.4279686212539673,-0.3069678246974945,0.26932477951049805
1772459227713350100,11.17335009765625,0.40409979224205017,-0.3381342589855194,0.2800639569759369
1772459227723347200,11.18334716796875,0.3797796368598938,-0.3679775893688202,0.285378098487854
1772459227733344000,11.193343994140625,0.3637130558490753,-0.39510107040405273,0.2910700738430023
1772459227743341300,11.20334130859375,0.3578857481479645,-0.3985982835292816,0.2935951054096222
1772459227753339100,11.213339111328125,0.3718918561935425,-0.3746732175350189,0.3116433620452881
1772459227763336200,11.223336181640626,0.4038764536380768,-0.3413589596748352,0.32754412293434143
1772459227773333000,11.2333330078125,0.43509164452552795,-0.3202110528945923,0.3346310555934906
1772459227783330300,11.243330322265624,0.4505983293056488,-0.31934654712677,0.3063877820968628
1772459227793327000,11.2533271484375,0.43406593799591064,-0.326893150806427,0.24538274109363556
1772459227803325200,11.2633251953125,0.3858189880847931,-0.34042879939079285,0.13712190091609955
1772459227813322000,11.273322021484375,0.3170526921749115,-0.35631269216537476,-0.004844302777200937
1772459227823319300,11.2833193359375,0.2458895891904831,-0.3746216893196106,-0.16910825669765472
1772459227833316000,11.293316162109376,0.18284857273101807,-0.38113176822662354,-0.32485151290893555
1772459227843313200,11.303313232421875,0.1348203867673874,-0.3677400052547455,-0.4563460052013397
1772459227853311000,11.31331103515625,0.10163100808858871,-0.33363077044487,-0.5293227434158325
1772459227863308300,11.323308349609375,0.08907293528318405,-0.27836498618125916,-0.5450194478034973
1772459227873305000,11.33330517578125,0.09604828804731369,-0.22053468227386475,-0.5095288753509521
1772459227883302100,11.34330224609375,0.10411267727613449,-0.18057283759117126,-0.44548100233078003
1772459227893299200,11.35329931640625,0.11061877757310867,-0.15024341642856598,-0.35695886611938477
1772459227903297300,11.36329736328125,0.11546279489994049,-0.11838773638010025,-0.2530818283557892
1772459227913294000,11.373294189453125,0.12265892326831818,-0.08207686990499496,-0.14316678047180176
1772459227923291100,11.383291015625,0.12969712913036346,-0.03593159466981888,-0.03156821057200432
1772459227933288200,11.3932880859375,0.1410730928182602,0.025459062308073044,0.06819034367799759
1772459227943285000,11.403284912109376,0.14152061939239502,0.0868292823433876,0.14574237167835236
1772459227953282000,11.413281982421875,0.14508047699928284,0.13913962244987488,0.20199179649353027
1772459227963280100,11.423280029296874,0.15070727467536926,0.17684338986873627,0.24310635030269623
1772459227973277200,11.433277099609375,0.15563572943210602,0.18079206347465515,0.2759803831577301
1772459227983274000,11.44327392578125,0.1575271487236023,0.16076268255710602,0.30725836753845215
1772459227993271000,11.45327099609375,0.1292363852262497,0.12923617660999298,0.3300459682941437
1772459228003268000,11.46326806640625,0.08012324571609497,0.0884985700249672,0.3415927588939667
1772459228013266200,11.47326611328125,0.017549343407154083,0.04047698900103569,0.3365156948566437
1772459228023263200,11.48326318359375,-0.06587550044059753,-0.014905670657753944,0.30582550168037415
1772459228033260000,11.493260009765624,-0.1479778289794922,-0.06001269444823265,0.26943206787109375
1772459228043257000,11.503257080078125,-0.24053706228733063,-0.09527818113565445,0.2117047905921936
1772459228053254100,11.513254150390624,-0.3271438479423523,-0.12410237640142441,0.15015754103660583
1772459228063252200,11.523252197265625,-0.4096010625362396,-0.1331416368484497,0.0863921046257019
1772459228073249000,11.5332490234375,-0.4726655185222626,-0.1432797610759735,0.014956801198422909
1772459228083246000,11.54324609375,-0.5168195962905884,-0.15295422077178955,-0.06672794371843338
1772459228093243100,11.5532431640625,-0.5428504347801208,-0.17423847317695618,-0.15724878013134003
1772459228103240000,11.563239990234376,-0.560872495174408,-0.19597825407981873,-0.24856922030448914
1772459228113238000,11.573238037109375,-0.5586114525794983,-0.2130374014377594,-0.32983824610710144
1772459228123235000,11.583235107421874,-0.5396384596824646,-0.2044096738100052,-0.4069013297557831
1772459228133232000,11.593232177734375,-0.5066807866096497,-0.18658167123794556,-0.47664687037467957
1772459228143229000,11.60322900390625,-0.45583298802375793,-0.13354438543319702,-0.5145835280418396
1772459228153226200,11.613226318359375,-0.3907559812068939,-0.03453445807099342,-0.5205061435699463
1772459228163224300,11.623224365234375,-0.31144624948501587,0.04509832710027695,-0.494733989238739
1772459228173221000,11.63322119140625,-0.22041861712932587,0.06547470390796661,-0.44096049666404724
1772459228183218000,11.643218017578125,-0.12467489391565323,0.08437313139438629,-0.35706445574760437
1772459228193215200,11.65321533203125,-0.02618560940027237,0.09472137689590454,-0.25122883915901184
1772459228203212000,11.6632119140625,0.062383364886045456,0.09592435508966446,-0.14045850932598114
1772459228213210000,11.673210205078124,0.11484257876873016,0.10259823501110077,-0.032872918993234634
1772459228223207000,11.68320703125,0.14197057485580444,0.14282192289829254,0.06713059544563293
1772459228233204200,11.693204345703125,0.15427890419960022,0.17105649411678314,0.1528412401676178
1772459228243201000,11.703200927734375,0.14804504811763763,0.16161078214645386,0.21838350594043732
1772459228253198000,11.713197998046875,0.12804338335990906,0.15229050815105438,0.24578717350959778
1772459228263196000,11.72319580078125,0.10452000051736832,0.14404399693012238,0.25904422998428345
1772459228273193200,11.733193115234375,0.08775992691516876,0.1507256031036377,0.2662574052810669
1772459228283190000,11.74318994140625,0.0726800486445427,0.1762208491563797,0.26684969663619995
1772459228293187000,11.75318701171875,0.06748475134372711,0.2032812237739563,0.264453649520874
1772459228303184100,11.76318408203125,0.07067614793777466,0.2205340415239334,0.251626580953598
1772459228313182200,11.77318212890625,0.08091040700674057,0.21284708380699158,0.22442904114723206
1772459228323179000,11.783178955078125,0.0984942689538002,0.15114784240722656,0.18580695986747742
1772459228333176000,11.793176025390625,0.13976074755191803,0.12970192730426788,0.15747785568237305
1772459228343173000,11.803173095703125,0.2024300992488861,0.14123818278312683,0.1425146460533142
1772459228353170200,11.813170166015626,0.27511149644851685,0.1658061146736145,0.13556966185569763
1772459228363168000,11.82316796875,0.3374147117137909,0.19382472336292267,0.1300310492515564
1772459228373165000,11.8331650390625,0.38582643866539,0.21106310188770294,0.12421416491270065
1772459228383162000,11.843162109375,0.40944647789001465,0.22711673378944397,0.11794775724411011
1772459228393159200,11.8531591796875,0.41523540019989014,0.22127161920070648,0.11384116113185883
1772459228403156000,11.863156005859375,0.3925735652446747,0.20111201703548431,0.10439974069595337
1772459228413153300,11.8731533203125,0.355564147233963,0.16942653059959412,0.09420409798622131
1772459228423151000,11.883151123046876,0.3185217082500458,0.14307013154029846,0.09163320064544678
1772459228433148200,11.893148193359375,0.2857126295566559,0.13635364174842834,0.10534129291772842
1772459228443145000,11.90314501953125,0.2650817632675171,0.1836497187614441,0.1303618997335434
1772459228453142300,11.913142333984375,0.26509082317352295,0.2687462270259857,0.1775408536195755
1772459228463139000,11.92313916015625,0.268494188785553,0.319521963596344,0.22313512861728668
1772459228473137200,11.93313720703125,0.2647750675678253,0.3356817662715912,0.2546669840812683
1772459228483134000,11.943134033203124,0.24723871052265167,0.36860746145248413,0.2789234220981598
1772459228493131300,11.95313134765625,0.2228577435016632,0.3941117823123932,0.2986033856868744
1772459228503128000,11.963128173828125,0.21003438532352448,0.3936930298805237,0.31348368525505066
1772459228513125000,11.973125,0.1941949725151062,0.36238276958465576,0.31969016790390015
1772459228523122400,11.983122314453125,0.1565728783607483,0.31081804633140564,0.320783793926239
1772459228533119700,11.99311962890625,0.10740692913532257,0.2472928762435913,0.31652992963790894
1772459228543116500,12.003116455078125,0.055222488939762115,0.18097886443138123,0.32272911071777344
1772459228553113300,12.01311328125,0.010608945973217487,0.10206513851881027,0.31494203209877014
1772459228563110700,12.023110595703125,-0.03186637535691261,0.023836908861994743,0.29335740208625793
1772459228573108700,12.033108642578124,-0.06642461568117142,-0.033302273601293564,0.2533852159976959
1772459228583105500,12.04310546875,-0.09222089499235153,-0.05834322050213814,0.20730890333652496
1772459228593102300,12.053102294921874,-0.09363556653261185,-0.052899982780218124,0.16502882540225983
1772459228603099600,12.063099609375,-0.07624571770429611,-0.01568043790757656,0.13426938652992249
1772459228613096400,12.073096435546875,-0.0536075159907341,0.04581141844391823,0.1206989660859108
1772459228623094500,12.083094482421876,-0.02501003071665764,0.11924048513174057,0.12311456352472305
1772459228633091300,12.09309130859375,0.01734674721956253,0.19610676169395447,0.13864478468894958
1772459228643088600,12.103088623046874,0.06923158466815948,0.23941382765769958,0.16451486945152283
1772459228653085400,12.11308544921875,0.12508846819400787,0.2632669508457184,0.20341433584690094
1772459228663082500,12.12308251953125,0.1870715171098709,0.28343823552131653,0.23919633030891418
1772459228673080300,12.133080322265625,0.264973521232605,0.3193131387233734,0.28384023904800415
1772459228683077600,12.14307763671875,0.3641144335269928,0.3959449231624603,0.349938303232193
1772459228693074400,12.153074462890626,0.4744254946708679,0.48599252104759216,0.4216782748699188
1772459228703071500,12.163071533203125,0.5649025440216064,0.5441685318946838,0.47834062576293945
1772459228713068500,12.173068603515626,0.628147304058075,0.5570768713951111,0.5064311027526855
1772459228723065600,12.183065673828125,0.6478860378265381,0.5133817195892334,0.4935722351074219
1772459228733063400,12.1930634765625,0.6393253207206726,0.437772661447525,0.4395713210105896
1772459228743060500,12.203060546875,0.6254482865333557,0.3496730923652649,0.36366355419158936
1772459228753057500,12.2130576171875,0.6244767904281616,0.27466678619384766,0.2835013270378113
1772459228763054600,12.2230546875,0.6360276341438293,0.228116974234581,0.19947171211242676
1772459228773051400,12.233051513671874,0.6482715010643005,0.1848563253879547,0.11078816652297974
1772459228783049500,12.243049560546876,0.6466847658157349,0.12454461306333542,0.02022499218583107
1772459228793046500,12.253046630859375,0.6208483576774597,0.03894927725195885,-0.07868906855583191
1772459228803043600,12.263043701171876,0.559290885925293,-0.08005110919475555,-0.18932737410068512
1772459228813040400,12.273040283203125,0.4716028571128845,-0.2069544643163681,-0.31194087862968445
1772459228823037700,12.28303759765625,0.38040730357170105,-0.3064373731613159,-0.426061749458313
1772459228833035500,12.293035400390625,0.3031095862388611,-0.353879451751709,-0.5152004361152649
1772459228843032600,12.303032470703124,0.23697271943092346,-0.34934648871421814,-0.5718451142311096
1772459228853029400,12.313029296875,0.20564915239810944,-0.28690627217292786,-0.5829198956489563
1772459228863026700,12.323026611328125,0.21547283232212067,-0.18537452816963196,-0.5504564046859741
1772459228873023500,12.3330234375,0.2706894874572754,-0.05957052484154701,-0.4922197163105011
1772459228883021600,12.343021484375,0.35041946172714233,0.06961151212453842,-0.41941502690315247
1772459228893018400,12.353018310546876,0.4514691233634949,0.20366759598255157,-0.3461887538433075
1772459228903015700,12.363015625,0.5535798072814941,0.3486892282962799,-0.2645435929298401
1772459228913012500,12.373012451171874,0.6369005441665649,0.47744986414909363,-0.20464056730270386
1772459228923009500,12.383009521484375,0.6912894248962402,0.5653514266014099,-0.16302327811717987
1772459228933007400,12.39300732421875,0.7331039905548096,0.6068122982978821,-0.15195545554161072
