time,seconds_elapsed,z,y,x
1772459230837259800,0.078259765625,-0.07068330951035022,0.7723270192772149,0.3691575028453022
1772459230847256600,0.088256591796875,-0.08599486041069031,0.6779062758266925,0.4799219532554969
1772459230857254700,0.098254638671875,-0.10315525404810905,0.5305968227535486,0.5270900567416101
1772459230867251700,0.108251708984375,-0.06788461870253086,0.43304961784556506,0.5051080516340211
1772459230877248800,0.118248779296875,-0.02505436175763607,0.4426381149239838,0.489456856983155
1772459230887245600,0.12824560546875,-0.008768412867188453,0.4582619466438889,0.4402308711191639
1772459230897243000,0.138242919921875,0.002387187397480011,0.43332521991655226,0.39005247990116476
1772459230907240700,0.14824072265625,0.06290215411484242,0.4417947959676385,0.3723639707364142
1772459230917237800,0.15823779296875,0.13970599233210085,0.49360930048748847,0.3347939358746633
1772459230927234600,0.168234619140625,0.16328735892772672,0.5650849294193089,0.24825512304669245
1772459230937232000,0.17823193359375,0.23229425965845585,0.59916577045843,0.14390248504071496
1772459230947228700,0.188228759765625,0.39286359179913993,0.631863048184663,0.049839834312861785
1772459230957226800,0.198226806640625,0.49597734479308125,0.6496855589926243,-0.030672306670690885
1772459230967223600,0.2082236328125,0.5209206473916769,0.6510733600892126,-0.030097461358224973
1772459230977220900,0.218220947265625,0.4347153591006994,0.6047777651213109,0.02257283800705336
1772459230987217700,0.2282177734375,0.3148351802229881,0.5457894234493375,0.0598527034163475
1772459230997214700,0.238214599609375,0.32749592435359953,0.517060903223604,0.011350574847497045
1772459231007211800,0.248211669921875,0.4186012596458196,0.5298031881578267,-0.04295980160869658
1772459231017209900,0.2582099609375,0.40378187617659567,0.539090364202112,-0.07202011107206344
1772459231027206700,0.26820654296875,0.2575678171247244,0.48580958652198314,-0.06314449323704466
1772459231037203700,0.27820361328125,0.1899146690905094,0.38979397509545083,-0.04678781719794497
1772459231047200800,0.28820068359375,0.23649931013286113,0.3078030896291137,-0.050226933934306724
1772459231057197600,0.298197509765625,0.2655535551816225,0.2770426251843571,-0.049419901000894606
1772459231067195600,0.308195556640625,0.21921850498616693,0.24739479815661905,-0.050074099726462734
1772459231077192700,0.318192626953125,0.15931436364352702,0.2143906464383006,-0.03294593699136749
1772459231087189800,0.328189697265625,0.0920294643998146,0.22073563155084847,0.03008114497766364
1772459231097186600,0.3381865234375,0.06548866347670555,0.245123346093297,0.03387985227403696
1772459231107183600,0.34818359375,0.08748246861994266,0.27628654612004755,-0.020378789428342134
1772459231117181700,0.358181640625,0.06365034213364124,0.28590368477106093,-0.08695558606847188
1772459231127178800,0.3681787109375,0.016489947029948233,0.2851246632225811,-0.12762231743708252
1772459231137175600,0.378175537109375,0.008476736444234847,0.316404767627269,-0.17967689605681225
1772459231147172600,0.388172607421875,0.050911272069811817,0.32823987458869813,-0.23407228391533716
1772459231157169700,0.398169677734375,0.06107786129713058,0.36322877038344736,-0.26848272223500536
1772459231167167700,0.408167724609375,0.05559621501564979,0.3757039288140833,-0.2568829218667932
1772459231177164800,0.418164794921875,0.14013970757424832,0.35145211561098694,-0.24968884564423932
1772459231187161600,0.42816162109375,0.20817104127109048,0.2789665789842605,-0.26592520150560883
1772459231197158700,0.43815869140625,0.241885679346323,0.1888176676340401,-0.2742014469416812
1772459231207155700,0.44815576171875,0.2637234171450138,0.09269991100728511,-0.2592871699969284
1772459231217153800,0.45815380859375,0.2680681683510542,0.005920914481580257,-0.24899417791096493
1772459231227150600,0.468150634765625,0.2035088946789503,-0.10091302807927131,-0.22927341399993745
1772459231237147600,0.478147705078125,0.17257891888618468,-0.24340236751958727,-0.2171175689178519
1772459231247144700,0.488144775390625,0.2265922486245632,-0.388579630869627,-0.24957007810277862
1772459231257141500,0.4981416015625,0.30538696839809415,-0.4516961583875119,-0.3178167533170432
1772459231267139600,0.5081396484375,0.3794996678352356,-0.4299047439485788,-0.3806170910252258
1772459231277136600,0.51813671875,0.4222404929310083,-0.427115259360522,-0.40163624245002866
1772459231287133700,0.5281337890625,0.41930677756667134,-0.49895475316867227,-0.37883254569601266
1772459231297130500,0.538130615234375,0.4067255284130573,-0.5815285530894995,-0.3031526334747672
1772459231307127800,0.5481279296875,0.4317576783388853,-0.6460460334464907,-0.2724166824167594
1772459231317124600,0.55812451171875,0.5038374106436968,-0.6762002025611699,-0.27155838508699087
1772459231327122700,0.568122802734375,0.5094137494713068,-0.6763697139091789,-0.22730518266689032
1772459231337119500,0.578119384765625,0.5794926633477211,-0.6669425448723137,-0.23230602316148577
1772459231347116800,0.58811669921875,0.70310735257864,-0.6684855365306138,-0.24786592279970646
1772459231357113600,0.598113525390625,0.7469535085678101,-0.6886490575067699,-0.21476079492494463
1772459231367110700,0.608110595703125,0.7086240701735019,-0.7092432249851525,-0.1311836357810069
1772459231377108500,0.6181083984375,0.6634487114071845,-0.6953758815437555,-0.05588842116156593
1772459231387105800,0.628105712890625,0.7028940020889043,-0.6777462629593909,-0.02888056898228824
1772459231397102600,0.6381025390625,0.7384428698539733,-0.6650957479618489,-0.007866513857711106
1772459231407099600,0.648099609375,0.7595341731995344,-0.6589335720703006,0.04026785911098122
1772459231417096700,0.6580966796875,0.8699901056498288,-0.6573590162299573,0.05039398846374824
1772459231427094800,0.6680947265625,1.0066174211889505,-0.6423521473646163,0.05650631559789181
1772459231437091600,0.678091552734375,1.0755196925014257,-0.621857202477008,0.12429028693754225
1772459231447088600,0.688088623046875,1.0386948134511709,-0.6499475709296763,0.21819522635303437
1772459231457085700,0.698085693359375,0.9772223998785018,-0.6900752909176051,0.27104181386698034
1772459231467082800,0.708082763671875,0.9858616334080695,-0.7159405306667089,0.3027528022359125
1772459231477080600,0.71808056640625,0.8839572562038898,-0.6900890271820127,0.31474085300303994
1772459231487077600,0.72807763671875,0.6690799952924251,-0.613565467210859,0.324208865506947
1772459231497074700,0.73807470703125,0.4653542429924011,-0.5467017159886658,0.3041213141101412
1772459231507071700,0.74807177734375,0.33671558811962604,-0.4837712125621736,0.24666958915460854
1772459231517068500,0.758068603515625,0.10530804816782474,-0.3994527609311044,0.20289929314693436
1772459231527067100,0.768067138671875,-0.2056441531419754,-0.28955110136270523,0.1647048245102167
1772459231537064200,0.778064208984375,-0.5157581500619649,-0.16536080420091748,0.16679439893430098
1772459231547061200,0.788061279296875,-0.8099380802690982,-0.06116451666727662,0.12200022150529548
1772459231557058000,0.79805810546875,-0.9962865813106297,0.01753887156099081,0.005272588374372571
1772459231567055000,0.80805517578125,-1.2032342182666063,0.061773588476330035,-0.011202818673569708
1772459231577053200,0.81805322265625,-1.5658300975739956,0.002973608983308077,0.04650896372394636
1772459231587050200,0.82805029296875,-1.9056886598944662,-0.08291501457393169,0.05481472751544788
1772459231597047000,0.838047119140625,-2.1530577390879393,-0.014577099145948886,0.06463234804146922
1772459231607044000,0.848044189453125,-2.4870447790265082,0.14755042222216724,0.06675420816680416
1772459231617041200,0.858041259765625,-2.7854782750248908,0.1787270662523806,0.06504638133561239
1772459231627038200,0.8680380859375,-2.8971903450161216,0.17150719800144432,-0.00238856650381349
1772459231637036000,0.8780361328125,-2.7925784624189136,0.2645826643228531,-0.0924730069162324
1772459231647033000,0.888033203125,-2.5329215640604494,0.30312910646870733,-0.10701653258614241
1772459231657030100,0.898030029296875,-2.237643317222595,0.26327947276979685,-0.04743409747853875
1772459231667027200,0.908027099609375,-1.9732038607627151,0.2226983099259436,0.07010247741509229
1772459231677024000,0.91802392578125,-1.6962462835133074,0.17239326012097297,0.11377981617599725
1772459231687022300,0.928022216796875,-1.4402093292176723,0.14847667022161185,0.2431974195320159
1772459231697019100,0.93801904296875,-1.2497820344299078,0.18574958530031144,0.429610912101157
1772459231707016200,0.94801611328125,-1.063150040271878,0.20483561323806643,0.6176530287854373
1772459231717013200,0.95801318359375,-0.8671306245654821,0.17230185551047325,0.8028763982545584
1772459231727010300,0.96801025390625,-0.6050549746274948,0.160590082667768,0.9045767042540013
1772459231737008000,0.978008056640625,-0.3218926975190639,0.25684987811371685,0.9263028714369982
1772459231747005200,0.988005126953125,-0.017181436425447463,0.37573739269226786,0.9056677874263376
1772459231757002200,0.998002197265625,0.29534371328949927,0.44420857911109923,0.8866790823832154
1772459231766999300,1.007999267578125,0.5482365243405103,0.49241205352693795,0.7848685209423303
1772459231776996000,1.01799609375,0.810498052239418,0.5713479353368281,0.7480873349033296
1772459231786994200,1.027994140625,1.1023930863797664,0.6218466810829937,0.7351607794433832
1772459231796991200,1.0379912109375,1.3667039480239151,0.6264629427067935,0.7553064725019037
1772459231806988300,1.04798828125,1.5869471198827028,0.5958293195120989,0.8296299651455133
1772459231816985000,1.057985107421875,1.750076657900214,0.5116621129199862,0.9273519420985132
1772459231826982100,1.067982177734375,1.8793430892825125,0.4130712441779673,1.071069142833352
1772459231836980200,1.077980224609375,1.8785639216035603,0.34447102455198764,1.2085606739863752
1772459231846977300,1.087977294921875,1.7265473137527703,0.28988574014455076,1.3985092453464865
1772459231856974000,1.09797412109375,1.472580735990405,0.21256299261972306,1.5903069517046213
1772459231866971100,1.10797119140625,1.2716957600742578,0.12524550530314446,1.7190462904728947
1772459231876968200,1.11796826171875,1.15760936216712,0.031984453281760215,1.7791870170503854
1772459231886965200,1.12796533203125,1.0822206514447927,-0.040158115126192565,1.7875367661140857
1772459231896963000,1.137963134765625,1.0446972687363625,-0.040900019534677264,1.7777391563296316
1772459231906960100,1.147960205078125,0.9573977554678916,0.055212330264598125,1.8152964413076638
1772459231916957200,1.157957275390625,0.8124737362265586,0.1543853828087449,1.8695209295786916
1772459231926954200,1.167954345703125,0.5316133063197136,0.2684194660067558,1.8943039270490407
1772459231936951000,1.177950927734375,0.20270459255874157,0.4240346828714013,1.8211369840294123
1772459231946949000,1.18794921875,-0.03188391551673412,0.6364404391027987,1.6503171837702393
1772459231956946200,1.1979462890625,-0.2666688229471445,0.8483955289572477,1.55165266527012
1772459231966943200,1.207943115234375,-0.38477673145532604,1.117417490901798,1.4753759196668863
1772459231976940000,1.21793994140625,-0.40553368827998637,1.378597507174313,1.3468081380732357
1772459231986937300,1.227937255859375,-0.33474574935138224,1.530391558315605,1.194744183949381
1772459231996935200,1.23793505859375,-0.2565162622451782,1.5870955884426832,1.0455062470316887
1772459232006932200,1.24793212890625,-0.20775077003240583,1.6010145159408449,0.9464762562200426
1772459232016929000,1.257928955078125,-0.12174071205258369,1.5224465906605125,0.6800598005987704
1772459232026926300,1.26792626953125,0.11365151362121105,1.3239186992645262,0.483557167952694
1772459232036923100,1.277923095703125,0.36093466809689995,1.086648258628696,0.3587001139778644
1772459232046921200,1.287921142578125,0.5422445904493332,0.8646064398501068,0.33983119938950984
1772459232056918300,1.297918212890625,0.6567161882817745,0.6387563878949731,0.45581082716472443
1772459232066915300,1.307915283203125,0.6765788266152143,0.4220208588309586,0.7269909169912337
1772459232076912000,1.317912109375,0.637500031158328,0.2602291452884674,1.1048298120073974
1772459232086909200,1.3279091796875,0.5762397990316153,0.0670808280389756,1.3372978207975625
1772459232096906200,1.33790625,0.5506675508797169,-0.16931319508850573,1.456496008760482
1772459232106904300,1.347904296875,0.48750353095829485,-0.3845893191244453,1.5525724104635417
1772459232116901000,1.357901123046875,0.39090310538113116,-0.5514959645278752,1.5155048086985945
1772459232126898200,1.367898193359375,0.3519745320498943,-0.6113438456386328,1.4889397501170634
1772459232136895200,1.377895263671875,0.2926876458227634,-0.6234730401758104,1.5005350569732487
1772459232146892000,1.38789208984375,0.21038930184245108,-0.624013576793298,1.5651137659981846
1772459232156890000,1.39789013671875,0.15467618244886397,-0.6218513572581112,1.6033894283786414
1772459232166887200,1.40788720703125,0.18132921157479284,-0.5568581126155331,1.5403626249708235
1772459232176884200,1.41788427734375,0.1928290952324867,-0.40956027691494673,1.4324253973431884
1772459232186881000,1.427881103515625,0.09766951611340045,-0.2922475373724475,1.3420344939306377
1772459232196878000,1.437878173828125,-0.010205167672038077,-0.2272059966087341,1.2768550425335765
1772459232206876200,1.447876220703125,-0.15046002605855463,-0.1938795176008716,1.1700248993650078
1772459232216873200,1.457873291015625,-0.26830899136960507,-0.20596596897486597,1.0013491984624414
1772459232226870000,1.4678701171875,-0.3644014674246311,-0.192253889160417,0.82326021091789
1772459232236867000,1.4778671875,-0.5268249029994011,-0.13910039112176745,0.6901322818018496
1772459232246864100,1.487864013671875,-0.7604629784822463,-0.08061623611226677,0.6133209909304976
1772459232256862200,1.4978623046875,-0.9289794702351093,-0.06060918433945626,0.5277115861734375
1772459232266859300,1.507859375,-1.0880196931123733,-0.03923731048684567,0.4207524097977206
1772459232276856000,1.51785595703125,-1.226519232264161,0.006416735174506903,0.3288356850573793
1772459232286853000,1.52785302734375,-1.235779228040576,0.06557122719362378,0.23102349080396814
1772459232296850200,1.53785009765625,-1.2775099993109702,0.12466043542418628,0.158625376732368
1772459232306847000,1.547846923828125,-1.278978318297863,0.14605937994681298,0.11901124142291955
1772459232316845000,1.557844970703125,-1.221271394738555,0.024279687590710818,0.12592138613755813
1772459232326842000,1.567842041015625,-1.2168366271615028,-0.19908526955042033,0.160095175290294
1772459232336839200,1.577839111328125,-1.2884475729107856,-0.2742330111237243,0.17598182266484946
1772459232346836000,1.5878359375,-1.330747083979845,-0.1800637582162395,0.21530489347269757
1772459232356833300,1.597833251953125,-1.379906543946266,-0.1526207477563992,0.22028976921318097
1772459232366831000,1.6078310546875,-1.4808914682179688,-0.227576437356323,0.13037375330338255
1772459232376828200,1.617828125,-1.5696464409917592,-0.3090792470447719,-0.021952523284777998
1772459232386825000,1.627824951171875,-1.5915122358411549,-0.28912264681756494,-0.18650665074530987
1772459232396822300,1.637822265625,-1.5129624307394027,-0.20613960850872098,-0.364620115143992
1772459232406819000,1.647819091796875,-1.3492939635396002,-0.10230915861278772,-0.5240721336925402
1772459232416817200,1.657817138671875,-1.1878466795206069,-0.004769990880787373,-0.6148243812307715
1772459232426814000,1.66781396484375,-1.0816244391173124,0.06574936023950577,-0.6795191178508102
1772459232436811300,1.677811279296875,-0.8893459635049105,0.1415925367310643,-0.7343333887085318
1772459232446808000,1.68780810546875,-0.6999760688155889,0.2218691656254232,-0.739456138549745
1772459232456805000,1.69780517578125,-0.5201479094535112,0.29501674635745584,-0.7426503314811735
1772459232466803200,1.70780322265625,-0.30704701056480405,0.36554340400137003,-0.8054417917631566
1772459232476800300,1.71780029296875,-0.13069558740258216,0.4112064732193947,-0.8227158749081194
1772459232486797000,1.727797119140625,-0.055397477573156356,0.40678215397112066,-0.7534037806857377
1772459232496794000,1.737794189453125,0.1763467469871044,0.38643984236195683,-0.7126448501221835
1772459232506791200,1.747791259765625,0.45345629992783065,0.43385633111856875,-0.7065254904590547
1772459232516788200,1.757788330078125,0.6801537624925375,0.47066024044603105,-0.7345616445064544
1772459232526784800,1.76778466796875,0.8436550564318895,0.4397071760386228,-0.7124947741270065
1772459232536781800,1.77778173828125,0.9290636413872242,0.3649617316558957,-0.691008553179726
1772459232546778600,1.787778564453125,1.0146575197815895,0.30155440449789167,-0.6830356015391648
1772459232556775700,1.797775634765625,1.0576754082530737,0.2687038359060883,-0.6867395706236362
1772459232566772700,1.807772705078125,1.049005779585242,0.2560699797824025,-0.6672293989896774
1772459232576770800,1.817770751953125,1.0488526348501443,0.24544702508971095,-0.6634655894767493
1772459232586767600,1.827767578125,1.0255793112903833,0.2330550148978829,-0.667383128246665
1772459232596764700,1.8377646484375,0.960019336143136,0.23861454872116444,-0.674119085438177
1772459232606761700,1.84776171875,0.9158318193703889,0.2213029100447893,-0.6966527696117758
1772459232616758500,1.857758544921875,0.9455997656464576,0.21463117719590663,-0.7172605272240936
1772459232626756600,1.867756591796875,0.9804051215678453,0.2344596209987998,-0.7238861559089272
1772459232636753700,1.877753662109375,0.9905693727076053,0.26904344312399625,-0.7039647731255739
1772459232646750700,1.887750732421875,1.0639461590856314,0.28326953687518835,-0.6789362033963203
1772459232656747500,1.89774755859375,1.1108400122076272,0.2873927542850375,-0.653306452903524
1772459232666744800,1.907744873046875,1.1261702678084373,0.3566279108136892,-0.6624192952942103
1772459232676743000,1.917742919921875,1.1046703836619853,0.46112098933681844,-0.684543302688375
1772459232686739700,1.92773974609375,0.9864309577286243,0.4998638308376074,-0.7277743955191225
1772459232696736500,1.937736572265625,0.8658896845936774,0.4811164602696895,-0.7332868022650479
1772459232706733800,1.94773388671875,0.8418886312812566,0.44158612165302036,-0.7678788807619362
1772459232716730600,1.957730712890625,0.8698691096186637,0.39154520267695186,-0.8295571191050112
1772459232726727700,1.967727783203125,0.8264712819188833,0.3150540836706757,-0.8765592549070715
1772459232736725500,1.9777255859375,0.7578606870293617,0.2528632926955819,-0.8981954057190566
1772459232746722800,1.987722900390625,0.6933166109263896,0.16017784860506654,-0.9381929965212941
1772459232756719600,1.9977197265625,0.6489332793205976,0.03202127816081047,-0.9681728319823741
1772459232766716700,2.007716552734375,0.6192921742945909,-0.1025257239729166,-0.9371271208554506
1772459232776713700,2.017713623046875,0.5209989733248949,-0.2062254601612687,-0.8276710130974649
1772459232786711800,2.0277119140625,0.48588265175819395,-0.27228315569758416,-0.7187179594907909
1772459232796708600,2.03770849609375,0.4895283147841692,-0.35007790464833377,-0.6447444493286312
1772459232806705700,2.04770556640625,0.43899289028942584,-0.4417161777734756,-0.593408156779781
1772459232816702700,2.05770263671875,0.4405108936369419,-0.5951465979449451,-0.5286705308660864
1772459232826699800,2.06769970703125,0.4124994356393814,-0.7231349722154438,-0.469076039994508
1772459232836697600,2.077697509765625,0.29039515097141266,-0.8080109115988016,-0.37834388539623465
1772459232846694700,2.087694580078125,0.20060557445287702,-0.8752786405120044,-0.29651009018775076
1772459232856691700,2.097691650390625,0.18197803087234496,-0.9313288829054683,-0.2774223452169448
1772459232866688800,2.107688720703125,0.13233867843449115,-0.974228771020472,-0.2883179976374842
1772459232876685600,2.117685546875,0.0063338791966438285,-1.0170141659103333,-0.24107171434862537
1772459232886682600,2.1276826171875,-0.12436638438105582,-1.0621462700568138,-0.21478859624732285
1772459232896680700,2.1376806640625,-0.24177812731862067,-1.0312999539595096,-0.21512422140985726
1772459232906677800,2.147677734375,-0.3425783426731825,-0.9317311070308089,-0.22058343666382133
1772459232916674600,2.157674560546875,-0.4837158291131258,-0.8862423714663833,-0.1709176346104592
1772459232926671600,2.167671630859375,-0.5823229183375835,-0.8917329317066818,-0.10485768318497575
1772459232936668700,2.177668701171875,-0.6219681155055761,-0.860441063798964,-0.04941623860592954
1772459232946666800,2.187666748046875,-0.6555564968526363,-0.7516010421127081,-0.061855631603440264
1772459232956663600,2.19766357421875,-0.7122142036199569,-0.6082138039845972,-0.08080421469872817
1772459232966660900,2.207660888671875,-0.7343745975017547,-0.46915063960067926,-0.09319068106575869
1772459232976657700,2.21765771484375,-0.8030442291021347,-0.3940313204042613,-0.052398186159320174
1772459232986654700,2.22765478515625,-0.834300952631235,-0.35317375177182253,-0.032426552759762854
1772459232996652500,2.237652587890625,-0.8498071493208408,-0.2632097685344517,-0.021738003751263023
1772459233006649900,2.24764990234375,-0.9354285002440214,-0.1734403580211103,-0.04724706874014809
1772459233016646700,2.257646728515625,-0.8816086472511291,-0.1206478022493422,-0.1157446134429425
1772459233026643700,2.267643798828125,-0.8232774543136357,-0.15706775376051663,-0.11041411173571831
1772459233036640800,2.277640869140625,-0.8266361170917749,-0.40383039149343963,0.036032189736026336
1772459233046637800,2.287637939453125,-0.8548200090467929,-0.7587647962622344,0.17874657467044888
1772459233056635600,2.2976357421875,-0.959444751125574,-0.8964850216045975,0.2176979443553835
1772459233066632700,2.3076328125,-1.0746733048051595,-0.8515596920765935,0.289413446457684
1772459233076629800,2.317629638671875,-1.239675066435337,-0.8715716757528483,0.4058539697429165
1772459233086626800,2.327626708984375,-1.4312047695070504,-1.0109968053169547,0.6045447600830346
1772459233096623600,2.33762353515625,-1.5183172357708214,-1.1696379458740354,0.6673430154319853
1772459233106621700,2.34762158203125,-1.567946066814661,-1.1432201868087053,0.5664187718389555
1772459233116618800,2.35761865234375,-1.6237211455285547,-0.89571579079777,0.42303409099411216
1772459233126615800,2.36761572265625,-1.6294342624783515,-0.6311977161437272,0.3133474258832633
1772459233136612600,2.377612548828125,-1.6158897212505339,-0.3942964010812342,0.23643627310032023
1772459233146609700,2.387609619140625,-1.5332815806686877,-0.11235592085272073,0.1027262515136972
1772459233156607700,2.397607666015625,-1.4075269567996262,0.24506489390432834,-0.04812248160149902
1772459233166604800,2.407604736328125,-1.3074994793832302,0.6401110904395579,-0.19562208695188163
1772459233176601600,2.4176015625,-1.0184949059873818,0.8945401711471378,-0.34927093564700334
1772459233186598700,2.4275986328125,-0.6160708741605282,1.0194020839601754,-0.47666905240677293
1772459233196595700,2.437595703125,-0.283840907022357,1.1399008331276477,-0.5828351787086576
1772459233206593800,2.44759375,0.056523266732692715,1.234254648821801,-0.6264633080329746
1772459233216590600,2.457590576171875,0.39734278303980824,1.3375398128598928,-0.5669911648994311
1772459233226587600,2.467587646484375,0.5709539675831794,1.40775287450999,-0.49423711352962996
1772459233236584700,2.477584716796875,0.7752963904768229,1.3280655898109077,-0.32272224367838354
1772459233246581800,2.487581787109375,0.976119991594553,1.1353900777049362,-0.11119929816350341
1772459233256578600,2.49757861328125,1.0579513025850058,0.9252793005429207,0.09330686392448842
1772459233266576600,2.50757666015625,1.0877888069659472,0.7639248093739152,0.32042262496650215
1772459233276573700,2.51757373046875,1.0885843412578105,0.6629748102851212,0.5492912940904497
1772459233286570800,2.52757080078125,1.1141922452449797,0.6259621535778045,0.7557992975201457
1772459233296567600,2.537567626953125,1.0609136595219373,0.5557451464049518,0.9589563100215047
1772459233306564600,2.547564697265625,0.9191799607545137,0.44145913427248595,1.1130429290793835
1772459233316562700,2.557562744140625,0.7147346620082855,0.334949455229938,1.1411493718840182
1772459233326559700,2.567559814453125,0.5517506699413061,0.21541195231005547,1.1118360375076533
1772459233336556800,2.577556884765625,0.49971185514628885,0.15957447588443754,1.0743762946199624
1772459233346553600,2.5875537109375,0.4826251112669706,0.23850319730117917,1.0209675797112285
1772459233356550700,2.597550537109375,0.39421325284242625,0.3900412278547883,0.9979210506446659
1772459233366547700,2.607547607421875,0.3388941012024879,0.5275811281941831,0.9415487366899847
1772459233376545800,2.6175458984375,0.22145254764854908,0.7181603986732661,0.8022785054266452
1772459233386542600,2.62754248046875,0.02606733819246292,0.9227923060327767,0.6058567194644361
1772459233396539600,2.63753955078125,-0.12049801851511001,1.1054416602954267,0.38804545092768966
1772459233406536700,2.64753662109375,-0.17381401363909244,1.2420197298653424,0.14596468740068375
1772459233416533800,2.65753369140625,-0.2214858653962612,1.3285748545072973,-0.037370091842859984
1772459233426531800,2.66753173828125,-0.12633330053985117,1.3529774743579328,-0.2116181129850447
1772459233436528600,2.677528564453125,0.08362988484501838,1.3783333032801746,-0.36237580681592224
1772459233446525700,2.687525634765625,0.3059872723788023,1.4218866138026118,-0.4328581869266927
1772459233456522800,2.697522705078125,0.4844727849602699,1.3784863018848001,-0.4240202159546315
1772459233466519600,2.70751953125,0.6742588592350482,1.233507483716309,-0.33382830571290106
1772459233476517600,2.717517578125,0.8241121515721083,1.0675012212187052,-0.21496150512881576
1772459233486514700,2.7275146484375,0.8809732719570398,0.9244774826407433,0.03205554575659334
1772459233496511700,2.73751171875,0.9762538471072911,0.7269871175989508,0.24052217244077473
1772459233506508500,2.747508544921875,1.1147358506023883,0.4782509878359735,0.300354015732184
1772459233516505600,2.757505615234375,1.1224778430312872,0.2713898601196706,0.3811441836392507
1772459233526504700,2.767504638671875,1.0602981579720974,0.11591215202957392,0.5111808322090655
1772459233536501800,2.777501708984375,0.9856260710865259,-0.0675372665695846,0.6217797533266246
1772459233546498800,2.787498779296875,0.883444045984745,-0.2594008777707815,0.7601210331767797
1772459233556495600,2.79749560546875,0.8038795108824968,-0.4152002190306783,0.8380330518316477
1772459233566492700,2.80749267578125,0.6979156291544437,-0.5372619797311723,0.8587535491034388
1772459233576489700,2.81748974609375,0.5823299326002598,-0.5970042085103691,0.8368874619930982
1772459233586487800,2.82748779296875,0.5371855534940958,-0.5670039147831499,0.7641236198816448
1772459233596484600,2.837484619140625,0.5439484717577695,-0.5524548726879059,0.6139065357334912
1772459233606481700,2.847481689453125,0.45466976737082004,-0.5555488931804895,0.5124483679268509
1772459233616478700,2.857478759765625,0.2915776387542486,-0.5653017870403826,0.4415144446562975
1772459233626475500,2.8674755859375,0.2785024686038494,-0.5556674049936234,0.3510046641044319
1772459233636473600,2.8774736328125,0.22252397627234458,-0.5189813498921692,0.29055984001383184
1772459233646471000,2.887470947265625,-0.018068740653991697,-0.4729533198192715,0.27659320091642436
1772459233656467700,2.8974677734375,-0.1782417669534683,-0.4468180309571326,0.2223357602238655
1772459233666464500,2.907464599609375,-0.2959218054383993,-0.3976550638593733,0.18009966977983713
1772459233676461800,2.9174619140625,-0.39626375563144683,-0.338835210622102,0.13848591248523442
1772459233686458600,2.927458740234375,-0.43690965427458284,-0.3186673057317734,0.1264050506018102
1772459233696456700,2.937456787109375,-0.4398351863324642,-0.32276714226603503,0.12396167603768407
1772459233706453500,2.94745361328125,-0.4752922841608524,-0.3271791134893894,0.1553271571708843
1772459233716450800,2.957450927734375,-0.5221785384982824,-0.29250936664640903,0.19999818314425646
1772459233726447600,2.967447509765625,-0.5058668706446886,-0.20831337235122918,0.24906583664137869
1772459233736444700,2.977444580078125,-0.49382922684848307,-0.1132090305507183,0.3315531638551503
1772459233746442500,2.9874423828125,-0.5556260500699282,-0.019370909293740985,0.4332116765394807
1772459233756439800,2.997439697265625,-0.564807719913125,0.06156213768273592,0.47206707503665235
1772459233766436600,3.0074365234375,-0.5259124643296003,0.1292762221239507,0.5018273129303008
1772459233776433700,3.01743359375,-0.5219511594831944,0.031147417935729026,0.6392164796873927
1772459233786430700,3.0274306640625,-0.5441051236242056,-0.2814696478463709,0.7624805288497358
1772459233796428800,3.0374287109375,-0.594056610751152,-0.34931203484237194,0.6756346045676619
1772459233806425600,3.047425537109375,-0.6601087533295155,-0.038136838431656356,0.6645283233374357
1772459233816422700,3.057422607421875,-0.7560644512623548,0.06701850339248776,0.6983899686679244
1772459233826419700,3.067419677734375,-0.8246411438822746,-0.19816621847674248,0.7744246491435914
1772459233836416800,3.077416748046875,-0.924988939294219,-0.5103966230288147,0.7648361520651727
1772459233846413600,3.08741357421875,-1.0070487983435392,-0.4859498717755079,0.6859903596915304
1772459233856411600,3.09741162109375,-0.9802385328292846,-0.16254530838876963,0.567856841818057
1772459233866408700,3.10740869140625,-0.8856284042865037,0.08641118612661958,0.41752252449840305
1772459233876405800,3.11740576171875,-0.8736486281573772,0.12185922386571764,0.28498156495746224
1772459233886402600,3.127402587890625,-0.9185855019927024,0.1151505200073123,0.1950803082253784
1772459233896399600,3.137399658203125,-0.9385819958388805,0.2520127402808517,0.06762330088522285
1772459233906397700,3.147397705078125,-0.8907365410804748,0.4616670789122581,-0.10409669961668551
1772459233916394800,3.157394775390625,-0.7791741086930036,0.6141444361425936,-0.28611177456378933
1772459233926391600,3.1673916015625,-0.6260124224603176,0.6892385478325188,-0.4705485236998647
1772459233936388600,3.177388671875,-0.4614034595400095,0.7606272291332483,-0.5959368715398013
1772459233946385700,3.1873857421875,-0.2581318807482719,0.7878959059394895,-0.6616247108504176
1772459233956383700,3.1973837890625,-0.07325345225930213,0.7452152865983546,-0.7011631597083061
1772459233966380500,3.207380615234375,-0.024856793358922002,0.7628849449321627,-0.6868731338754296
1772459233976377600,3.217377685546875,0.08324293135404587,0.8234505458582192,-0.6706465870220214
1772459233986374700,3.227374755859375,0.30743980927467346,0.8064174318622798,-0.7187406097140163
1772459233996371700,3.237371826171875,0.5160235229998826,0.7403608323045074,-0.7779322919383644
1772459234006368500,3.247368408203125,0.549214429461956,0.7040447795592248,-0.7990580090101808
1772459234016366800,3.257366943359375,0.5901677866190671,0.676190923276171,-0.8280852929867804
1772459234026363600,3.26736376953125,0.7065987018257379,0.675980860722065,-0.9262979030009358
1772459234036360700,3.277360595703125,0.7850760262131691,0.6363662048228085,-0.9974697266805916
1772459234046357500,3.287357421875,0.8276824112743139,0.5600083568073809,-1.0598231608714908
1772459234056354800,3.297354736328125,0.8286813591837883,0.5105913418833166,-1.081644385926798
1772459234066352600,3.3073525390625,0.7532026320904492,0.4915161276005208,-1.1280987516529857
1772459234076349700,3.317349609375,0.7091267589986324,0.43590566486380994,-1.2232372879840432
1772459234086346800,3.3273466796875,0.731309949234128,0.3589154372289777,-1.3841490038216113
1772459234096343800,3.33734375,0.7485252879291773,0.33959486988298593,-1.543782808677852
1772459234106340600,3.347340576171875,0.733296154615283,0.3818262110866606,-1.6447183408498762
1772459234116338700,3.357338623046875,0.6973509810090065,0.4165918925847858,-1.7407903586387634
1772459234126335700,3.367335693359375,0.6361351725459099,0.4283458971340209,-1.8296356400445102
1772459234136332800,3.377332763671875,0.5963795007407665,0.4259959730070084,-1.9100284426644443
1772459234146329600,3.38732958984375,0.5505559071987867,0.4253106941565871,-2.018291979636997
1772459234156326700,3.39732666015625,0.5737801309198141,0.42393465656302864,-2.1544749124094844
1772459234166323700,3.40732373046875,0.6735761376678944,0.4106685669504106,-2.2667640516363083
1772459234176321800,3.41732177734375,0.7727765166103839,0.41288953093551095,-2.303205630457401
1772459234186318600,3.427318603515625,0.8568623285293578,0.3861664322480559,-2.2782684653386474
1772459234196315600,3.437315673828125,0.9380161786496639,0.3031156624652445,-2.1821477861024436
1772459234206312700,3.447312744140625,1.0485632965147496,0.1551536637675017,-2.0974162236258387
1772459234216309800,3.457309814453125,1.1660942819178104,0.04649462467133999,-1.9887536043331027
1772459234226307600,3.4673076171875,1.2414707176804542,-0.07003204252738505,-1.8515699700854718
1772459234236304600,3.4773046875,1.2803724030047654,-0.22635701509658246,-1.759727991081774
1772459234246301700,3.4873017578125,1.2714520144462584,-0.38501784673482176,-1.757980562892556
1772459234256298800,3.497298828125,1.1158248148828744,-0.4364015220893547,-1.65400843950361
1772459234266295600,3.507295654296875,1.0220926382184028,-0.4778180397788062,-1.5276967662736773
1772459234276293600,3.517293701171875,0.8766524861484766,-0.5757482161223888,-1.5469526708856225
1772459234286290700,3.527290771484375,0.7580676077783107,-0.6454684527542441,-1.6024109387353063
1772459234296287700,3.537287841796875,0.7434002000004053,-0.6456838490705937,-1.6649620874553919
1772459234306284500,3.547284423828125,0.7001292135506868,-0.6207887695278972,-1.709383997505903
1772459234316281600,3.557281494140625,0.656077305856347,-0.612507372992672,-1.7180749612227082
1772459234326279700,3.56727978515625,0.6052133800595998,-0.6273650061130523,-1.6710747251167892
1772459234336276700,3.57727685546875,0.44495968973934646,-0.6135699241902679,-1.5900827875599264
1772459234346273500,3.5872734375,0.2892126631885767,-0.5336129191717133,-1.5262415990293026
1772459234356270800,3.597270751953125,0.17949965806007384,-0.45300461063757536,-1.4596239315226673
1772459234366267600,3.607267578125,0.07697276504337787,-0.43274581259340045,-1.4056240457877516
1772459234376264400,3.617264404296875,-0.0015285247415304183,-0.4346349873408675,-1.3360384683862327
1772459234386262500,3.627262451171875,-0.09566226794421673,-0.4469890036098659,-1.2818740397393702
1772459234396259800,3.637259765625,-0.1443313140451908,-0.40162681703455744,-1.22030138066262
1772459234406256600,3.647256591796875,-0.256050398299098,-0.3275659208498895,-1.0905968501240015
1772459234416253400,3.65725341796875,-0.30419337469935415,-0.2682305558385327,-1.0026109620265662
1772459234426250800,3.667250732421875,-0.3453612513899803,-0.22013777525555342,-0.9581656711004674
1772459234436248800,3.677248779296875,-0.42015141169726844,-0.16982457867674527,-0.8550627317614853
1772459234446245600,3.68724560546875,-0.5127490313738584,-0.07292626613155007,-0.7219198973372578
1772459234456242700,3.69724267578125,-0.5283166028618812,0.009218238993920385,-0.6432869439966976
1772459234466239700,3.70723974609375,-0.544811226066947,0.08162541315481066,-0.5536483202561736
1772459234476236500,3.717236572265625,-0.4894289460629225,0.14890421145129948,-0.5057267315216362
1772459234486234600,3.727234619140625,-0.5069803848445416,0.1727194598680362,-0.49005204639732836
1772459234496231700,3.737231689453125,-0.5569330410152673,0.15883180429097263,-0.418279772606492
1772459234506228700,3.747228759765625,-0.5746528221011161,0.08662186973523348,-0.4465279619693756
1772459234516225500,3.7572255859375,-0.7236579731762409,0.009054974723607301,-0.48137028890028594
1772459234526222600,3.76722265625,-0.8563181386500597,-0.020514818631857633,-0.5220728861667215
1772459234536219600,3.7772197265625,-0.7872288203328848,-0.02474639178700745,-0.576568300333619
1772459234546217500,3.787217529296875,-0.6708569418370723,-0.02554908647201955,-0.5973084521539509
1772459234556214500,3.797214599609375,-0.6569301232933997,-0.04605265305750072,-0.6141055654369294
1772459234566211600,3.807211669921875,-0.6167752230376005,-0.10385814162045717,-0.585686549551785
1772459234576208600,3.817208740234375,-0.5517343033283949,-0.1598677597425878,-0.47600759282335636
1772459234586205400,3.827205322265625,-0.5040753110527992,-0.16356493376009165,-0.3287738353349268
1772459234596203500,3.83720361328125,-0.5885287872403859,-0.2343672665402293,-0.1297797146666795
1772459234606200600,3.84720068359375,-0.7324275550872087,-0.28213556440919635,0.05939531503766775
1772459234616197600,3.85719775390625,-0.8979343436300754,-0.2343110793735832,0.1239686172351241
1772459234626194400,3.8671943359375,-1.0034750315099954,-0.1404670398324728,0.142404437635839
1772459234636191500,3.87719140625,-1.0334820472389459,-0.07956007812283933,0.11968282967470585
1772459234646189600,3.887189453125,-1.0829477966755627,-0.06945734791196882,0.01086048977561295
1772459234656186600,3.8971865234375,-1.1798749699890614,-0.07248327160440385,-0.0842902484498918
1772459234666183400,3.907183349609375,-1.2803899386614561,0.06007357962541282,-0.1888946053277701
1772459234676180500,3.917180419921875,-1.3483201500713824,0.20801636216603217,-0.2517095195505768
1772459234686177500,3.927177490234375,-1.3641986872047185,0.3590491466112435,-0.22748371757157146
1772459234696174600,3.937174560546875,-1.4200316335856913,0.4947253719706088,-0.1918649629080668
1772459234706172400,3.94717236328125,-1.5171797561734914,0.6407763494152575,-0.19775606677327304
1772459234716169500,3.95716943359375,-1.5280390038400888,0.7453063989479094,-0.17979363603796808
1772459234726166500,3.96716650390625,-1.4843085831850766,0.8213364763136952,-0.19891849814876914
1772459234736163600,3.97716357421875,-1.3882774819284676,0.9065801530309021,-0.22842662444487213
1772459234746160400,3.987160400390625,-1.2191554254978894,0.9857062967158854,-0.23940551643576471
1772459234756158500,3.997158447265625,-1.0159826309055089,1.0436161224361509,-0.2549904409173876
1772459234766155500,4.007155517578125,-0.7442898423165083,1.080362748618424,-0.2426005861500278
1772459234776152600,4.017152587890625,-0.3568552898287773,1.1155308734375984,-0.21510175384972244
1772459234786149400,4.0271494140625,0.05812427218854427,1.1069660933837293,-0.12884294527322054
1772459234796146700,4.037146728515625,0.4367465726673603,0.9727557758584618,-0.04814619127064943
1772459234806143500,4.0471435546875,0.8101198665767908,0.7871284286983311,0.08812007240373641
1772459234816141600,4.0571416015625,1.1949796001404522,0.6088923243006691,0.2082404532454908
1772459234826138600,4.067138671875,1.4086737887471914,0.45435993423666804,0.41527463597375897
1772459234836135700,4.0771357421875,1.442294903320074,0.29382406597416844,0.6626061231032013
1772459234846132500,4.087132568359375,1.291917879369855,0.15963946741204707,0.8541993929304182
1772459234856129500,4.097129638671875,1.0679039568006992,0.052787916129268704,1.0084346997439861
1772459234866127600,4.107127685546875,0.844883136922121,-0.08803590125162154,1.0681543513651937
1772459234876124700,4.117124755859375,0.5938461828708649,-0.2657359260112047,1.0931801446154712
1772459234886121500,4.12712158203125,0.41137598456740376,-0.3818081639733165,1.1953487257137894
1772459234896118500,4.137118408203125,0.23470658149719237,-0.4140145894426852,1.1925048805899918
1772459234906115600,4.147115478515625,0.1150087734490633,-0.3662031100191176,1.1034886265315116
1772459234916113700,4.15711376953125,-0.0810802003622055,-0.22285824972800908,1.079495318134129
1772459234926110500,4.1671103515625,-0.39709436123669145,-0.060822790557518595,1.0322267864808439
1772459234936107500,4.177107421875,-0.7916010440677403,0.13821677668765187,0.997821974184364
1772459234946104600,4.1871044921875,-1.1168091497451067,0.35224034337922927,0.9009672815851867
1772459234956101600,4.1971015625,-1.2805045049518347,0.49670733956806357,0.6902857187978922
1772459234966098400,4.207098388671875,-1.3618933328717946,0.6947841261956841,0.5052531226605177
1772459234976096500,4.217096435546875,-1.2442892822325229,0.984586718101427,0.4158986496236175
1772459234986093600,4.227093505859375,-0.9331120399951934,1.205765124983713,0.26497758192457255
1772459234996090600,4.237090576171875,-0.6458750607937574,1.3018933299392461,0.1288345427710563
1772459235006087400,4.24708740234375,-0.27164719588160513,1.2988280971497297,0.028051936138421295
1772459235016084500,4.25708447265625,0.13011574168801307,1.2690887924462557,0.030602132077887652
1772459235026082600,4.26708251953125,0.35980887893736363,1.2622998629584907,0.17701894716024397
1772459235036079600,4.27707958984375,0.5596931533783673,1.1359169511232525,0.19265330027416347
1772459235046076400,4.287076416015625,0.8112053237259388,0.9191722889047116,0.2835078026104718
1772459235056073700,4.29707373046875,0.979710125041008,0.7225725160270929,0.44619281173087655
1772459235066070500,4.307070556640625,1.0810668052345513,0.5388100859560072,0.6229217629685998
1772459235076068600,4.317068603515625,1.1578314804852008,0.35479682292900977,0.7957968883223832
1772459235086065400,4.3270654296875,1.3143319557517765,0.16425839591696859,0.9155464265577494
1772459235096062700,4.337062744140625,1.4803800115644932,0.031092545943334698,0.9853496652979403
1772459235106059500,4.3470595703125,1.5652631113409996,-0.07779423749409616,1.0669513322509825
1772459235116056300,4.357056396484375,1.6365882258862257,-0.22405264714434742,1.1180466556508093
1772459235126054400,4.367054443359375,1.6741875964403152,-0.3372540058452636,1.180105710005015
1772459235136051700,4.3770517578125,1.573015040642023,-0.4171933656092733,1.2723083390146492
1772459235146048500,4.387048583984375,1.353617671957612,-0.518283284625411,1.3450398132264614
1772459235156045300,4.39704541015625,1.2062643797427415,-0.5866027876138686,1.2718418905466795
1772459235166042600,4.407042724609375,1.1669944456279278,-0.6199925776489079,1.1389425094895065
1772459235176039400,4.417039306640625,1.0190589696109293,-0.6440247567519545,1.064521036364138
1772459235186037500,4.42703759765625,0.8117787396997213,-0.6247178526051342,1.0818119245134294
1772459235196034300,4.437034423828125,0.6215735632300377,-0.6626917555600405,1.1071494871266185
1772459235206031600,4.447031494140625,0.5227753353476524,-0.7439446090754122,1.0485483912065625
1772459235216028400,4.4570283203125,0.38709669883549214,-0.7712626049160957,0.9740275493599474
1772459235226025500,4.467025390625,0.24925416228771208,-0.7520696825377643,0.9013955899998545
1772459235236023600,4.4770234375,0.1463707109183073,-0.7191988018102944,0.8060676685765386
1772459235246020600,4.4870205078125,-0.019613047486543654,-0.6476334487684071,0.7230621992401778
1772459235256017400,4.497017333984375,-0.2634387549847364,-0.5591705542763695,0.7176861322250216
1772459235266014500,4.507014404296875,-0.4482826966822147,-0.5370294130843133,0.732461603487283
1772459235276011500,4.517011474609375,-0.5634270792096853,-0.5781915176212787,0.6769037477206439
1772459235286009600,4.527009521484375,-0.6687526630342007,-0.5647373946232721,0.6052030778612941
1772459235296006400,4.53700634765625,-0.7969558490991592,-0.4990428333109244,0.5470828973259777
1772459235306003500,4.54700341796875,-0.9981517906606197,-0.42402712061945347,0.5628400000367313
1772459235316000500,4.55700048828125,-1.1670780322581529,-0.37243696290738876,0.5707775881029665
1772459235325997600,4.56699755859375,-1.2279051336646079,-0.3414646823428571,0.5570565212644636
1772459235335994400,4.576994384765625,-1.2105015789210796,-0.3201520278641954,0.5046464620042592
1772459235345992400,4.586992431640625,-1.139222057083249,-0.32346769175082446,0.4355537096209824
1772459235355989500,4.596989501953125,-1.0518962403297423,-0.33337950249947607,0.35711774015724657
1772459235365986600,4.606986572265625,-0.9990694900274276,-0.4233537514025345,0.2949582941684872
1772459235375983400,4.6169833984375,-0.9607079029291867,-0.5952564880602061,0.35161906967572865
1772459235385980700,4.626980712890625,-0.9874363353788852,-0.8607530523575841,0.5429840837050229
1772459235395978500,4.636978515625,-1.1443214260488748,-1.1549793789897114,0.7754965892240404
1772459235405975600,4.6469755859375,-1.2817208950042724,-1.1257067419499158,0.8909542754843831
1772459235415972400,4.656972412109375,-1.2504589107781647,-0.8001391553103924,0.7707987867966294
1772459235425969700,4.6669697265625,-1.2742220636814832,-0.6574522474713623,0.4736202592954039
1772459235435966500,4.676966552734375,-1.3671435084849595,-0.7310416536867618,0.26956585956290363
1772459235445964500,4.686964599609375,-1.433710030326247,-0.7732420152302831,0.0982875018812716
1772459235455961300,4.69696142578125,-1.386076172491908,-0.6776477710209786,-0.1314513742059469
1772459235465958700,4.706958740234375,-1.2464970214098692,-0.5489629754515365,-0.28583485731855035
1772459235475955500,4.71695556640625,-1.0974059456169605,-0.48128677533529696,-0.36915801430195566
1772459235485952500,4.726952392578125,-0.9582435586422682,-0.39038598617184905,-0.4140522180393338
1772459235495949600,4.736949462890625,-0.8604881178110837,-0.21158384538926184,-0.37311654266938565
1772459235505947600,4.74694775390625,-0.8107955738812684,-0.028271679836325347,-0.3339240577049553
1772459235515944400,4.7569443359375,-0.7387672795027495,0.10202833237741142,-0.3379058208175003
1772459235525941500,4.76694140625,-0.6734574797242879,0.2360454288855195,-0.35364012717455623
1772459235535939000,4.77693896484375,-0.6306470965236425,0.3829487853758037,-0.3572521801918745
1772459235545936100,4.78693603515625,-0.4672410796523094,0.5431469461165368,-0.3984684260688722
1772459235555934000,4.796933837890625,-0.27026187900304793,0.6876167187843472,-0.4298506756737828
1772459235565931000,4.806930908203125,-0.15707213767468928,0.8104397461809217,-0.4338201638266444
1772459235575928000,4.816927978515625,-0.02822013231217861,0.9211380360197275,-0.4256538085058331
1772459235585925000,4.826925048828125,0.08056114492416382,1.0106677925582974,-0.42840033073499795
1772459235595922000,4.836921875,0.14417992287576198,1.0892449971236289,-0.4144242662221193
1772459235605920000,4.846919921875,0.23985388125777243,1.1465951431345194,-0.40288507346734403
1772459235615917000,4.8569169921875,0.33841420873105527,1.1776697150297462,-0.38760391770526764
1772459235625914000,4.8669140625,0.42702188198864455,1.180484114863351,-0.3613771511673927
1772459235635911000,4.876910888671875,0.510771009299159,1.1394836306288838,-0.34863282040655613
1772459235645908200,4.886908203125,0.6230261001259089,1.0977636730134486,-0.3575096620842814
1772459235655905000,4.896905029296875,0.7260814009308815,1.094966297379881,-0.3350054232008755
1772459235665903000,4.906903076171875,0.791558958491683,1.1078655264414847,-0.32198110645487904
1772459235675900000,4.91689990234375,0.9116121558487414,1.0638678331524134,-0.2710705650374293
1772459235685897200,4.926897216796875,0.9864368029475211,1.0199227468334138,-0.20516732941046356
1772459235695894000,4.93689404296875,1.0361334385305643,0.9578294248834252,-0.12101853525787591
1772459235705891000,4.94689111328125,1.1245710159182547,0.8994618454582989,-0.03605009528547525
1772459235715889000,4.956888916015625,1.2234639363467692,0.8703646380506456,0.01845306379646063
1772459235725886200,4.96688623046875,1.3415560627639294,0.8789915966205298,0.05649857068285346
1772459235735883000,4.976883056640625,1.446497031185031,0.8945869328983127,0.11015446528568863
1772459235745880000,4.986880126953125,1.5025029960453509,0.8493928694315254,0.13944193456843496
1772459235755877000,4.996877197265625,1.54795483366549,0.7464204246044158,0.18172142576277256
1772459235765875200,5.006875244140625,1.5883967341691254,0.6442309468485414,0.2159486895352602
1772459235775872000,5.0168720703125,1.6265806266129015,0.5752452350363135,0.24482597058191893
1772459235785869000,5.026869140625,1.6183809535443783,0.4987840727768838,0.2816809525094926
1772459235795866000,5.0368662109375,1.5565385376155376,0.38274054945260283,0.3288897167995572
1772459235805863200,5.04686328125,1.5152274530619383,0.1934074796423316,0.3769378545232117
1772459235815860000,5.05685986328125,1.525755861338973,-0.012039543492347001,0.41036213134974237
1772459235825858000,5.066858154296875,1.5210393542110918,-0.13995996709316968,0.41822409689649936
1772459235835855000,5.076855224609375,1.449484522563219,-0.19138444938212631,0.4253292527265847
1772459235845852200,5.08685205078125,1.3366583538502455,-0.2824184730038047,0.3856748493388295
1772459235855849000,5.096848876953125,1.2611772886693478,-0.4452705092541873,0.30330694725364443
1772459235865846300,5.10684619140625,1.1277040532469749,-0.5872868974205107,0.26812866636663674
1772459235875844000,5.116843994140625,1.037258643168211,-0.7071604273617267,0.20267200546339154
1772459235885841200,5.126841064453125,0.9995248325794934,-0.788845315618813,0.15207871330156922
1772459235895838000,5.136837890625,0.8800041346639395,-0.9029583823371679,0.09169672531411051
1772459235905835300,5.146835205078125,0.7067728893488645,-1.034469523906335,0.031486294501274825
1772459235915832000,5.15683203125,0.5366980622380971,-1.101990935319662,-0.05611147106140851
1772459235925830100,5.166830078125,0.28819968675374985,-1.1171020682770758,-0.079725278621912
1772459235935827000,5.176826904296875,-0.030267712491750715,-1.121709123681113,-0.1178320141762495
1772459235945824300,5.18682421875,-0.23828385546207426,-1.1205864763267337,-0.17222776736095546
1772459235955821000,5.196821044921875,-0.4011193789690733,-1.1463975016705692,-0.2512080728344619
1772459235965818000,5.206818115234375,-0.5545633892744779,-1.146356585138291,-0.2820870490923524
1772459235975815200,5.216815185546875,-0.6054717387348413,-1.0979241973374039,-0.2778638784393668
1772459235985813200,5.226813232421875,-0.6821802998840808,-1.017707189675793,-0.22548604094833136
1772459235995810000,5.23681005859375,-0.7919143478006124,-1.008732659777254,-0.14783011594638226
1772459236005807000,5.24680712890625,-0.8056354146391153,-0.9812594733748584,-0.14011252730637788
1772459236015804200,5.25680419921875,-0.8833680581390857,-0.9175089588023722,-0.09981485757902264
1772459236025801000,5.266801025390625,-0.92830668554008,-0.8437361588440835,-0.12843407221138475
1772459236035799000,5.276799072265625,-0.9623363809138535,-0.8241331212949007,-0.13464651698544622
1772459236045796000,5.286796142578125,-1.0131126284271479,-0.7533506622590124,-0.031376696646958586
1772459236055793200,5.296793212890625,-1.0557616835862398,-0.6393671402044594,0.0035245208643376823
1772459236065790000,5.3067900390625,-1.150057923874259,-0.5506439873410388,0.06359554320648313
1772459236075787000,5.316787109375,-1.2242694075107574,-0.4775469677524641,0.11365940466672181
1772459236085783000,5.326782958984375,-1.1833072825253008,-0.3957555138483643,0.11227949461564421
1772459236095780000,5.336780029296875,-1.1564859110951422,-0.3062697060493752,0.05901099189519882
1772459236105777200,5.346777099609375,-1.1244149485737085,-0.22532235655291005,-0.006225011994689703
1772459236115774200,5.356774169921875,-1.1061679287433623,-0.11664813815392554,-0.06038710255399346
1772459236125771000,5.36677099609375,-1.1032359669446945,-0.0009850472482852636,-0.06955211352333426
1772459236135768000,5.37676806640625,-1.0931441965192557,0.029009547390509396,-0.05969663607180118
1772459236145766100,5.38676611328125,-1.0683230589956045,-0.07653587146345525,0.06181202079057693
1772459236155763200,5.39676318359375,-1.016668859604001,-0.24710323133151976,0.13262567868232727
1772459236165760000,5.406760009765625,-1.0059662638038396,-0.22890943952575324,0.055638008330762385
1772459236175757000,5.416757080078125,-0.9764216048896313,-0.0068724065201357,0.032766543570160865
1772459236185754000,5.426754150390625,-0.951352630084753,0.10331212511025369,0.057776627794653174
1772459236195752200,5.436752197265625,-0.9665864395737648,0.027435046349093318,0.06932400385588407
1772459236205749000,5.4467490234375,-0.9317448432952165,-0.08558752171881497,0.12016864043027162
1772459236215746000,5.45674609375,-0.8210515949577093,-0.10979052734412252,0.19041341239288448
1772459236225743000,5.4667431640625,-0.6763543702095747,-0.03357398749552667,0.22013825017958877
1772459236235740000,5.476739990234375,-0.5317378094822168,0.1088162024192512,0.23863018468171357
1772459236245738000,5.486738037109375,-0.4716963054955005,0.19633184265643358,0.34001755227446556
1772459236255735000,5.496735107421875,-0.5324281298339366,0.1678081973530352,0.5188125691965222
1772459236265732000,5.506732177734375,-0.6351134282827376,0.07011500810310244,0.6332083253137767
1772459236275729000,5.51672900390625,-0.6913415114611386,0.043577129789441824,0.70227280145064
1772459236285726000,5.526725830078125,-0.7071621809273958,0.07742628096453845,0.7443218448899686
1772459236295723000,5.536722900390625,-0.6693348468363285,0.1131570811677724,0.7798685206979513
1772459236305721000,5.54672119140625,-0.625828882586956,0.14577033387236296,0.7725355474613607
1772459236315718000,5.5567177734375,-0.5639484727352857,0.23334289192855356,0.7112920472737402
1772459236325715000,5.56671484375,-0.5044739549815654,0.3730378514099866,0.6308253756999969
1772459236335712000,5.5767119140625,-0.3877817584902048,0.5083360372371971,0.5452985711924732
1772459236345709000,5.586708984375,-0.1960936499863863,0.6175736799389123,0.48386970450058575
1772459236355707100,5.59670703125,0.056174307164549825,0.7329646576385944,0.44224188214801247
1772459236365704000,5.606703857421875,0.3765747202992439,0.82969674677141,0.4015267176609486
1772459236375701000,5.616700927734375,0.698513595047593,0.8717712169129401,0.40318449480533597
1772459236385698000,5.626697998046875,0.9844143572092056,0.893385813480243,0.45734402808137237
1772459236395694800,5.63669482421875,1.27014385445714,0.9359197178270667,0.5782116836264729
1772459236405693000,5.64669287109375,1.4874813680022954,0.9653425769925117,0.7304677262563258
1772459236415690000,5.65668994140625,1.67908355178833,0.9374448815677314,0.8739567442584782
1772459236425687000,5.66668701171875,1.839652883929014,0.8324540826555341,1.059853409879282
1772459236435683800,5.676683837890625,1.864368222990632,0.7202868893079459,1.2201038853291422
1772459236445681200,5.68668115234375,1.6807506082177162,0.6457482195436954,1.3781208295732736
1772459236455678000,5.696677978515625,1.3752619330108165,0.5741849123284221,1.4837654162190854
1772459236465676000,5.706676025390625,1.1360007569491863,0.565527558620274,1.6902128485679626
1772459236475673000,5.716673095703125,0.9162000681608915,0.5311443736337125,1.7850478719078002
1772459236485670100,5.726670166015625,0.717007283115387,0.45416576337143777,1.7789961706534028
1772459236495667000,5.7366669921875,0.5400900427639485,0.357728565531969,1.768183246346563
1772459236505664000,5.7466640625,0.267604057970643,0.2560845928296447,1.723504585056007
1772459236515662000,5.756662109375,0.11098024858534336,0.2003387402102351,1.6372084036111831
1772459236525659100,5.7666591796875,-0.015880875220894812,0.22675518410131335,1.5153329592630267
1772459236535655400,5.776655517578125,-0.27226035934388637,0.3549567627310753,1.4018573867306112
1772459236545652700,5.78665283203125,-0.5765548563301562,0.5577000798650086,1.305422088587284
1772459236555649500,5.7966494140625,-0.7827069589942693,0.7846936758320778,1.1797589423939585
1772459236565647600,5.806647705078125,-0.9081395113021135,0.9877806918371468,1.0241758011680095
1772459236575644400,5.81664453125,-1.0527280149787663,1.159853780093044,0.9175211606968193
1772459236585641700,5.826641845703125,-1.116293601438403,1.28059232936576,0.8226859181612729
1772459236595638500,5.836638427734375,-1.0166133300244808,1.3099191077455878,0.6783863144285976
1772459236605635600,5.846635498046875,-0.8726204541534185,1.2905062590062617,0.5609926916696131
1772459236615632600,5.856632568359375,-0.7450760242581367,1.2701625591576098,0.5080567819043994
1772459236625630700,5.866630615234375,-0.5407856238126755,1.1783692416012286,0.4498348945602774
1772459236635627500,5.87662744140625,-0.22087913167476653,0.9909575683075934,0.4619302598930895
1772459236645624600,5.88662451171875,-0.04924889181554317,0.8231256247527897,0.5786129579037428
1772459236655621600,5.89662158203125,-0.021323358535766602,0.7313532038539647,0.8155126655310392
1772459236665618700,5.90661865234375,0.026806173861026763,0.6631714288357645,1.1101938232585786
1772459236675616500,5.916616455078125,0.02435235096812248,0.5410027006294578,1.2449845710203051
1772459236685613600,5.926613525390625,-0.03220832516551018,0.3749508454244584,1.3439300984188913
1772459236695610600,5.936610595703125,-0.021897359031438825,0.20495544022545217,1.3961805101379752
1772459236705607700,5.946607666015625,0.05905307747125625,0.09013912060856819,1.3744538314983248
1772459236715604500,5.9566044921875,0.059767947742342946,0.07653203553855419,1.4037258109509945
1772459236725601500,5.9666015625,0.04652209720015526,0.08027991682998836,1.4447344054266809
1772459236735599600,5.976599609375,0.04355038791298866,0.039899829516187306,1.4476336339995264
1772459236745597700,5.98659765625,0.07390051799118519,-0.020295842118933795,1.4048806800745426
1772459236755594500,5.996594482421875,0.09701017542183399,-0.06171243287362158,1.2995695631667972
1772459236765591600,6.006591552734375,0.07771686140894889,-0.0825268920391798,1.1947312514025716
1772459236775588600,6.016588623046875,0.05302314965724945,-0.06377491836138069,1.0812903848573565
1772459236785585700,6.026585693359375,-0.04034545439183712,-0.04163724776804447,1.0007732252053916
1772459236795582500,6.03658251953125,-0.12142331666648387,-0.06654525985755026,0.8884001340221613
1772459236805580500,6.04658056640625,-0.2135299379557371,-0.06737228526622056,0.813493507728353
1772459236815577600,6.05657763671875,-0.2664724235922098,-0.05754683762677013,0.7206246698949486
1772459236825574700,6.06657470703125,-0.29862872630953785,-0.05614230459108949,0.6395759606495499
1772459236835571500,6.076571533203125,-0.38762744471132754,-0.05588087717592716,0.600275850592181
1772459236845568800,6.08656884765625,-0.45489071664512154,-0.06129910283237695,0.5431079292804002
1772459236855566600,6.096566650390625,-0.5936380930781364,-0.060896951772272584,0.4356518362332135
1772459236865563600,6.106563720703125,-0.7309434540092945,-0.01926196902655065,0.30374563093185425
1772459236875560400,6.116560546875,-0.8004939600974321,0.05023074245974421,0.18376491428911684
1772459236885557800,6.126557861328125,-0.8507686878293752,0.10235475132018328,0.11244907902888954
1772459236895554600,6.136554443359375,-0.9448334574490785,0.1651253880098462,0.0761291538260877
1772459236905551400,6.14655126953125,-0.9441583346664905,0.21168737882897257,0.04447641671672463
1772459236915549400,6.156549560546875,-0.8818395333975553,0.21370924004539846,0.028547026178985833
1772459236925546800,6.166546630859375,-0.8520236563265323,0.16574892673566938,0.028007658605277538
1772459236935543600,6.17654345703125,-0.8639315362632274,0.05018010825105011,0.11405132659375666
1772459236945540600,6.18654052734375,-0.8602882113248109,-0.2187761680461466,0.2619211900286376
1772459236955537700,6.19653759765625,-0.8627326818674802,-0.501956638398394,0.3730559715885669
1772459236965535700,6.20653564453125,-0.9094733902543782,-0.4924190677896142,0.346582829074189
1772459236975532500,6.216532470703125,-0.9612579380273818,-0.18121238026209174,0.3298739785965532
1772459236985529600,6.226529541015625,-1.1027513982981443,0.027211978182941673,0.24720972391329704
1772459236995526700,6.236526611328125,-1.2737328188598156,-0.006449468400329351,0.17754202118627727
1772459237005523500,6.2465234375,-1.2921212929874657,-0.07804470512382686,0.048795448959618806
1772459237015521500,6.256521484375,-1.1339093376278877,-0.007193272504955529,-0.18254224062636493
1772459237025518600,6.2665185546875,-0.929013372504711,0.09748173845633863,-0.34421938787847756
1772459237035515600,6.276515625,-0.6859551422476768,0.1684972755957395,-0.36041195939704773
1772459237045512400,6.286512451171875,-0.46049043634831904,0.25618103894144295,-0.28417130802050233
1772459237055509500,6.296509521484375,-0.31441900063753125,0.3384881507501006,-0.19454145210832358
1772459237065506600,6.306506591796875,-0.19315818105638027,0.3870509599976241,-0.13897563223093748
1772459237075504600,6.316504638671875,-0.037705169016122815,0.3854278157752007,-0.1026749231852591
1772459237085501400,6.32650146484375,0.11052373698949813,0.3479831973914057,-0.02520458388328552
1772459237095498500,6.33649853515625,0.2752361602842808,0.32697394630610943,0.06161357560902834
1772459237105495600,6.34649560546875,0.37370237973332404,0.3579138589709997,0.20304273847192525
1772459237115492600,6.35649267578125,0.4386421771556139,0.3862807062774896,0.3371481343179941
1772459237125490700,6.36649072265625,0.4799111761331558,0.39187662658840416,0.44179333466291426
1772459237135487500,6.376487548828125,0.5341746812403202,0.3841718974299729,0.5132838689029217
1772459237145484500,6.386484619140625,0.5650543881505727,0.38261297755017876,0.5215485700316727
1772459237155481600,6.396481689453125,0.5025117149978876,0.3964325363270938,0.5007740775503218
1772459237165478400,6.406478515625,0.4826239422231912,0.38825639026463027,0.46563861289173364
1772459237175475700,6.416475830078125,0.44637890888750553,0.37086233400180935,0.39273601989671586
1772459237185473500,6.4264736328125,0.40918519652485846,0.3894694193162024,0.2589329679980874
1772459237195470600,6.436470703125,0.3619973288923502,0.4764486145891249,0.1834587709493935
1772459237205467400,6.44646728515625,0.2857482019484043,0.5177503467924892,0.11999547582045197
1772459237215464700,6.456464599609375,0.27155893307626244,0.5231720795802772,0.08148615081459283
1772459237225461500,6.46646142578125,0.38279987842440605,0.505517326554656,0.04212473902404308
1772459237235459600,6.47645947265625,0.43887949304282664,0.5199613008402287,-0.014709639484435318
1772459237245456400,6.486456298828125,0.4303460579752922,0.604529635579139,-0.03342486134842038
1772459237255453700,6.49645361328125,0.4889186584532261,0.6894399156235158,-0.02825125810280442
1772459237265450500,6.506450439453125,0.5544166742801666,0.7193813187703489,-0.013864274701476097
1772459237275447600,6.516447509765625,0.5887976673096418,0.7045819551758468,0.052078416153043504
1772459237285445400,6.5264453125,0.5148059639036655,0.6981248879909515,0.12602730333060025
1772459237295442700,6.536442626953125,0.5702414353996514,0.7013274834245443,0.12636559537425637
1772459237305439500,6.546439453125,0.6674006639033555,0.7307328799985349,0.09467939438670873
1772459237315436500,6.5564365234375,0.76114628457129,0.7354051095932722,0.12130348967909813
1772459237325433600,6.56643359375,0.8088432707697153,0.7030591295227407,0.16567381567284464
1772459237335430700,6.5764306640625,0.805488699644804,0.6170438108459114,0.24062888421826062
1772459237345428500,6.586428466796875,0.8431839317888021,0.5251720212258398,0.3371303794655949
1772459237355425500,6.596425537109375,0.8297527878075838,0.4541020504854619,0.42231450801528986
1772459237365422600,6.606422607421875,0.8158803297996521,0.3747967508412897,0.5097402049466967
1772459237375419600,6.616419677734375,0.787248694077134,0.2836108976587653,0.5855480909291655
1772459237385416400,6.62641650390625,0.7445072844594717,0.16354717890769244,0.6250300603594631
1772459237395414500,6.63641455078125,0.6646031421393156,0.04802154197767377,0.6093409813836217
1772459237405411600,6.64641162109375,0.5123538945764303,-0.08209478423222899,0.6091027887135744
1772459237415408600,6.65640869140625,0.32569618145525453,-0.23479703625962137,0.5883605180013924
1772459237425405400,6.666405517578125,0.2765595178425312,-0.37720483489632606,0.4880544428393244
1772459237435402800,6.67640283203125,0.261714415410161,-0.4844026423335075,0.44166086738966404
1772459237445400600,6.686400634765625,0.20460078156888484,-0.5395812164589763,0.4476081584215164
1772459237455397600,6.696397705078125,0.16789514498412608,-0.5695414704367519,0.44151744033098217
1772459237465394400,6.70639453125,0.14169804293215274,-0.6159748664401471,0.41221104715205725
1772459237475391700,6.716391845703125,0.06739712744653224,-0.6667166271619498,0.3630591859702021
1772459237485388500,6.726388427734375,0.044350013858079906,-0.6913276290662587,0.3348960445422679
1772459237495385600,6.736385498046875,-0.024767946031689643,-0.6940772200353443,0.35457404702380296
1772459237505383400,6.746383544921875,-0.1268728142440319,-0.685825962910056,0.36918482924364504
1772459237515380700,6.756380615234375,-0.1504874985873699,-0.6643105889335275,0.3779058227725327
1772459237525377500,6.76637744140625,-0.07963584677278995,-0.6212408241443336,0.3527833642147481
1772459237535374000,6.7763740234375,0.001969254246354103,-0.5445910074450075,0.32928375761844214
1772459237545371100,6.78637109375,0.10853460899889468,-0.4809931261509657,0.3538973898712545
1772459237555369200,6.796369140625,0.09045710051655768,-0.41546076966300605,0.3898302885178476
1772459237565366000,6.806365966796875,0.1358311967253685,-0.3761452428407967,0.4260189154911786
1772459237575363000,6.816363037109375,0.16467267580628395,-0.3687827512487769,0.49567361260615284
1772459237585360100,6.826360107421875,0.033113165050745005,-0.3901001184351742,0.5642446061376482
1772459237595357000,6.83635693359375,-0.04466097950339317,-0.38183556343689556,0.6198294960416854
1772459237605355000,6.84635498046875,-0.04047229564189911,-0.33976123942583797,0.6287922624371945
1772459237615352000,6.85635205078125,-0.12574760960638523,-0.27407266946285963,0.63190359939076
1772459237625349000,6.86634912109375,-0.24030454763472078,-0.19318755328133702,0.6741835289765149
1772459237635346000,6.876345947265625,-0.3106581867992878,-0.14025617356076836,0.6939191799294203
1772459237645343000,6.886343017578125,-0.4143120380192995,-0.11711948199272156,0.6480394722860306
1772459237655340000,6.896340087890625,-0.5580383719086647,-0.027164339648932216,0.5613643745262176
1772459237665338000,6.906338134765625,-0.6695972971647978,0.13346183724552393,0.3799764915667474
1772459237675335200,6.916335205078125,-0.7408785725682974,0.25258907886408266,0.2414960955068469
1772459237685332000,6.92633203125,-0.8119809842735528,0.2776591496475041,0.2127003552637994
1772459237695329000,6.9363291015625,-0.8614110778748989,0.24709289260059594,0.18762316061984746
1772459237705326000,6.946326171875,-0.8643751883774995,0.13597681574113665,0.23068806657083332
1772459237715324200,6.95632421875,-0.9647235683113335,-0.026653905908763407,0.25468996013347056
1772459237725321000,6.966321044921875,-1.0936983232706785,-0.017615590059012174,0.21250611133333294
1772459237735318000,6.976318115234375,-1.1804273431748151,0.12289090500101446,0.16592567154206334
1772459237745315000,6.986315185546875,-1.3332453305363654,0.15027429422810673,0.1330856243442744
1772459237755311900,6.996311767578125,-1.3889362380981445,0.06329276086762547,0.09755619193203746
1772459237765309200,7.00630908203125,-1.353624686220288,0.015189824216812848,0.10807787820734083
1772459237775307000,7.01630712890625,-1.2969126189172266,0.03695668873637915,0.16103762550586834
1772459237785304000,7.026303955078125,-1.2173287945926188,0.08910174038484692,0.22746398995779454
1772459237795300900,7.03630078125,-1.1284569174408912,0.13677213083729148,0.3319168826010078
1772459237805298200,7.046298095703125,-1.0968091487675904,0.14421893971189856,0.4300707481652498
1772459237815295000,7.056294921875,-1.1483704091787337,0.16708002920895815,0.4966005181927234
1772459237825293000,7.06629296875,-1.230758769530058,0.22454159970507023,0.5571070458753035
1772459237835289900,7.076289794921875,-1.2840782717853785,0.28005685843899847,0.5996290040560066
1772459237845287200,7.086287109375,-1.2638222502201795,0.33484365676790473,0.6315645036295056
1772459237855284000,7.096283935546875,-1.1425146688878536,0.4137826073177159,0.6280636559017002
1772459237865281000,7.106281005859375,-0.9604115503311157,0.5250333434075117,0.6490351322598755
1772459237875278800,7.11627880859375,-0.825692114239931,0.6502404163964093,0.6769792971748858
1772459237885276200,7.126276123046875,-0.5717728827506303,0.7444784967564045,0.6780115628320723
1772459237895273000,7.13627294921875,-0.29592005187273024,0.7981476892322301,0.6388517380282283
1772459237905270000,7.14627001953125,-0.06419628557860851,0.8732230962216854,0.5766235376521944
1772459237915267000,7.15626708984375,0.15533844574987887,1.0086569641925394,0.560476960699819
1772459237925264100,7.16626416015625,0.4028828815102577,1.209076660684496,0.6316174028605223
1772459237935262000,7.176261962890625,0.6211071147620678,1.3631737280711531,0.7333565065003931
1772459237945259000,7.186259033203125,0.803739225628972,1.3827074267111719,0.8761177947498857
1772459237955256000,7.196256103515625,0.9311480464458465,1.3458664733089505,0.9989986898135393
1772459237965253000,7.206253173828125,0.9691758715450763,1.3921344496175645,1.1588787975810468
1772459237975250000,7.21625,1.168051261204481,1.4622892052091658,1.279717592357844
1772459237985248000,7.226248046875,1.3991285462886094,1.4263561604321002,1.4194959192737937
1772459237995245000,7.2362451171875,1.5031097297668456,1.325047411033511,1.600099593053013
1772459238005242000,7.2462421875,1.4890940638959407,1.2326296779684722,1.7209785737097263
1772459238015239000,7.256239013671875,1.278601301679015,1.1053967982403934,1.895013828884065
1772459238025236200,7.266236328125,0.9236381092071533,0.9417584339179098,2.132025034061819
1772459238035234000,7.276234130859375,0.5570686500936747,0.7695749440900981,2.2648506192304194
1772459238045231000,7.286231201171875,0.26271687045097347,0.6417296315521002,2.2893366795808077
1772459238055228000,7.296227783203125,-0.01045125138759613,0.5812585039764643,2.342894228375703
1772459238065225200,7.30622509765625,-0.2215028165310621,0.5764858827471733,2.2657035827979444
1772459238075222000,7.316221923828125,-0.37702480215430256,0.5766884195819497,2.0436657826073468
1772459238085219000,7.326218994140625,-0.47806174887418745,0.6013102351412176,1.8070804016262292
1772459238095217000,7.336216796875,-0.6513070227146148,0.6852095845773816,1.6384645411521195
1772459238105214200,7.346214111328125,-0.6942571066468953,0.7774383709415793,1.4804559994101523
1772459238115211000,7.3562109375,-0.5931862576574087,0.8625620014756917,1.288983871744573
1772459238125208000,7.3662080078125,-0.49761225251853464,0.9076420831739902,1.10123953243047
1772459238135205000,7.376205078125,-0.34201837070286273,0.9538944235220551,0.9357895886413753
1772459238145203200,7.386203125,-0.09474924475252627,1.0006357164308428,0.80683894520998
1772459238155200000,7.396199951171875,0.10960019240379333,0.9985901820778846,0.7070613509014249
1772459238165197000,7.406197021484375,0.2668997090935707,0.8867965712830423,0.6566666500516235
1772459238175194000,7.416194091796875,0.40968730082809923,0.6899424583181738,0.6481408137686551
1772459238185191200,7.426191162109375,0.5213046782732009,0.47755263030827044,0.6969070366337895
1772459238195188000,7.43618798828125,0.6508171933710575,0.31299773566275835,0.7584651557285338
1772459238205186000,7.44618603515625,0.7407868026316166,0.15823562849611042,0.7639994089800864
1772459238215183000,7.45618310546875,0.6306523572206497,0.016423019273579118,0.8229457381412386
1772459238225180200,7.46618017578125,0.43379006094932554,-0.05977350070029497,0.9840539994642138
1772459238235177000,7.476177001953125,0.5003115746051072,-0.15544687456041573,1.0244364979308098
1772459238245174300,7.48617431640625,0.5015197813510894,-0.2370750641942024,1.0031630429513752
1772459238255172000,7.496172119140625,0.49615153231620784,-0.26048253552764655,1.0097180906180292
1772459238265169200,7.506169189453125,0.60691024710536,-0.2743468102291226,0.965914896987751
1772459238275166000,7.516166015625,0.6541629966676235,-0.2885889783322811,0.9211186737321316
1772459238285163300,7.526163330078125,0.5988362462431192,-0.29476152948737144,0.9561804155673831
1772459238295160000,7.53616015625,0.5018085351645947,-0.28153613721132276,0.9846402749195694
1772459238305158100,7.546158203125,0.37758418960273266,-0.2806365580230951,0.983468381595984
1772459238315155000,7.556155029296875,0.22784780164361,-0.32381197514384985,0.97521858577542
1772459238325152300,7.56615234375,0.15270459011495113,-0.3704384095013141,0.9322268546584993
1772459238335149000,7.576149169921875,0.011533785927295684,-0.3725561323076486,0.9106190531581639
1772459238345145900,7.586145751953125,-0.18067922323346136,-0.3695328389637172,0.9179076027311384
1772459238355143200,7.59614306640625,-0.27185528567433354,-0.4038217697955668,0.8701975378554314
1772459238365141200,7.606141357421875,-0.3852472715765238,-0.3911195246107876,0.8137413450095802
1772459238375138000,7.616137939453125,-0.5469505761831999,-0.34161022829338905,0.7995782334920019
1772459238385134800,7.626134765625,-0.7572288188666105,-0.28660321134254335,0.8426831426598131
1772459238395132200,7.636132080078125,-0.871978064596653,-0.21053411714062092,0.7760026390500366
1772459238405129000,7.64612890625,-0.9260346489548683,-0.0886472746156156,0.6327771673548966
1772459238415127000,7.656126953125,-0.959444751125574,-0.019599749613553284,0.5035411311108619
1772459238425124000,7.6661240234375,-0.9874187997221946,0.029024872823804615,0.37812184014338995
1772459238435121200,7.67612109375,-1.0061123942762613,0.05316431169360876,0.29271493568848816
1772459238445118000,7.686117919921875,-0.9987205304592848,-0.03192468591853976,0.30313707057945427
1772459238455115000,7.696114990234375,-1.0390648158073426,-0.24669921710789203,0.4500469664083793
1772459238465112000,7.706112060546875,-1.0721949319928883,-0.5161433499872684,0.5573407450333238
1772459238475110100,7.716110107421875,-1.0816741234779357,-0.5782979006052017,0.6214800397276878
1772459238485107000,7.72610693359375,-1.1200327879667282,-0.5052271114364266,0.707626291307807
1772459238495104000,7.73610400390625,-1.202227671572566,-0.4880819153681397,0.6804867207739502
1772459238505101000,7.74610107421875,-1.255395198136568,-0.543703264825046,0.5507422966163605
1772459238515098000,7.75609814453125,-1.2539093434929847,-0.5027689046293496,0.4087502026410773
1772459238525096000,7.766095947265625,-1.1862737311154603,-0.29544600462019444,0.2751657619291916
1772459238535097300,7.776097412109375,-1.1240841091841458,-0.010365326669812202,0.10867533264383673
1772459238545094400,7.786094482421875,-0.9626683893471956,0.15478051960617303,-0.09885156550481915
1772459238555091500,7.796091552734375,-0.6488093606799841,0.24576719695478677,-0.18763649502545593
1772459238565088500,7.806088623046875,-0.4129302282720804,0.37596886336058377,-0.2073198312692344
1772459238575086300,7.81608642578125,-0.19838146866261958,0.5381278027802705,-0.1849243134573102
1772459238585083400,7.82608349609375,0.046102995005249975,0.6586328355580567,-0.17312734654918313
1772459238595080400,7.83608056640625,0.14859072505533694,0.7276587332502007,-0.1265158174999058
1772459238605077500,7.846077392578125,0.1852911009430885,0.7249281392425299,-0.08737776613645255
1772459238615074300,7.85607421875,0.2724959216654301,0.69218760689646,-0.06690240273214876
1772459238625072400,7.866072265625,0.34477965210974215,0.693660894319415,-0.0009234715204685926
1772459238635069400,7.8760693359375,0.32171441834270953,0.6653551295503973,0.10325710698738694
1772459238645066500,7.88606640625,0.3155857063293457,0.5618836491599679,0.14881978457085787
1772459238655063300,7.896063232421875,0.2615828979849815,0.4882788992449641,0.15759565009213983
1772459238665060600,7.906060546875,0.26458383336663244,0.44202626663595435,0.18667641782164573
1772459238675057400,7.916057373046875,0.19336334823966025,0.47232583557069296,0.13620017616823316
1772459238685055500,7.926055419921875,0.050860418665409086,0.579994475390017,0.07427315069586038
1772459238695052300,7.93605224609375,-0.006880991685390472,0.6862222687512636,0.016809680503606796
1772459238705049600,7.946049560546875,-0.12036533204615116,0.7179694061458111,-0.00030796997062861915
1772459238715046400,7.95604638671875,-0.14461422263979912,0.6838719062328338,-0.0070215691998600956
1772459238725043500,7.96604345703125,-0.021063830816745756,0.649678544729948,-0.10174502192400395
1772459238735041300,7.976041259765625,0.08764379666149616,0.6173758192792534,-0.2760547101255506
1772459238745038600,7.98603857421875,0.11910802546143531,0.6436252360403537,-0.3383486692141741
1772459238755035400,7.996035400390625,0.16641805816888808,0.7408376560360193,-0.30066454298608003
1772459238765032400,8.006032470703126,0.26610475932359695,0.788586080160737,-0.3034746319707483
1772459238775029500,8.016029541015625,0.3682908760786056,0.6998954047948122,-0.35186339982561765
1772459238785026300,8.0260263671875,0.43699265638291834,0.5902703702107072,-0.2883214134372771
1772459238795024400,8.0360244140625,0.6360235288649797,0.5296034278020263,-0.24514519259892403
1772459238805021400,8.046021484375,0.7794500030249357,0.5277738742873073,-0.186681020931527
1772459238815018500,8.0560185546875,0.6868442000418901,0.5089095993414521,-0.11762692005820571
1772459238825015300,8.066015380859374,0.6699883423089981,0.48746202990412707,0.004403860982134938
1772459238835012400,8.076012451171875,0.6925058790653944,0.42587972621619696,0.04541267465353012
1772459238845010400,8.086010498046875,0.7399573660701513,0.3252598358646035,0.07237959203422069
1772459238855007500,8.096007568359376,0.6854600522071123,0.266061796964705,0.155642433665134
1772459238865004500,8.106004638671875,0.7187403905183076,0.1950195910140872,0.2565230938447639
1772459238875001300,8.11600146484375,0.8390706512510776,0.05531827485710382,0.2590068734845146
1772459238884998400,8.125998291015625,0.9967647202163934,-0.11070230842679739,0.20765688120387493
1772459238894996500,8.13599658203125,1.0400006353527307,-0.23917817395329474,0.26263149372246114
1772459238904993500,8.14599365234375,0.9583727379798889,-0.3279468829914927,0.3074569065399468
1772459238914990300,8.155990234375,0.7934878807276486,-0.41325872957408427,0.33638167999014257
1772459238924987400,8.1659873046875,0.7076362281799315,-0.5014592833355069,0.40522995609305795
1772459238934984400,8.175984375,0.6580968289852142,-0.6177604346826672,0.3299515738774091
1772459238944981200,8.185981201171876,0.5176654449880123,-0.7683736054763197,0.25883856771290303
1772459238954979300,8.195979248046875,0.43217794957756994,-0.8795619438543916,0.22087412670608608
1772459238964976400,8.205976318359374,0.3056435735076666,-0.9590522446766495,0.14324490704797208
1772459238974973400,8.215973388671875,0.165349552154541,-1.0027759433299301,0.1417874747812748
1772459238984970200,8.22597021484375,0.1630354299932718,-1.0142582913309335,0.1368628413280472
1772459238994967600,8.235967529296875,0.21348434524834156,-0.9946063731387257,0.04472739580310881
1772459239004965600,8.245965576171875,0.11125029769837856,-0.9952505162611603,0.002854403050430119
1772459239014962400,8.25596240234375,0.09084756113886833,-0.9805378080368041,0.02621598941553384
1772459239024959200,8.265959228515625,0.10557751275897026,-0.930677214063704,0.03040956864785403
1772459239034956500,8.27595654296875,0.09818447989821434,-0.9148322869390249,-0.0007790215484797954
1772459239044953300,8.285953369140625,0.1091179618448019,-0.8576409116864204,0.026312435527332124
1772459239054950400,8.295950439453126,0.16691139464378357,-0.7693190696328878,0.033602702133357525
1772459239064948200,8.3059482421875,0.19592355411648749,-0.6862555864989757,0.06795220404602587
1772459239074945500,8.315945556640624,0.10572481227517128,-0.6289964067071676,0.14381046850886195
1772459239084942300,8.3259423828125,0.03988192853331566,-0.603961626432836,0.1640763173483312
1772459239094939400,8.335939453125,0.02395896773636341,-0.5279097756266594,0.15527973783258348
1772459239104936400,8.3459365234375,-0.09642156187891959,-0.42756373378038404,0.14116210942454635
1772459239114934500,8.3559345703125,-0.19479133521616457,-0.3303340703889727,0.20846385020520536
1772459239124931300,8.365931396484376,-0.24023148239850997,-0.2466559624880552,0.23818594804555177
1772459239134928400,8.375928466796875,-0.27283552888333795,-0.25025047984868287,0.19252086953353137
1772459239144925400,8.385925537109374,-0.2689174786567688,-0.2042582517415285,0.14186534405676648
1772459239154922500,8.395922607421875,-0.2570440855115652,-0.10099486114382743,0.08936988980174064
1772459239164920300,8.40592041015625,-0.2728524800181389,0.03153086429536343,0.023258820110373196
1772459239174917400,8.41591748046875,-0.2582102066814899,0.1745975652322173,-0.04199842749694362
1772459239184914400,8.42591455078125,-0.2090291194051504,0.32500644562542436,-0.0779636940431781
1772459239194911500,8.435911376953126,-0.18068097679913042,0.46631782732754945,-0.0644084852908738
1772459239204908300,8.445908203125,-0.19185528176426886,0.515940813152492,-0.05079527187417261
1772459239214905600,8.455905517578126,-0.22171382893323896,0.49844081229716536,-0.009661662779329344
1772459239224903400,8.4659033203125,-0.257654326364398,0.3848211551189422,0.05267533629999961
1772459239234900500,8.475900390625,-0.2472019059330225,0.16856471480876206,0.1980379159219563
1772459239244897300,8.485897216796875,-0.3074497461467981,-0.00329524215310812,0.26113725484302264
1772459239254894600,8.49589453125,-0.45597149761915207,-0.032387481124699115,0.3664474767016247
1772459239264891400,8.505891357421875,-0.5600637402564287,-0.11722995662987232,0.49303752848152066
1772459239274889500,8.515889404296875,-0.6969108360260725,-0.3965463719651103,0.5737373877566307
1772459239284886300,8.52588623046875,-0.8078811477392911,-0.6871817614331841,0.5910807002129033
1772459239294883600,8.535883544921875,-0.8341670971184968,-0.7653563034817576,0.55635933278054
1772459239304880400,8.54588037109375,-0.7309861241072416,-0.6130857208698988,0.5063725186118856
1772459239314877400,8.55587744140625,-0.6714052233695984,-0.3593286942049861,0.459628851082921
1772459239324875300,8.565875244140624,-0.7230974166840315,-0.20957652415484188,0.43949251037463544
1772459239334872600,8.57587255859375,-0.7205407179385424,-0.2386877600878477,0.5478931177303195
1772459239344869400,8.585869384765624,-0.6517220332562923,-0.27600772917866706,0.7094498534731567
1772459239354866400,8.595866455078125,-0.6556681405335665,-0.20161767410486936,0.8942753827311098
1772459239364863500,8.605863525390625,-0.7130512389659881,-0.0947615197122097,0.9929960153326391
1772459239374861600,8.615861572265626,-0.661474780985713,0.0037532150536775588,1.0058506015349178
1772459239384858400,8.6258583984375,-0.47816287116110323,0.13175211071819065,0.984981489572674
1772459239394855400,8.63585546875,-0.23211130430698393,0.33928777669519183,0.9668575116001069
1772459239404852500,8.6458525390625,-0.004666238245368003,0.5565706374436616,0.950802594986558
1772459239414849500,8.655849609375,0.16258768622577188,0.7228516252294183,0.9204190010301768
1772459239424846300,8.665846435546875,0.34058512302935123,0.858577900275588,0.8762910324249417
1772459239434844400,8.675844482421875,0.530198763346672,1.0224895285814999,0.8067861190441995
1772459239444841500,8.685841552734376,0.6785960116565227,1.2063447515025734,0.7703778579708188
1772459239454838500,8.695838623046875,0.9223866478413343,1.267131813159585,0.7477319455944001
1772459239464835300,8.70583544921875,1.0891975047200917,1.2364943905726073,0.838545019941777
1772459239474832600,8.71583251953125,1.1421043345212936,1.210125731346011,1.005552568436414
1772459239484830500,8.72583056640625,1.1527034699469805,1.2128864282310008,1.2065829441726208
1772459239494827500,8.73582763671875,1.1069289762437342,1.207240823559463,1.4157970647558569
1772459239504824300,8.74582421875,1.0556909564375876,1.1580839939415455,1.5783496796682477
1772459239514821600,8.755821533203125,0.9013345074623823,1.0348854842960833,1.6904868432037532
1772459239524818400,8.765818359375,0.6577110445380211,0.8452975629419088,1.8144965231016277
1772459239534812200,8.775812255859375,0.4814882161915302,0.6519084957391024,1.9136074701949952
1772459239544809200,8.785809326171876,0.387954776969552,0.49264293967336414,1.975351101924479
1772459239554806300,8.79580615234375,0.2018447608590126,0.4066641536146402,2.050034440856427
1772459239564803000,8.805802978515626,0.07504267376363277,0.4526309550195932,2.023492324759066
1772459239574800100,8.815800048828125,-0.07093874557614326,0.6971043127715587,1.9149879647679626
1772459239584797200,8.825797119140624,-0.4033592668503523,0.9474617601260542,1.8202962954215705
1772459239594795300,8.835795166015625,-0.7274690558969974,1.0759288578242063,1.6079760255165396
1772459239604792000,8.8457919921875,-0.847798147585988,1.1244625871077178,1.2946373674616216
1772459239614789000,8.8557890625,-0.9212690419882535,1.162059035052359,1.033249845918268
1772459239624786200,8.8657861328125,-0.8814999261796473,1.2948469185590743,0.918553134093061
1772459239634783200,8.875783203125,-0.7314397130936384,1.4168781379908322,0.7862759035222232
1772459239644781000,8.885781005859375,-0.4787427168756723,1.3762412994369864,0.53616812007986
1772459239654778400,8.8957783203125,-0.21364976494312285,1.2764105136364698,0.29388748659919944
1772459239664775200,8.905775146484375,0.018735095608234404,1.194234334731102,0.15444732386274262
1772459239674772200,8.915772216796874,0.19526012177169322,1.0504261677771807,0.04515780484331772
1772459239684769300,8.925769287109375,0.3596569032460451,0.8728098392456769,0.07252776833325623
1772459239694767400,8.935767333984375,0.4032750956982374,0.696357878318429,0.2432946693614125
1772459239704764200,8.94576416015625,0.29399288320243355,0.5066808173760772,0.5364375481383875
1772459239714761200,8.95576123046875,0.2781885803490877,0.28226445148587226,0.74107424127087
1772459239724758300,8.96575830078125,0.4672095154702663,0.12593757922053336,0.814714793151617
1772459239734755300,8.97575537109375,0.5132862069904804,0.013116817335039376,0.8830861724577843
1772459239744753200,8.985753173828124,0.4810381343364715,-0.08140007996633648,0.9793426069028675
1772459239754750200,8.995750244140625,0.5313467643380165,-0.14317337618172168,1.081151560908556
1772459239764747300,9.005747314453124,0.5441641603350639,-0.16657880168855188,1.1764919034220278
1772459239774744300,9.015744384765625,0.4922375737428665,-0.19931831112131476,1.2805918909743428
1772459239784741000,9.0257412109375,0.5292267034441233,-0.243775877007097,1.2679689946360886
1772459239794738200,9.03573828125,0.5115741423755884,-0.25789105772972104,1.1836495931569486
1772459239804736300,9.045736328125,0.42653497525453565,-0.25970497528389097,1.1061660290472208
1772459239814733300,9.0557333984375,0.3391600586622953,-0.2914776855111122,1.085625491452217
1772459239824730000,9.065730224609375,0.21143267341554164,-0.3461307744577527,1.0924321027271449
1772459239834727200,9.07572705078125,0.0710550654321909,-0.38880832505896684,1.154190420569107
1772459239844724200,9.08572412109375,-0.11464110918045044,-0.38037162836417554,1.1936685175418853
1772459239854722300,9.095722412109374,-0.1481739609479904,-0.35011034561321136,1.1626460411600767
1772459239864719000,9.105718994140625,-0.2188502561956644,-0.33369755547270175,1.1261699024822562
1772459239874716200,9.115716064453125,-0.4188298077046871,-0.35311361908242106,1.095504788170755
1772459239884713200,9.125713134765626,-0.5674918444305658,-0.35867432194948196,1.0677533693488688
1772459239894710000,9.1357099609375,-0.7013432655155658,-0.31464974065348505,1.0069085130900144
1772459239904708000,9.1457080078125,-0.8786281701356172,-0.27823928762301803,0.9520983338855207
1772459239914705200,9.155705078125,-1.0024234766304492,-0.26048224326670166,0.8495183955073357
1772459239924702200,9.1657021484375,-1.0975608439177273,-0.23260478691235184,0.6890595380038023
1772459239934699000,9.175698974609375,-1.1244897673755883,-0.20443682317882775,0.5522113462556153
1772459239944696000,9.185696044921874,-1.1379413696229457,-0.29448242028504606,0.5352841768521815
1772459239954694100,9.195694091796875,-1.16605745703876,-0.6456110030300914,0.587737600330077
1772459239964691200,9.205691162109375,-1.2648685444027186,-0.9091806909181177,0.5853149397604167
1772459239974688300,9.215688232421876,-1.4353414309203625,-0.7247494216747582,0.560664446095936
1772459239984685000,9.22568505859375,-1.4817156440824268,-0.45702465993389485,0.540517547461018
1772459239994682000,9.23568212890625,-1.456739023736119,-0.5199924266308545,0.46823509565833954
1772459240004680200,9.24568017578125,-1.510190627938509,-0.6998588721767067,0.37422421165034175
1772459240014677200,9.25567724609375,-1.479889597699046,-0.7012360057488083,0.14985642500906252
1772459240024674300,9.26567431640625,-1.4237322416692972,-0.43023879820853467,-0.06762288076011463
1772459240034671000,9.275671142578124,-1.3507517611324786,-0.08391893091946839,-0.23776339351823553
1772459240044668200,9.285668212890625,-1.1655424932539462,0.12515081275701523,-0.4031148636352271
1772459240054665200,9.295665283203125,-0.8860843313604593,0.16507921078056095,-0.5367459565004333
1772459240064663300,9.305663330078126,-0.710281774252653,0.20945523586273193,-0.6763046127837151
1772459240074660000,9.31566015625,-0.5913473517924547,0.3447144779190421,-0.7581799090463668
1772459240084657200,9.3256572265625,-0.4146791177660227,0.4813321488469839,-0.7978023098606616
1772459240094654200,9.335654296875,-0.19632453613281248,0.5250467874109744,-0.8081045081663877
1772459240104651300,9.3456513671875,-0.08051964386999606,0.46486792078018185,-0.7697882215145975
1772459240114648000,9.35564794921875,0.014066519275307655,0.45835810049474235,-0.6988136009074747
1772459240124645000,9.36564501953125,0.19977321528196335,0.5615650847300887,-0.6750550511140376
1772459240134642200,9.37564208984375,0.2664975580334663,0.7013084864631295,-0.6788549548536539
1772459240144639200,9.38563916015625,0.3103478056758642,0.7543713836088776,-0.6733689977232367
1772459240154637000,9.395636962890626,0.5023574012190103,0.7103694525361061,-0.7222634500779211
1772459240164634000,9.405634033203125,0.6378565895110369,0.6815639215514063,-0.7740516511127352
1772459240174631200,9.415631103515626,0.7082908926963806,0.6999187856703997,-0.8141773983392864
1772459240184628200,9.425628173828125,0.8073720291733741,0.695371205368638,-0.7955057964213192
1772459240194625000,9.435625,0.8325789511442184,0.6729021839290857,-0.7634349069651216
1772459240204623000,9.445623046875,0.7680582559168339,0.5936971297889948,-0.7668801520481705
1772459240214620200,9.4556201171875,0.6594593495100737,0.5024024094045162,-0.8055801042553037
1772459240224617200,9.4656171875,0.5413911884903907,0.43100072249174115,-0.7954922793526202
1772459240234614000,9.475614013671875,0.44493923147320746,0.3760357911169529,-0.8213830188691615
1772459240244611300,9.485611328125,0.3722089263051748,0.36749943343997,-0.8488054249323904
1772459240254609200,9.495609130859375,0.34948972949683665,0.372424907143414,-0.8581335175089537
1772459240264606200,9.505606201171876,0.41341128978729247,0.36628801182359455,-0.8454186320383101
1772459240274603000,9.51560302734375,0.5390823270261287,0.3545774080246687,-0.8112615108925849
1772459240284600300,9.525600341796874,0.5709188962697982,0.3097007399439812,-0.7838565674208104
1772459240294597000,9.53559716796875,0.542785857719183,0.27558891924470663,-0.7339732501592486
1772459240304595200,9.54559521484375,0.557196660387516,0.26646424028575416,-0.6884953282497823
1772459240314592000,9.555592041015625,0.5678676920056343,0.26994740622639657,-0.6344692120950669
1772459240324589300,9.56558935546875,0.5609761789262294,0.30267595587372775,-0.5661956671401858
1772459240334586000,9.575586181640626,0.6493570576906204,0.32185967203229665,-0.5021636687451974
1772459240344583200,9.585583251953125,0.7842343146920203,0.28926790050715206,-0.5074941065203398
1772459240354580200,9.595580322265626,0.8959592441648244,0.1788882481634617,-0.5305297853993252
1772459240364578300,9.605578369140625,0.9884832140833139,0.04270253891199827,-0.5247661438386887
1772459240374575000,9.6155751953125,1.0337813224464654,-0.059259121437370776,-0.4812055267926305
1772459240384572200,9.625572265625,1.0390572170227765,-0.19268150345534085,-0.4200335574712604
1772459240394569200,9.6355693359375,0.953791839930415,-0.36685441353470083,-0.3948103419527411
1772459240404566300,9.645566162109375,0.8166098131179809,-0.5512643477290868,-0.32884036123249677
1772459240414564000,9.655564208984375,0.8180085740000009,-0.6807113963752984,-0.26972903250167146
1772459240424561200,9.66556103515625,0.7727239096403121,-0.7392711373716593,-0.22995891204606742
1772459240434558200,9.67555810546875,0.6820563812434672,-0.8000453395470977,-0.177106643710006
1772459240444555300,9.68555517578125,0.6095844347506761,-0.8556342480391264,-0.14225116503657773
1772459240454552000,9.695552001953125,0.5077770881801843,-0.9067921883463859,-0.13845306966155765
1772459240464550100,9.705550048828124,0.43221185184717176,-0.9446548860117793,-0.1819370778074488
1772459240474547200,9.715547119140625,0.37437165729701516,-0.9683081487998366,-0.22065765267750248
1772459240484544300,9.725544189453124,0.34643969427645205,-0.9735495565846561,-0.3003795337659307
1772459240494541000,9.735541015625,0.3004085954636335,-0.9373965854465961,-0.36432759847082197
1772459240504538000,9.7455380859375,0.21353169152140616,-0.8950342382743954,-0.4104390690434724
1772459240514536200,9.7555361328125,0.11461480569541453,-0.8856357108101248,-0.4331453333050012
1772459240524533200,9.765533203125,-0.04930559043884277,-0.8709472602441907,-0.44676184379048645
1772459240534530000,9.775530029296876,-0.21595278118848799,-0.7816261780202388,-0.450358406977728
1772459240544528000,9.78552783203125,-0.2624199333310127,-0.6889461407572031,-0.3883766921760514
1772459240554524700,9.795524658203124,-0.291149768730998,-0.681050857462734,-0.34590061896368857
1772459240564521700,9.805521728515625,-0.4217652766346931,-0.7134286939762532,-0.3324952670108527
1772459240574519600,9.81551953125,-0.5608960994273424,-0.7019312945365905,-0.32994265991859134
1772459240584516900,9.825516845703126,-0.601755348560214,-0.6500308652989566,-0.3182990569412708
1772459240594513700,9.835513671875,-0.6129454356163739,-0.6180410051897168,-0.4498083353469148
1772459240604510700,9.8455107421875,-0.6226251181095838,-0.5286547487750649,-0.4994073192417621
1772459240614507800,9.8555078125,-0.6050462067991494,-0.39789983240067955,-0.5475643606999888
1772459240624505900,9.865505859375,-0.6098375327289104,-0.32690687241926786,-0.5433774304041639
1772459240634502700,9.875502685546875,-0.6735977649778128,-0.27400544944554567,-0.4784377060471102
1772459240644499700,9.885499755859374,-0.7330804660379886,-0.24083090959638356,-0.4206728782881051
1772459240654496800,9.895496826171875,-0.7258645433098078,-0.3382017350241542,-0.2953656328603625
1772459240664493800,9.905493896484375,-0.6175280872315168,-0.545631602539122,-0.12411248268522321
1772459240674491600,9.91549169921875,-0.5830173303425311,-0.5557485074058175,-0.08959905891511588
1772459240684488700,9.92548876953125,-0.6489040532261133,-0.34240649323761463,-0.022277426123898474
1772459240694485800,9.93548583984375,-0.6824918500512838,-0.18019114745557308,0.056539998671785
1772459240704482800,9.94548291015625,-0.8037251971036196,-0.1773775513395667,0.12685281263561918
1772459240714479600,9.955479736328124,-0.8637526725649833,-0.2502332364529371,0.18607761167827994
1772459240724477700,9.965477783203125,-0.7426140180587768,-0.3164274178504944,0.24619265582524238
1772459240734474800,9.975474853515625,-0.6338567062199115,-0.31886312056481836,0.2900979946557432
1772459240744471800,9.985471923828126,-0.5715004955500363,-0.2672989375442266,0.3218642751421779
1772459240754469600,9.9954697265625,-0.5219891534060239,-0.286614171127975,0.3825424330646172
1772459240764466700,10.005466796875,-0.5563730690449475,-0.3632344694718718,0.41663120168186724
1772459240774463700,10.015463623046875,-0.5989882219344377,-0.3891998085945844,0.42524351067189126
1772459240784460800,10.025460693359374,-0.6235241127759218,-0.3212520615279674,0.3989901483880356
1772459240794457600,10.03545751953125,-0.675398676919937,-0.2312827445283532,0.4086414450369775
1772459240804455700,10.04545556640625,-0.7009627417653799,-0.14201952997148037,0.4328533646211028
1772459240814452700,10.05545263671875,-0.5562415516197681,-0.019664777673780918,0.3811209854267537
1772459240824449800,10.06544970703125,-0.2892038953602314,0.15914835942685604,0.26968692865930494
1772459240834446600,10.075446533203126,-0.061381228157877915,0.36277415848374367,0.1776670723380521
1772459240844444000,10.08544384765625,0.07627776851654053,0.5420753713622689,0.15289660555571316
1772459240854441700,10.095441650390624,0.2607078687161207,0.6422691452562809,0.1556498132539913
1772459240864438800,10.105438720703125,0.5071569104552268,0.6475313035681843,0.17874631894212215
1772459240874435600,10.115435546875,0.6006190380066633,0.615274755346775,0.2353136074796319
1772459240884433000,10.125432861328125,0.6535474951177835,0.5764478888243436,0.5275522674258798
1772459240894429700,10.1354296875,0.6928185982763767,0.5538222155183553,0.7905212860070169
1772459240904427800,10.145427734375,0.6118401047229767,0.4998167768254876,1.0289698305115103
1772459240914424600,10.155424560546875,0.593381487968564,0.4163590336769819,1.2023130117684602
1772459240924422000,10.165421875,0.6039005438953637,0.30181495513021944,1.3628266681991517
1772459240934418700,10.175418701171875,0.5698743556529283,0.20316753389537334,1.5100509272068738
1772459240944415700,10.185415771484376,0.43476913511455056,0.16055881074666975,1.6774901451170443
1772459240954412800,10.195412841796875,0.3540419859737158,0.15025368983149529,1.726674739524722
1772459240964411000,10.205410888671874,0.3485726146519184,0.23397592913508414,1.717603544318676
1772459240974407700,10.21540771484375,0.37199966746866703,0.354034094928205,1.6449613558255134
1772459240984404700,10.22540478515625,0.3572948502898216,0.4261255176708102,1.5126098179094492
1772459240994401800,10.23540185546875,0.31878128750026224,0.4825163901954889,1.3745553921766578
1772459241004398800,10.24539892578125,0.24639818833470342,0.561025571025908,1.246748219691962
1772459241014396700,10.255396728515626,0.14661562559008598,0.6603598054811358,1.0893570791959761
1772459241024393700,10.265393798828125,0.021873393633961676,0.7539578343719243,0.9365116193056106
1772459241034390800,10.275390869140624,-0.015106383717060088,0.8049553234204649,0.7872475980985909
1772459241044387800,10.285387939453125,0.03643149581849575,0.8017723094701766,0.662050096655637
1772459241054384600,10.295384521484374,0.08232055581212043,0.8178370168253779,0.5518170862410218
1772459241064382700,10.3053828125,0.14461363811790942,0.8627800281405449,0.46105643620062614
1772459241074379800,10.3153798828125,0.24884616600871085,0.9032225131660699,0.4299417514907196
1772459241084376800,10.325376953125,0.36150574598312374,0.7943395291209221,0.38391364835258573
1772459241094373600,10.33537353515625,0.41935353931784625,0.6275578983366489,0.35494317259714003
1772459241104371000,10.345370849609376,0.38664427889287467,0.5020999193266034,0.545456903559342
1772459241114367700,10.35536767578125,0.3952572089374065,0.3877709448352456,0.7506753786351531
1772459241124365800,10.36536572265625,0.45354923890829085,0.2556242818415165,0.8530562873098999
1772459241134362600,10.375362548828125,0.4960796361237764,0.09056728289276361,0.960396060501039
1772459241144360000,10.38535986328125,0.45824821037948127,-0.01283843878507614,1.0541204922504723
1772459241154356700,10.395356689453125,0.37878713565170763,-0.0346712081477046,1.1415265346333383
1772459241164353500,10.405353515625,0.4551256944447756,-0.0815203453451395,1.1301166673466563
1772459241174351600,10.4153515625,0.5235603482455015,-0.14278613042980431,1.024150593661517
1772459241184349000,10.425348876953125,0.498728689327836,-0.19342413851618764,0.9239587925288826
1772459241194345700,10.435345703125,0.46139176910221574,-0.23693828607201575,0.8255240641966461
1772459241204342500,10.445342529296875,0.4247556906223297,-0.29269670591205355,0.7508942090176045
1772459241214339800,10.45533984375,0.3128583271920681,-0.3135574153721332,0.7226756110753864
1772459241224338000,10.465337890625,0.26457565006017686,-0.31633330982625485,0.6930449543781578
1772459241234334700,10.475334716796874,0.21624328856766223,-0.3259896114438772,0.7018555989518761
1772459241244331500,10.48533154296875,0.13566343894302843,-0.33869857863038777,0.7209508331093937
1772459241254328800,10.495328857421875,0.09074468528628349,-0.3585787526205182,0.6965515011943876
1772459241264325600,10.50532568359375,0.07719722144901751,-0.38758974304944277,0.6487522967305034
1772459241274322700,10.51532275390625,-0.006055062255263328,-0.39516514673978087,0.6359635423060506
1772459241284320800,10.52532080078125,-0.07418225754201412,-0.3884793853655457,0.6238675924513488
1772459241294317800,10.53531787109375,-0.13921265585720538,-0.3704123982772231,0.623985812003538
1772459241304314600,10.545314697265624,-0.2647679577618837,-0.3879945244580507,0.6068855510555208
1772459241314311700,10.555311767578125,-0.3462111462175846,-0.3933513753160834,0.5609278828050941
1772459241324308700,10.565308837890624,-0.45038697548508644,-0.37843613025695083,0.474394166277349
1772459241334306800,10.575306884765626,-0.5711866072952747,-0.3232528799563646,0.4026573291260749
1772459241344303600,10.5853037109375,-0.6071691903024912,-0.26816812159419057,0.3369601739978418
1772459241354300700,10.59530078125,-0.6564268499463797,-0.35166561223119497,0.3717788643248379
1772459241364297700,10.605297607421875,-0.7610685431599616,-0.6318392289176583,0.6055336980551481
1772459241374294800,10.615294677734376,-0.8832020539224147,-0.8027288795426487,0.7392544784978031
1772459241384292600,10.625292724609375,-0.9348305343508719,-0.5713774536922573,0.7259075056686997
1772459241394289700,10.63528955078125,-0.9293459654599427,-0.2924213961020112,0.6764365686003119
1772459241404286700,10.64528662109375,-1.0233160425335168,-0.34113428134471174,0.662004357817769
1772459241414283800,10.65528369140625,-1.0905617788106203,-0.5879471879601478,0.6459726028840989
1772459241424280600,10.665280517578125,-1.0705793134897947,-0.6607464667111634,0.5309403024289757
1772459241434278000,10.67527783203125,-1.048256422522664,-0.47220805440992114,0.37548535415995865
1772459241444275700,10.685275634765626,-0.9726806647956371,-0.28484248528033496,0.2112167839088477
1772459241454272800,10.695272705078125,-0.8516390409231186,-0.23849925177842377,0.09026358723845332
1772459241464269600,10.70526953125,-0.752802234596014,-0.2929603252843022,0.0123348046784522
1772459241474267000,10.715266845703125,-0.7855956661731004,-0.3065127575576305,-0.06994042328775395
1772459241484263700,10.725263671875,-0.8723410526901483,-0.15482406648695468,-0.09533950226325541
1772459241494261800,10.73526171875,-0.690078359657526,0.0472346293836832,-0.20047170067382974
1772459241504258600,10.745258544921874,-0.6549632071346044,0.1709898961290717,-0.14013898605504072
1772459241514256000,10.755255859375,-0.7002765130668878,0.33251872095167634,0.0692754383066902
1772459241524252700,10.765252685546875,-0.4394645994544029,0.4802127894282341,0.0897514181989245
1772459241534249700,10.775249755859376,-0.3555681726276874,0.5810661962747573,0.20134552436629308
1772459241544246800,10.785246826171875,-0.6134270816534757,0.6728852327942848,0.11493193622003309
1772459241554243600,10.79524365234375,-0.42845220705270765,0.7277206925705075,-0.3495373680308461
1772459241564240600,10.80524072265625,-0.3563549390912056,0.7994152249500155,-0.4920264882754534
1772459241574237700,10.81523779296875,-0.19085458028912544,0.8351938098177313,-0.525382120312564
1772459241584234800,10.82523486328125,0.1026689318358898,0.8752382354363799,-0.5784212347239256
1772459241594231600,10.8352314453125,0.24462942509651184,0.8876786148145794,-0.6642706222493201
1772459241604229600,10.845229736328125,0.30805764891207216,0.8358820843428373,-0.7506001945070921
1772459241614226700,10.855226806640625,0.4835708676844835,0.7793044570744038,-0.7871536362048238
1772459241624223700,10.8652236328125,0.7509048765420914,0.710602676770091,-0.6536302780304104
1772459241634220500,10.875220458984375,0.7913292413890362,0.6761386816322803,-0.34380887084882705
