time,seconds_elapsed,z,y,x
1772025705350227000,0.07422705078125,-0.13512186706066132,0.14430691301822662,-0.22094635665416718
1772025705360223700,0.0842236328125,-0.1684396117925644,0.10930216312408447,-0.22724726796150208
1772025705370221800,0.094221923828125,-0.1949620395898819,0.10629172623157501,-0.23823493719100952
1772025705380218600,0.104218505859375,-0.20749475061893463,0.1285572350025177,-0.2601361572742462
1772025705390216000,0.1142158203125,-0.2098093032836914,0.15538007020950317,-0.30009716749191284
1772025705400213800,0.1242138671875,-0.21831677854061127,0.16947831213474274,-0.35551220178604126
1772025705410210800,0.1342109375,-0.21153663098812103,0.1843656450510025,-0.3983009457588196
1772025705420211500,0.14421142578125,-0.1860431581735611,0.22424007952213287,-0.4254993498325348
1772025705430209300,0.154209228515625,-0.14511489868164062,0.26528897881507874,-0.4413678050041199
1772025705440206600,0.16420654296875,-0.0995095819234848,0.2761611044406891,-0.4592922031879425
1772025705450203400,0.174203369140625,-0.05574745684862137,0.24583996832370758,-0.4921380281448364
1772025705460201500,0.184201416015625,-0.016985172405838966,0.1954229325056076,-0.5103017091751099
1772025705470198300,0.1941982421875,0.012225178070366383,0.15129488706588745,-0.5176770687103271
1772025705480196400,0.2041962890625,0.03182179108262062,0.1087595596909523,-0.495455801486969
1772025705490193400,0.214193359375,0.051531579345464706,0.09516225755214691,-0.448048859834671
1772025705500190500,0.2241904296875,0.08838282525539398,0.11822729557752609,-0.37283629179000854
1772025705510188500,0.2341884765625,0.15148375928401947,0.16497668623924255,-0.2832430303096771
1772025705520185300,0.244185302734375,0.23104612529277802,0.19719518721103668,-0.1916593611240387
1772025705530182400,0.254182373046875,0.292900949716568,0.18748050928115845,-0.1216195672750473
1772025705540180500,0.264180419921875,0.32306209206581116,0.13891449570655823,-0.07242503017187119
1772025705550177500,0.274177490234375,0.33669453859329224,0.09081646800041199,-0.02415390871465206
1772025705560174600,0.284174560546875,0.3365665078163147,0.07267171889543533,0.02957216091454029
1772025705570172700,0.294172607421875,0.3356306850910187,0.08544423431158066,0.08287292718887329
1772025705580169500,0.30416943359375,0.3369327485561371,0.15071576833724976,0.1332458108663559
1772025705590167600,0.31416748046875,0.35898080468177795,0.24028745293617249,0.18861772119998932
1772025705600164400,0.324164306640625,0.38129082322120667,0.26598015427589417,0.22797687351703644
1772025705610161700,0.33416162109375,0.3714320659637451,0.24484317004680634,0.2260894924402237
1772025705620159500,0.344159423828125,0.35348647832870483,0.2342883050441742,0.20181576907634735
1772025705630156500,0.354156494140625,0.3521578311920166,0.22420957684516907,0.16075807809829712
1772025705640153300,0.3641533203125,0.3525732457637787,0.19251498579978943,0.10909835249185562
1772025705650151400,0.3741513671875,0.3438391387462616,0.13931380212306976,0.047480259090662
1772025705660148500,0.3841484375,0.2983509600162506,0.05692101642489433,-0.029367858543992043
1772025705670145500,0.3941455078125,0.2275385707616806,-0.017723124474287033,-0.0925859734416008
1772025705680143400,0.404143310546875,0.15783143043518066,-0.04596959799528122,-0.11805219203233719
1772025705690140400,0.414140380859375,0.10011406987905502,-0.04731609299778938,-0.11083316057920456
1772025705700137500,0.424137451171875,0.05384219065308571,-0.0484783835709095,-0.06806057691574097
1772025705710135600,0.434135498046875,0.02521267719566822,-0.05418793484568596,-0.010361597873270512
1772025705720132600,0.444132568359375,0.010761866346001625,-0.07146164774894714,0.04400896281003952
1772025705730130400,0.45413037109375,0.026288093999028206,-0.08956395834684372,0.10506459325551987
1772025705740127500,0.46412744140625,0.07415545731782913,-0.07205495983362198,0.16350677609443665
1772025705750124500,0.47412451171875,0.14289723336696625,-0.04388457164168358,0.21419018507003784
1772025705760122600,0.48412255859375,0.2274889498949051,-0.005869773216545582,0.23824460804462433
1772025705770119400,0.494119384765625,0.3161223828792572,0.014438161626458168,0.24702876806259155
1772025705780116500,0.504116455078125,0.40484413504600525,0.024394653737545013,0.23388469219207764
1772025705790114300,0.5141142578125,0.4820968508720398,0.03456100448966026,0.21061691641807556
1772025705800111600,0.524111572265625,0.5612044334411621,0.0674203485250473,0.19101457297801971
1772025705810108400,0.5341083984375,0.6479587554931641,0.12305884063243866,0.1833593100309372
1772025705820106500,0.5441064453125,0.720635175704956,0.19925457239151,0.19509966671466827
1772025705830103300,0.554103271484375,0.7847760915756226,0.2661406695842743,0.21467018127441406
1772025705840101400,0.564101318359375,0.8320062756538391,0.3149849474430084,0.23455984890460968
1772025705850098400,0.574098388671875,0.8680838346481323,0.3319860100746155,0.24123799800872803
1772025705860095500,0.584095458984375,0.8973497152328491,0.32768937945365906,0.23953045904636383
1772025705870093600,0.594093505859375,0.9215564727783203,0.2946704626083374,0.22630785405635834
1772025705880090400,0.60409033203125,0.9423028230667114,0.24646656215190887,0.20057718455791473
1772025705890087400,0.61408740234375,0.9553161263465881,0.19539272785186768,0.18133556842803955
1772025705900085500,0.62408544921875,0.9554252624511719,0.13643741607666016,0.154976949095726
1772025705910082600,0.63408251953125,0.9399001002311707,0.08349724113941193,0.1124422699213028
1772025705920079400,0.644079345703125,0.8986228108406067,0.02265462465584278,0.05483940243721008
1772025705930077400,0.654077392578125,0.8410478830337524,-0.0648065134882927,-0.023724647238850594
1772025705940074500,0.664074462890625,0.7548478841781616,-0.16595745086669922,-0.13322444260120392
1772025705950071600,0.674071533203125,0.6250488758087158,-0.2763846218585968,-0.2655041813850403
1772025705960069400,0.6840693359375,0.45806559920310974,-0.3909168541431427,-0.41774481534957886
1772025705970066400,0.69406640625,0.2713007926940918,-0.48068538308143616,-0.564185380935669
1772025705980064500,0.704064453125,0.10101959854364395,-0.5237547159194946,-0.6807243824005127
1772025705990061600,0.7140615234375,-0.044043317437171936,-0.49862322211265564,-0.749438464641571
1772025706000058400,0.724058349609375,-0.15517070889472961,-0.38737720251083374,-0.7692021727561951
1772025706010056400,0.734056396484375,-0.21079188585281372,-0.20481163263320923,-0.7244916558265686
1772025706020053500,0.744053466796875,-0.20102502405643463,0.027194853872060776,-0.6334316730499268
1772025706030050600,0.754050537109375,-0.11977836489677429,0.27478039264678955,-0.5205780863761902
1772025706040048400,0.76404833984375,0.015800582244992256,0.4955083429813385,-0.4096972644329071
1772025706050045400,0.77404541015625,0.1851472705602646,0.6321170330047607,-0.3218584954738617
1772025706060042500,0.78404248046875,0.3572908639907837,0.7009778618812561,-0.2721129357814789
1772025706070040600,0.79404052734375,0.5135592818260193,0.7218421697616577,-0.2514401376247406
1772025706080037400,0.804037353515625,0.6435316205024719,0.6966946721076965,-0.2503606081008911
1772025706090035500,0.814035400390625,0.7446619272232056,0.6316957473754883,-0.2789466977119446
1772025706100032500,0.824032470703125,0.8298129439353943,0.5593885779380798,-0.3028157651424408
1772025706110029600,0.834029541015625,0.890121579170227,0.5035529732704163,-0.3299163579940796
1772025706120027600,0.844027587890625,0.9280371069908142,0.45707789063453674,-0.35291850566864014
1772025706130024400,0.8540244140625,0.946747899055481,0.41060519218444824,-0.37084558606147766
1772025706140021500,0.864021484375,0.9403926730155945,0.34449276328086853,-0.3747812509536743
1772025706150019300,0.874019287109375,0.9067196249961853,0.250165194272995,-0.3623581528663635
1772025706160016600,0.8840166015625,0.8442699313163757,0.11751474440097809,-0.335453063249588
1772025706170013400,0.894013427734375,0.7501306533813477,-0.03422631695866585,-0.2894640266895294
1772025706180011500,0.904011474609375,0.6198744177818298,-0.17220725119113922,-0.22338446974754333
1772025706190008300,0.91400830078125,0.4826616644859314,-0.2818615734577179,-0.14065974950790405
1772025706200005600,0.924005615234375,0.34606993198394775,-0.36023926734924316,-0.05610021948814392
1772025706210003500,0.93400341796875,0.2331566959619522,-0.4091964364051819,0.014902055263519287
1772025706220000500,0.94400048828125,0.15809129178524017,-0.44392669200897217,0.06761062890291214
1772025706229998600,0.95399853515625,0.10816953331232071,-0.46378108859062195,0.10006337612867355
1772025706239995400,0.963995361328125,0.08147408813238144,-0.4606402516365051,0.11401112377643585
1772025706249992400,0.973992431640625,0.0753573402762413,-0.42944851517677307,0.11362922936677933
1772025706259990500,0.983990478515625,0.08187006413936615,-0.36732810735702515,0.10847482830286026
1772025706269987600,0.993987548828125,0.10846865177154541,-0.2927390933036804,0.11014995723962784
1772025706279984400,1.003984375,0.15455293655395508,-0.21289874613285065,0.09687855839729309
1772025706289982500,1.013982421875,0.2225804626941681,-0.13621754944324493,0.08500485122203827
1772025706299979500,1.0239794921875,0.30972087383270264,-0.07328537106513977,0.07389871776103973
1772025706309976600,1.0339765625,0.3900093138217926,-0.04265396296977997,0.05485311895608902
1772025706319974400,1.043974365234375,0.453411340713501,-0.05137623846530914,0.0358140803873539
1772025706329971500,1.053971435546875,0.4867807626724243,-0.09039074927568436,0.028894921764731407
1772025706339969300,1.06396923828125,0.4997249245643616,-0.12833987176418304,0.03705131635069847
1772025706349966600,1.073966552734375,0.5158168077468872,-0.1360260248184204,0.06908994168043137
1772025706359963400,1.08396337890625,0.5543296337127686,-0.10530988872051239,0.13172215223312378
1772025706369961500,1.09396142578125,0.6236304044723511,-0.07899706065654755,0.20032411813735962
1772025706379958300,1.103958251953125,0.66566401720047,-0.10938981920480728,0.23443922400474548
1772025706389955600,1.11395556640625,0.6369713544845581,-0.18982794880867004,0.21485035121440887
1772025706399953400,1.123953369140625,0.556813657283783,-0.27028194069862366,0.1583586484193802
1772025706409950500,1.133950439453125,0.466411828994751,-0.3105374872684479,0.10155847668647766
1772025706419947300,1.143947265625,0.381544291973114,-0.31867852807044983,0.035654470324516296
1772025706429945000,1.153945068359375,0.28725722432136536,-0.33998966217041016,-0.056609146296978
1772025706439942100,1.163942138671875,0.18763257563114166,-0.3818286657333374,-0.1725901961326599
1772025706449940200,1.173940185546875,0.1046852320432663,-0.4003964960575104,-0.2776268422603607
1772025706459937000,1.18393701171875,0.04005083069205284,-0.40812423825263977,-0.3515476882457733
1772025706469934000,1.19393408203125,-0.017509400844573975,-0.407960444688797,-0.3971838653087616
1772025706479932200,1.20393212890625,-0.06521721929311752,-0.3888545632362366,-0.406147301197052
1772025706489929200,1.21392919921875,-0.08259567618370056,-0.34425780177116394,-0.3765209913253784
1772025706499926000,1.223926025390625,-0.06629480421543121,-0.2718774974346161,-0.2911413311958313
1772025706509924000,1.233924072265625,-0.01728438027203083,-0.19781391322612762,-0.1682407259941101
1772025706519921200,1.243921142578125,0.04278041422367096,-0.11631620675325394,-0.01963040418922901
1772025706529918200,1.253918212890625,0.11079541593790054,-0.024696270003914833,0.13777093589305878
1772025706539916000,1.263916015625,0.18339183926582336,0.07315781712532043,0.29613396525382996
1772025706549913000,1.2739130859375,0.2419222593307495,0.14470656216144562,0.42869120836257935
1772025706559910100,1.28391015625,0.284866064786911,0.18108440935611725,0.5187422037124634
1772025706569908200,1.293908203125,0.31440532207489014,0.17556314170360565,0.5714887976646423
1772025706579905000,1.303905029296875,0.3324693441390991,0.155039444565773,0.5945805311203003
1772025706589903000,1.313903076171875,0.3400689363479614,0.12704987823963165,0.5973376631736755
1772025706599900000,1.32389990234375,0.33965200185775757,0.08782726526260376,0.571669340133667
1772025706609897200,1.333897216796875,0.31136682629585266,0.034248724579811096,0.5173371434211731
1772025706619895000,1.34389501953125,0.26149606704711914,-0.02274424582719803,0.44819164276123047
1772025706629892000,1.35389208984375,0.18990124762058258,-0.05670034885406494,0.3637177646160126
1772025706639889000,1.363888916015625,0.08853351324796677,-0.05636194348335266,0.27376696467399597
1772025706649887000,1.373886962890625,-0.011669784784317017,-0.030850987881422043,0.1791515350341797
1772025706659884300,1.38388427734375,-0.10262063145637512,-0.014459121972322464,0.07782232761383057
1772025706669881000,1.393881103515625,-0.17490574717521667,-0.0008964414009824395,-0.02133622020483017
1772025706679879200,1.403879150390625,-0.22164805233478546,0.010190187022089958,-0.11154527217149734
1772025706689876000,1.4138759765625,-0.24504046142101288,0.03980587050318718,-0.18017253279685974
1772025706699874000,1.4238740234375,-0.2351548969745636,0.08942405879497528,-0.22608591616153717
1772025706709871000,1.43387109375,-0.20657464861869812,0.16404743492603302,-0.2436896711587906
1772025706719868200,1.4438681640625,-0.14868378639221191,0.2572374939918518,-0.24678100645542145
1772025706729866000,1.453865966796875,-0.06844780594110489,0.35020923614501953,-0.23194852471351624
1772025706739863000,1.463863037109375,0.005436764098703861,0.4312806725502014,-0.21173229813575745
1772025706749860000,1.473860107421875,0.07170846313238144,0.49269768595695496,-0.18861979246139526
1772025706759858200,1.483858154296875,0.12853685021400452,0.5383746027946472,-0.16596348583698273
1772025706769855000,1.49385498046875,0.17589159309864044,0.5591704249382019,-0.15410202741622925
1772025706779852000,1.50385205078125,0.2085699439048767,0.5610779523849487,-0.1589551419019699
1772025706789850000,1.51385009765625,0.22700461745262146,0.5375574231147766,-0.1851973980665207
1772025706799847200,1.52384716796875,0.2348226010799408,0.4940977096557617,-0.22901958227157593
1772025706809845200,1.53384521484375,0.2290605902671814,0.4412986636161804,-0.2871340215206146
1772025706819842000,1.543842041015625,0.20036442577838898,0.3964041471481323,-0.3517568111419678
1772025706829839000,1.553839111328125,0.15911179780960083,0.35597363114356995,-0.4110870063304901
1772025706839837200,1.563837158203125,0.10467231273651123,0.3202774226665497,-0.44627758860588074
1772025706849834200,1.573834228515625,0.04292266070842743,0.29929253458976746,-0.45461249351501465
1772025706859831000,1.5838310546875,-0.017704062163829803,0.2890138626098633,-0.44290369749069214
1772025706869829000,1.5938291015625,-0.05770207941532135,0.28068962693214417,-0.4092157781124115
1772025706879826200,1.603826171875,-0.08310455083847046,0.2781749367713928,-0.3622921407222748
1772025706889823200,1.6138232421875,-0.09501766413450241,0.270468533039093,-0.31454700231552124
1772025706899821000,1.623821044921875,-0.0930810421705246,0.2605102062225342,-0.26694920659065247
1772025706909818000,1.633818115234375,-0.07710100710391998,0.24065183103084564,-0.2249263972043991
1772025706919815200,1.643815185546875,-0.04606812819838524,0.2136228233575821,-0.18336400389671326
1772025706929813200,1.653813232421875,-0.010552210733294487,0.20627222955226898,-0.13959841430187225
1772025706939810000,1.66381005859375,0.034130748361349106,0.2129592001438141,-0.08834955096244812
1772025706949808000,1.67380810546875,0.07919622957706451,0.23352599143981934,-0.0363614484667778
1772025706959805000,1.683804931640625,0.12353294342756271,0.2667338252067566,0.010296264663338661
1772025706969802200,1.69380224609375,0.16847564280033112,0.30602797865867615,0.05462804436683655
1772025706979800000,1.703800048828125,0.21820895373821259,0.32266661524772644,0.10630769282579422
1772025706989797000,1.713797119140625,0.2650502324104309,0.33291923999786377,0.16470469534397125
1772025706999794000,1.7237939453125,0.29762059450149536,0.33565646409988403,0.2156347632408142
1772025707009792000,1.7337919921875,0.3182097375392914,0.3152497410774231,0.2611047923564911
1772025707019789000,1.7437890625,0.32544904947280884,0.26507461071014404,0.30233651399612427
1772025707029786000,1.7537861328125,0.3214426040649414,0.2035185694694519,0.34221282601356506
1772025707039784200,1.7637841796875,0.29692068696022034,0.13346509635448456,0.3751657009124756
1772025707049781000,1.773781005859375,0.2589986026287079,0.07486889511346817,0.39473193883895874
1772025707059778300,1.7837783203125,0.2234572023153305,0.04599437862634659,0.40074414014816284
1772025707069776100,1.793776123046875,0.1907418668270111,0.013041752390563488,0.38860440254211426
1772025707079773200,1.803773193359375,0.1542588472366333,-0.025670336559414864,0.340859979391098
1772025707089771000,1.81377099609375,0.09268683940172195,-0.05401143059134483,0.26574233174324036
1772025707099768000,1.82376806640625,0.030300620943307877,-0.07383668422698975,0.17265073955059052
1772025707109765000,1.83376513671875,-0.028482802212238312,-0.09025267511606216,0.08589135110378265
1772025707119763200,1.84376318359375,-0.080912284553051,-0.08579010516405106,0.016009621322155
1772025707129760000,1.853760009765625,-0.12148714065551758,-0.052321091294288635,-0.025792419910430908
1772025707139757000,1.863757080078125,-0.1514652967453003,0.0002200772287324071,-0.03653210401535034
1772025707149755000,1.8737548828125,-0.15866248309612274,0.06921113282442093,-0.028351405635476112
1772025707159752200,1.883752197265625,-0.14261281490325928,0.12166588753461838,-0.017049815505743027
1772025707169749000,1.8937490234375,-0.10787799954414368,0.14478319883346558,-0.015796532854437828
1772025707179747000,1.9037470703125,-0.059163156896829605,0.14347246289253235,-0.035484228283166885
1772025707189743900,1.913743896484375,-0.0014527227031067014,0.1295342743396759,-0.0613216869533062
1772025707199741200,1.9237412109375,0.05765756219625473,0.11108481138944626,-0.0990026667714119
1772025707209739300,1.9337392578125,0.11164996027946472,0.09615007042884827,-0.13694845139980316
1772025707219736000,1.943736083984375,0.15805941820144653,0.10522638261318207,-0.17466621100902557
1772025707229734100,1.953734130859375,0.20466022193431854,0.14112234115600586,-0.19796833395957947
1772025707239731200,1.963731201171875,0.2440609484910965,0.18639782071113586,-0.2085089236497879
1772025707249728300,1.973728271484375,0.27577999234199524,0.2287604659795761,-0.19995883107185364
1772025707259726000,1.98372607421875,0.30929964780807495,0.27547547221183777,-0.1784515529870987
1772025707269723100,1.99372314453125,0.336494505405426,0.3083878755569458,-0.14563262462615967
1772025707279720200,2.00372021484375,0.3758530914783478,0.33746612071990967,-0.09697480499744415
1772025707289718300,2.01371826171875,0.417072057723999,0.3680570423603058,-0.025833720341324806
1772025707299715000,2.023715087890625,0.4598971903324127,0.4052189290523529,0.06077486276626587
1772025707309712100,2.033712158203125,0.5055150389671326,0.42866674065589905,0.147775799036026
1772025707319710000,2.0437099609375,0.5335440635681152,0.4335348606109619,0.2272530198097229
1772025707329707300,2.053707275390625,0.5408677458763123,0.4070127010345459,0.29184797406196594
1772025707339704000,2.0637041015625,0.5431361198425293,0.35107702016830444,0.34055137634277344
1772025707349702100,2.0737021484375,0.5427550077438354,0.2999570965766907,0.3856815695762634
1772025707359699000,2.083698974609375,0.5361895561218262,0.24302831292152405,0.4208604693412781
1772025707369697000,2.093697021484375,0.5206779837608337,0.17431876063346863,0.43520426750183105
1772025707379694000,2.103694091796875,0.5039499998092651,0.08546542376279831,0.43270203471183777
1772025707389691100,2.113691162109375,0.4881574511528015,-0.012828917242586613,0.4198794364929199
1772025707399689200,2.123689208984375,0.46022269129753113,-0.12148984521627426,0.37951645255088806
1772025707409686000,2.13368603515625,0.40162622928619385,-0.2621188759803772,0.2915453314781189
1772025707419683000,2.14368310546875,0.2978565990924835,-0.4393864572048187,0.1479041874408722
1772025707429678000,2.153677978515625,0.1626548320055008,-0.62993985414505,-0.04540881887078285
1772025707439675400,2.16367529296875,0.021381709724664688,-0.7899465560913086,-0.25663378834724426
1772025707449672200,2.173672119140625,-0.11009429395198822,-0.9012765288352966,-0.4531146287918091
1772025707459670300,2.183670166015625,-0.23746757209300995,-0.9399619102478027,-0.6177162528038025
1772025707469667000,2.1936669921875,-0.33672598004341125,-0.8954399824142456,-0.7101513743400574
1772025707479664400,2.203664306640625,-0.3772414028644562,-0.7590470910072327,-0.706545889377594
1772025707489662200,2.213662109375,-0.34482166171073914,-0.5162104964256287,-0.6129350066184998
1772025707499659300,2.2236591796875,-0.24534054100513458,-0.19801710546016693,-0.4704423248767853
1772025707509657000,2.233656982421875,-0.08378627896308899,0.1161741092801094,-0.30907392501831055
1772025707519654400,2.243654296875,0.12523309886455536,0.34094104170799255,-0.1846296489238739
1772025707529651200,2.253651123046875,0.3429049551486969,0.4507223963737488,-0.12856478989124298
1772025707539649300,2.263649169921875,0.5073824524879456,0.48432260751724243,-0.14446458220481873
1772025707549646000,2.27364599609375,0.6234227418899536,0.48460516333580017,-0.19711127877235413
1772025707559643400,2.283643310546875,0.7157595157623291,0.4862215220928192,-0.26614558696746826
1772025707569641200,2.29364111328125,0.766958475112915,0.4942235052585602,-0.3351435661315918
1772025707579638300,2.30363818359375,0.7803910970687866,0.5074339509010315,-0.38951975107192993
1772025707589635000,2.313635009765625,0.7555712461471558,0.5112622380256653,-0.4269142746925354
1772025707599633200,2.323633056640625,0.7103047966957092,0.4702330231666565,-0.4375688433647156
1772025707609630200,2.333630126953125,0.6421422362327576,0.3734830617904663,-0.42719927430152893
1772025707619627300,2.343627197265625,0.5600419044494629,0.23475809395313263,-0.3918153643608093
1772025707629625300,2.353625244140625,0.48621001839637756,0.07897862046957016,-0.32673409581184387
1772025707639622100,2.3636220703125,0.4190244972705841,-0.060602981597185135,-0.23796318471431732
1772025707649619500,2.373619384765625,0.37201225757598877,-0.18229293823242188,-0.138539120554924
1772025707659617300,2.3836171875,0.3496290147304535,-0.28200194239616394,-0.03598722815513611
1772025707669614300,2.3936142578125,0.33088913559913635,-0.3599790334701538,0.05263052135705948
1772025707679612200,2.403612060546875,0.30884677171707153,-0.41331717371940613,0.1182321161031723
1772025707689609200,2.413609130859375,0.28323832154273987,-0.43943026661872864,0.16460521519184113
1772025707699606300,2.423606201171875,0.24371154606342316,-0.4355466365814209,0.18150968849658966
1772025707709604400,2.433604248046875,0.19732248783111572,-0.41186660528182983,0.1760861575603485
1772025707719601200,2.44360107421875,0.14404228329658508,-0.3881775140762329,0.15286163985729218
1772025707729598200,2.45359814453125,0.0960843414068222,-0.36383622884750366,0.1175643801689148
1772025707739596000,2.463595947265625,0.06220492348074913,-0.338090717792511,0.07740791141986847
1772025707749593300,2.47359326171875,0.03870678320527077,-0.3167151212692261,0.04569152742624283
1772025707759590100,2.483590087890625,0.03136788308620453,-0.2775205075740814,0.024703562259674072
1772025707769588200,2.493588134765625,0.038738448172807693,-0.24110417068004608,0.02391872927546501
1772025707779585000,2.5035849609375,0.06454917043447495,-0.20490621030330658,0.03968310356140137
1772025707789582300,2.513582275390625,0.10333811491727829,-0.17467613518238068,0.06918773055076599
1772025707799580400,2.523580322265625,0.1669756919145584,-0.1444869190454483,0.11483950167894363
1772025707809577200,2.5335771484375,0.2506474256515503,-0.1353916972875595,0.16882391273975372
1772025707819574000,2.543573974609375,0.2976738512516022,-0.18760597705841064,0.199229434132576
1772025707829572000,2.553572021484375,0.28483662009239197,-0.26373669505119324,0.18095669150352478
1772025707839569400,2.5635693359375,0.25594818592071533,-0.2980969250202179,0.1548313945531845
1772025707849567200,2.573567138671875,0.25713756680488586,-0.2759210467338562,0.15252909064292908
1772025707859564300,2.583564208984375,0.2783762216567993,-0.24845266342163086,0.1626013070344925
1772025707869561000,2.59356103515625,0.28414756059646606,-0.2391321361064911,0.16175681352615356
1772025707879559200,2.60355908203125,0.2743793725967407,-0.2694584131240845,0.1476493775844574
1772025707889556200,2.61355615234375,0.2629757225513458,-0.3146940767765045,0.1388138085603714
1772025707899553300,2.62355322265625,0.25469648838043213,-0.37108346819877625,0.14026643335819244
1772025707909551000,2.633551025390625,0.25215476751327515,-0.4362614154815674,0.14816297590732574
1772025707919548200,2.643548095703125,0.2440786510705948,-0.5150723457336426,0.1473599225282669
1772025707929545200,2.653545166015625,0.2176012396812439,-0.5798358917236328,0.14170096814632416
1772025707939543300,2.663543212890625,0.19326290488243103,-0.6204866170883179,0.13274049758911133
1772025707949540000,2.6735400390625,0.17779526114463806,-0.6210528016090393,0.14732076227664948
1772025707959537200,2.683537109375,0.17764133214950562,-0.6036975383758545,0.18952254951000214
1772025707969535200,2.69353515625,0.1877235323190689,-0.5531927943229675,0.2541484236717224
1772025707979532300,2.7035322265625,0.20045699179172516,-0.45315492153167725,0.3270380198955536
1772025707989530400,2.7135302734375,0.2129589319229126,-0.31705033779144287,0.39964723587036133
1772025707999527200,2.723527099609375,0.23067310452461243,-0.16841532289981842,0.4593692123889923
1772025708009524200,2.733524169921875,0.25953271985054016,-0.04919678345322609,0.5049670338630676
1772025708019522300,2.743522216796875,0.29399874806404114,0.050130873918533325,0.533202052116394
1772025708029519400,2.753519287109375,0.3188452422618866,0.12763233482837677,0.5423294901847839
1772025708039516200,2.76351611328125,0.3254101872444153,0.187911719083786,0.5347071886062622
1772025708049514200,2.77351416015625,0.32258325815200806,0.2322632074356079,0.5141552686691284
1772025708059511300,2.78351123046875,0.3015590012073517,0.2590498924255371,0.4812280237674713
1772025708069508400,2.79350830078125,0.2579004466533661,0.2795839309692383,0.43228310346603394
1772025708079506200,2.803506103515625,0.1902087926864624,0.28975626826286316,0.36416465044021606
1772025708089503200,2.813503173828125,0.11463440209627151,0.28604862093925476,0.29237863421440125
1772025708099500300,2.823500244140625,0.034073829650878906,0.2782107889652252,0.21832089126110077
1772025708109498400,2.833498291015625,-0.050718821585178375,0.26552537083625793,0.14476943016052246
1772025708119495200,2.8434951171875,-0.13513456284999847,0.2388213574886322,0.06482624262571335
1772025708129492200,2.8534921875,-0.22124654054641724,0.19746272265911102,-0.02284315414726734
1772025708139490000,2.863489990234375,-0.31136947870254517,0.12836365401744843,-0.11860033869743347
1772025708149487400,2.8734873046875,-0.3991563320159912,0.04555373638868332,-0.21448612213134766
1772025708159484200,2.883484130859375,-0.46653667092323303,-0.04168620705604553,-0.3054390847682953
1772025708169482200,2.893482177734375,-0.5109885931015015,-0.11301498115062714,-0.37091314792633057
1772025708179479000,2.90347900390625,-0.5211347937583923,-0.15494634211063385,-0.41414403915405273
1772025708189477000,2.91347705078125,-0.509943425655365,-0.15135906636714935,-0.43188950419425964
1772025708199474400,2.923474365234375,-0.48021650314331055,-0.10542364418506622,-0.4293723702430725
1772025708209471200,2.93347119140625,-0.4232115149497986,-0.04670599848031998,-0.4115068018436432
1772025708219469300,2.94346923828125,-0.3621102571487427,0.022809237241744995,-0.37735193967819214
1772025708229466000,2.953466064453125,-0.29526758193969727,0.1166105642914772,-0.3348146080970764
1772025708239463400,2.96346337890625,-0.2338135838508606,0.20869210362434387,-0.2993169128894806
1772025708249461200,2.973461181640625,-0.18508252501487732,0.2670414447784424,-0.27865317463874817
1772025708259458300,2.983458251953125,-0.13141180574893951,0.28161847591400146,-0.2666211724281311
1772025708269455000,2.993455078125,-0.0850919708609581,0.2679063677787781,-0.2700875401496887
1772025708279453200,3.003453125,-0.055673882365226746,0.23793397843837738,-0.2857595980167389
1772025708289450200,3.0134501953125,-0.046884652227163315,0.20426523685455322,-0.31017038226127625
1772025708299447300,3.023447265625,-0.05949033051729202,0.15950781106948853,-0.3427783250808716
1772025708309445000,3.033445068359375,-0.08914569020271301,0.10877592861652374,-0.37546780705451965
1772025708319442200,3.043442138671875,-0.14213301241397858,0.06309712678194046,-0.39967116713523865
1772025708329439200,3.053439208984375,-0.1998271942138672,0.020754722878336906,-0.41341066360473633
1772025708339437300,3.063437255859375,-0.25733307003974915,-0.0202014222741127,-0.41288527846336365
1772025708349434000,3.07343408203125,-0.3037479817867279,-0.04497893899679184,-0.3954005539417267
1772025708359432200,3.08343212890625,-0.32842251658439636,-0.060548655688762665,-0.3710198998451233
1772025708369429000,3.093428955078125,-0.3372325003147125,-0.08126272261142731,-0.34726211428642273
1772025708379426300,3.10342626953125,-0.33565300703048706,-0.09869901090860367,-0.31988587975502014
1772025708389424400,3.11342431640625,-0.3255694806575775,-0.10738944262266159,-0.2793744206428528
1772025708399421200,3.123421142578125,-0.3079930543899536,-0.10477832704782486,-0.22274357080459595
1772025708409418000,3.13341796875,-0.28168609738349915,-0.0764060690999031,-0.15428940951824188
1772025708419416000,3.143416015625,-0.2375551015138626,-0.031021958217024803,-0.07233607023954391
1772025708429412600,3.15341259765625,-0.1860532909631729,0.011590216308832169,0.011605175212025642
1772025708439409400,3.163409423828125,-0.12976300716400146,0.0507739894092083,0.09032296389341354
1772025708449407500,3.173407470703125,-0.09271816909313202,0.09779635816812515,0.15346598625183105
1772025708459404800,3.18340478515625,-0.0746794193983078,0.13276085257530212,0.19779251515865326
1772025708469401600,3.193401611328125,-0.07590048015117645,0.15793704986572266,0.22518259286880493
1772025708479399700,3.203399658203125,-0.07763118296861649,0.1625245213508606,0.2309834510087967
1772025708489396500,3.213396484375,-0.08994830399751663,0.14862042665481567,0.22262458503246307
1772025708499393800,3.223393798828125,-0.12141431123018265,0.11933349072933197,0.19348637759685516
1772025708509391600,3.2333916015625,-0.16701003909111023,0.08039434999227524,0.15222442150115967
1772025708519388700,3.243388671875,-0.21414215862751007,0.04025838151574135,0.10461420565843582
1772025708529385500,3.253385498046875,-0.2564816474914551,0.011625408194959164,0.058834999799728394
1772025708539383600,3.263383544921875,-0.284981906414032,-0.015674542635679245,0.011989275924861431
1772025708549380600,3.273380615234375,-0.3091602027416229,-0.021927909925580025,-0.01627351902425289
1772025708559378700,3.283378662109375,-0.3169862926006317,0.017294403165578842,-0.02456614002585411
1772025708569375500,3.29337548828125,-0.302282452583313,0.049190815538167953,-0.019236356019973755
1772025708579372500,3.30337255859375,-0.2982602119445801,0.036344222724437714,-0.022478369995951653
1772025708589370400,3.313370361328125,-0.31114912033081055,0.005019589327275753,-0.04290987551212311
1772025708599367700,3.32336767578125,-0.31420499086380005,-0.009031900204718113,-0.0560823529958725
1772025708609364500,3.333364501953125,-0.30034139752388,-0.011465763673186302,-0.04802842065691948
1772025708619362600,3.343362548828125,-0.2753552198410034,-0.023571651428937912,-0.02881002239882946
1772025708629359400,3.353359375,-0.24528944492340088,-0.04047872871160507,0.009241488762199879
1772025708639356700,3.363356689453125,-0.22165703773498535,-0.05381393805146217,0.06657544523477554
1772025708649354800,3.373354736328125,-0.20105642080307007,-0.04183610528707504,0.14205235242843628
1772025708659351600,3.3833515625,-0.18356895446777344,0.00037321029230952263,0.22955700755119324
1772025708669348600,3.3933486328125,-0.16876071691513062,0.04676654189825058,0.30856579542160034
1772025708679346700,3.4033466796875,-0.1755312830209732,0.07061401009559631,0.34956490993499756
1772025708689343700,3.41334375,-0.20853930711746216,0.06845152378082275,0.347517192363739
1772025708699340500,3.423340576171875,-0.24889351427555084,0.05518239736557007,0.3178924024105072
1772025708709338600,3.433338623046875,-0.2926141023635864,0.044756386429071426,0.27824005484580994
1772025708719335700,3.443335693359375,-0.3375120759010315,0.04427690431475639,0.2287975549697876
1772025708729332700,3.453332763671875,-0.3842843770980835,0.04165662080049515,0.18713372945785522
1772025708739330600,3.46333056640625,-0.4168728291988373,0.043711476027965546,0.16523157060146332
1772025708749327600,3.47332763671875,-0.4316174387931824,0.06213575601577759,0.1738029569387436
1772025708759325400,3.483325439453125,-0.4322856664657593,0.08749346435070038,0.2031984180212021
1772025708769322800,3.49332275390625,-0.41946840286254883,0.12240990251302719,0.25987446308135986
1772025708779319600,3.503319580078125,-0.3871374726295471,0.1827997863292694,0.3391083776950836
1772025708789317600,3.513317626953125,-0.3268621265888214,0.2628045976161957,0.4378487765789032
1772025708799314400,3.523314453125,-0.23425693809986115,0.34637510776519775,0.5466799736022949
1772025708809311700,3.533311767578125,-0.1314416080713272,0.41682398319244385,0.6360415816307068
1772025708819309800,3.543309814453125,-0.04086977615952492,0.45594826340675354,0.7020990252494812
1772025708829306600,3.553306640625,0.03305797651410103,0.45085179805755615,0.7168825268745422
1772025708839303400,3.563303466796875,0.09405689686536789,0.40390267968177795,0.683798611164093
1772025708849301500,3.573301513671875,0.13632605969905853,0.32684171199798584,0.6181038022041321
1772025708859298800,3.583298828125,0.1744466871023178,0.236509770154953,0.5316215753555298
1772025708869295600,3.593295654296875,0.19824257493019104,0.15230540931224823,0.43960505723953247
1772025708879293700,3.603293701171875,0.20241506397724152,0.066803477704525,0.34052011370658875
1772025708889290500,3.61329052734375,0.20227870345115662,-0.011134461499750614,0.2527604103088379
1772025708899287800,3.623287841796875,0.18629805743694305,-0.08649811893701553,0.17619295418262482
1772025708909285600,3.63328564453125,0.1602158546447754,-0.14783631265163422,0.10028274357318878
1772025708919282700,3.64328271484375,0.11254362761974335,-0.22260762751102448,0.019354650750756264
1772025708929279500,3.653279541015625,0.044539015740156174,-0.30688363313674927,-0.07133344560861588
1772025708939277600,3.663277587890625,-0.03642735630273819,-0.38835206627845764,-0.1648581326007843
1772025708949274600,3.673274658203125,-0.12125276029109955,-0.45350632071495056,-0.2654228210449219
1772025708959271700,3.683271728515625,-0.19531910121440887,-0.49357402324676514,-0.36201414465904236
1772025708969269500,3.69326953125,-0.25288280844688416,-0.4902530610561371,-0.4393203854560852
1772025708979266600,3.7032666015625,-0.30241450667381287,-0.4274529218673706,-0.48749595880508423
1772025708989264400,3.713264404296875,-0.3284205496311188,-0.31955549120903015,-0.4974268972873688
1772025708999261700,3.72326171875,-0.326416939496994,-0.19015580415725708,-0.48125797510147095
1772025709009258500,3.733258544921875,-0.2929231822490692,-0.05270766094326973,-0.4417566657066345
1772025709019256600,3.743256591796875,-0.2218031883239746,0.08603062480688095,-0.3883207142353058
1772025709029253400,3.75325341796875,-0.12151067703962326,0.1935746669769287,-0.34276947379112244
1772025709039250700,3.763250732421875,-0.012712154537439346,0.25942566990852356,-0.3049670159816742
1772025709049248800,3.773248779296875,0.07029511034488678,0.2830662727355957,-0.2773289978504181
1772025709059245600,3.78324560546875,0.12694469094276428,0.2748558223247528,-0.26948660612106323
1772025709069242600,3.79324267578125,0.171592578291893,0.2555446922779083,-0.2650087773799896
1772025709079240400,3.803240478515625,0.20639938116073608,0.24152913689613342,-0.25104838609695435
1772025709089237800,3.81323779296875,0.2325337827205658,0.2451592981815338,-0.23556824028491974
1772025709099234600,3.823234619140625,0.2324022501707077,0.24606432020664215,-0.2222396731376648
1772025709109232600,3.833232666015625,0.2080380618572235,0.22300933301448822,-0.21923509240150452
1772025709119229400,3.8432294921875,0.1634121686220169,0.17960889637470245,-0.22983044385910034
1772025709129226800,3.853226806640625,0.10227611660957336,0.10538046807050705,-0.24984249472618103
1772025709139224600,3.863224609375,0.023377809673547745,-0.0045049781911075115,-0.27570828795433044
1772025709149221600,3.8732216796875,-0.053957726806402206,-0.13624756038188934,-0.28848135471343994
1772025709159218400,3.883218505859375,-0.13121263682842255,-0.25150802731513977,-0.28150832653045654
1772025709169216500,3.893216552734375,-0.19759725034236908,-0.33868712186813354,-0.25366657972335815
1772025709179213600,3.903213623046875,-0.24821943044662476,-0.4070345163345337,-0.22017522156238556
1772025709189211600,3.913211669921875,-0.29419517517089844,-0.43505311012268066,-0.1796879768371582
1772025709199208400,3.92320849609375,-0.3256177604198456,-0.4357588589191437,-0.14988869428634644
1772025709209205500,3.93320556640625,-0.3438689410686493,-0.42530304193496704,-0.1265103965997696
1772025709219203600,3.94320361328125,-0.3373018801212311,-0.39880359172821045,-0.10121461004018784
1772025709229200600,3.95320068359375,-0.3039950430393219,-0.3471071124076843,-0.0745592936873436
1772025709239197400,3.963197509765625,-0.2572968900203705,-0.2859348952770233,-0.04414289444684982
1772025709249195500,3.973195556640625,-0.19569264352321625,-0.19905300438404083,-0.025870148092508316
1772025709259192800,3.98319287109375,-0.1274106651544571,-0.10975530743598938,-0.009456615895032883
1772025709269189600,3.993189697265625,-0.055892813950777054,-0.0350768119096756,0.0010426300577819347
1772025709279187700,4.003187744140625,-0.0011680045863613486,0.007667417638003826,-0.0036939489655196667
1772025709289184500,4.0131845703125,0.04105694591999054,0.027775883674621582,-0.010850661434233189
1772025709299181800,4.023181884765625,0.07490731030702591,0.03919349983334541,-0.007621176075190306
1772025709309179600,4.0331796875,0.10993693768978119,0.029382947832345963,0.01653502695262432
1772025709319176700,4.0431767578125,0.13080231845378876,0.0014657125575467944,0.04788917675614357
1772025709329173500,4.053173583984375,0.14279986917972565,-0.03511972725391388,0.08332386612892151
1772025709339171600,4.063171630859375,0.14102131128311157,-0.07642333954572678,0.12355376780033112
1772025709349168600,4.073168701171875,0.14182984828948975,-0.1132468730211258,0.1644657850265503
1772025709359165700,4.083165771484375,0.14676782488822937,-0.14367999136447906,0.20603907108306885
1772025709369163500,4.09316357421875,0.1602010726928711,-0.1650766283273697,0.24460430443286896
1772025709379160600,4.10316064453125,0.1896795928478241,-0.14851245284080505,0.281939834356308
1772025709389157600,4.11315771484375,0.23573976755142212,-0.13508398830890656,0.31557050347328186
1772025709399155700,4.12315576171875,0.2712549865245819,-0.16817300021648407,0.31531986594200134
1772025709409152500,4.133152587890625,0.2658762037754059,-0.23486360907554626,0.2780294716358185
1772025709419149600,4.143149658203125,0.24038729071617126,-0.28930410742759705,0.22124344110488892
1772025709429147000,4.15314697265625,0.21926069259643555,-0.3054029047489166,0.17674921452999115
1772025709439144200,4.163144287109375,0.2072429358959198,-0.30428871512413025,0.1386626809835434
1772025709449142300,4.173142333984375,0.18682581186294556,-0.30850130319595337,0.09171754121780396
1772025709459139000,4.18313916015625,0.15900473296642303,-0.3134421408176422,0.03609255701303482
1772025709469136000,4.193135986328125,0.1506834179162979,-0.29791778326034546,-0.0046671247109770775
1772025709479134200,4.20313427734375,0.1613742560148239,-0.27505040168762207,-0.030850986018776894
1772025709489131300,4.21313134765625,0.17900437116622925,-0.28034770488739014,-0.05363379418849945
1772025709499128000,4.223128173828125,0.19283756613731384,-0.3083111047744751,-0.07548925280570984
1772025709509126100,4.233126220703125,0.20150615274906158,-0.34160539507865906,-0.09142693877220154
1772025709519123200,4.243123291015625,0.21122416853904724,-0.36312204599380493,-0.08784052729606628
1772025709529120300,4.253120361328125,0.22001872956752777,-0.35920003056526184,-0.06880798190832138
1772025709539118000,4.2631181640625,0.20871441066265106,-0.33898115158081055,-0.052919428795576096
1772025709549115100,4.273115234375,0.18100927770137787,-0.32737377285957336,-0.04391714558005333
1772025709559112200,4.2831123046875,0.13499285280704498,-0.3398185074329376,-0.04439043253660202
1772025709569110300,4.2931103515625,0.0773005336523056,-0.3450617492198944,-0.051097337156534195
1772025709579107000,4.303107177734375,0.018315579742193222,-0.3570098578929901,-0.06357989460229874
1772025709589104000,4.313104248046875,-0.04102417826652527,-0.37064576148986816,-0.07600513845682144
1772025709599102000,4.32310205078125,-0.10076269507408142,-0.36425575613975525,-0.0793478786945343
1772025709609099300,4.333099365234375,-0.15716151893138885,-0.32080307602882385,-0.07477763295173645
1772025709619096000,4.343095947265625,-0.19754250347614288,-0.2319955825805664,-0.04560708999633789
1772025709629094100,4.35309423828125,-0.21854233741760254,-0.09186084568500519,0.00099849421530962
1772025709639091000,4.363091064453125,-0.21415384113788605,0.07924306392669678,0.05484621226787567
1772025709649089000,4.373089111328125,-0.19678843021392822,0.23866602778434753,0.09674465656280518
1772025709659086000,4.383086181640625,-0.1834080070257187,0.3134470582008362,0.10814385116100311
1772025709669083100,4.393083251953125,-0.19386811554431915,0.3010769486427307,0.08912967890501022
1772025709679081200,4.403081298828125,-0.21667370200157166,0.23597241938114166,0.05709005147218704
1772025709689078000,4.413078125,-0.2598035931587219,0.18426714837551117,0.01971418410539627
1772025709699075000,4.423074951171875,-0.3044310510158539,0.14850948750972748,-0.017336735501885414
1772025709709073200,4.4330732421875,-0.34203463792800903,0.12654773890972137,-0.04902409017086029
1772025709719070200,4.4430703125,-0.37664344906806946,0.09600172936916351,-0.09362367540597916
1772025709729067000,4.45306689453125,-0.41111886501312256,0.0721062496304512,-0.14926323294639587
1772025709739065000,4.463065185546875,-0.4324115812778473,0.045424800366163254,-0.21520724892616272
1772025709749062100,4.473062255859375,-0.4476968050003052,0.03025250881910324,-0.29214197397232056
1772025709759059200,4.48305908203125,-0.4458911716938019,0.023623252287507057,-0.3584420084953308
1772025709769057000,4.49305712890625,-0.4140799939632416,0.02900869771838188,-0.4223538935184479
1772025709779054000,4.50305419921875,-0.3635890781879425,0.05245322734117508,-0.46720805764198303
1772025709789051100,4.513051025390625,-0.2903715968132019,0.0994364470243454,-0.4838736057281494
1772025709799049200,4.52304931640625,-0.2048318088054657,0.13924914598464966,-0.47298771142959595
1772025709809046000,4.5330458984375,-0.11772487312555313,0.1715056151151657,-0.43937382102012634
1772025709819043000,4.54304296875,-0.04231294244527817,0.19058556854724884,-0.3863377869129181
1772025709829041000,4.553041015625,0.014048068784177303,0.18882521986961365,-0.3186604678630829
1772025709839038200,4.5630380859375,0.05226815864443779,0.17437995970249176,-0.2497250884771347
1772025709849036300,4.573036376953125,0.07377894222736359,0.15776877105236053,-0.1825164258480072
1772025709859033000,4.583033203125,0.08092314004898071,0.14575178921222687,-0.11585617065429688
1772025709869030000,4.59302978515625,0.07359305769205093,0.1302148997783661,-0.06382785737514496
1772025709879028000,4.603028076171875,0.05187110975384712,0.10390892624855042,-0.026894275099039078
1772025709889025300,4.613025390625,0.014981267042458057,0.06434926390647888,0.004637286067008972
1772025709899022000,4.62302197265625,-0.0365130715072155,0.026836393401026726,0.027793068438768387
1772025709909020200,4.633020263671875,-0.09529490023851395,0.00676734559237957,0.045835986733436584
1772025709919017000,4.643016845703125,-0.14637482166290283,-0.0022810124792158604,0.051850561052560806
1772025709929014300,4.65301416015625,-0.1891699582338333,-0.006949000991880894,0.04646378755569458
1772025709939012000,4.66301220703125,-0.2149353176355362,-0.020832818001508713,0.025662686675786972
1772025709949009200,4.673009033203125,-0.2234867364168167,-0.0357087068259716,0.00030619814060628414
1772025709959006000,4.683005859375,-0.21917946636676788,-0.05015441030263901,-0.030747391283512115
1772025709969004000,4.693004150390625,-0.2101481556892395,-0.059173207730054855,-0.05961046367883682
1772025709979001000,4.7030009765625,-0.19775496423244476,-0.06505932658910751,-0.08948654681444168
1772025709988998100,4.712998046875,-0.17504087090492249,-0.06543722748756409,-0.11435115337371826
1772025709998996000,4.722995849609375,-0.14594340324401855,-0.060600586235523224,-0.1293218582868576
1772025710008993000,4.732992919921875,-0.11467043310403824,-0.05811798945069313,-0.13823440670967102
1772025710018991000,4.7429912109375,-0.08888452500104904,-0.06356064975261688,-0.1389005184173584
1772025710028988200,4.75298828125,-0.06422258913516998,-0.05700927600264549,-0.11962269246578217
1772025710038985000,4.76298486328125,-0.03991223871707916,-0.051889460533857346,-0.08413152396678925
1772025710048983000,4.772983154296875,-0.03534118831157684,-0.05343436077237129,-0.04375879839062691
1772025710058980000,4.78297998046875,-0.04268369823694229,-0.057991448789834976,0.00020314333960413933
1772025710068977200,4.79297705078125,-0.05411158874630928,-0.05958908051252365,0.049217820167541504
1772025710078975200,4.802975341796875,-0.06796818971633911,-0.057871147990226746,0.10053424537181854
1772025710088972000,4.812971923828125,-0.08449283987283707,-0.03940851613879204,0.15169250965118408
1772025710098969000,4.822968994140625,-0.10200059413909912,-0.008034009486436844,0.2060539424419403
1772025710108967200,4.83296728515625,-0.11056052893400192,0.05613166093826294,0.2613891065120697
1772025710118964200,4.842964111328125,-0.10127708315849304,0.16098202764987946,0.3110805153846741
1772025710128961000,4.8529609375,-0.08256544172763824,0.23566478490829468,0.3433052897453308
1772025710138959000,4.862958984375,-0.07727070152759552,0.23031970858573914,0.33293235301971436
1772025710148956200,4.8729560546875,-0.10652978718280792,0.17880430817604065,0.29218626022338867
1772025710158953200,4.882953125,-0.16089670360088348,0.12801973521709442,0.23575925827026367
1772025710168951000,4.892950927734375,-0.22868508100509644,0.089141845703125,0.18168404698371887
1772025710178948000,4.902947998046875,-0.3030972480773926,0.06977735459804535,0.13482852280139923
1772025710188946000,4.91294580078125,-0.3785073161125183,0.05704931169748306,0.0969218760728836
1772025710198943200,4.922943115234375,-0.4505327343940735,0.045138854533433914,0.06852681189775467
1772025710208940000,4.93293994140625,-0.5134522914886475,0.040977396070957184,0.047518737614154816
1772025710218938000,4.942938232421875,-0.5614303350448608,0.05751870572566986,0.04779284447431564
1772025710228935000,4.952934814453125,-0.5934628844261169,0.11773411184549332,0.06988589465618134
1772025710238932200,4.96293212890625,-0.5984375476837158,0.19564147293567657,0.11490008980035782
1772025710248930300,4.972930419921875,-0.5695401430130005,0.27762848138809204,0.16109341382980347
1772025710258927000,4.982927001953125,-0.5193895101547241,0.3378864824771881,0.20184144377708435
1772025710268924000,4.992923828125,-0.4558081030845642,0.37829434871673584,0.23225073516368866
1772025710278922000,5.002921875,-0.39348405599594116,0.385256826877594,0.24946436285972595
1772025710288919300,5.012919189453125,-0.3377843201160431,0.38116833567619324,0.26558607816696167
1772025710298916000,5.022916015625,-0.28509521484375,0.38755032420158386,0.291080117225647
1772025710308914200,5.0329140625,-0.21916547417640686,0.42369499802589417,0.3365328311920166
1772025710318911000,5.042910888671875,-0.14094918966293335,0.46710440516471863,0.39688587188720703
1772025710328908300,5.052908203125,-0.05532829090952873,0.5116295218467712,0.47060269117355347
1772025710338906000,5.062906005859375,0.02896137535572052,0.5245047807693481,0.5408368706703186
1772025710348903200,5.072903076171875,0.09226870536804199,0.49297213554382324,0.5930175185203552
1772025710358901000,5.08290087890625,0.14332503080368042,0.4144129157066345,0.6335970163345337
1772025710368898000,5.09289794921875,0.18649300932884216,0.3277547359466553,0.6613117456436157
1772025710378895000,5.10289501953125,0.21877722442150116,0.2506144940853119,0.677221417427063
1772025710388893200,5.11289306640625,0.24219146370887756,0.17388539016246796,0.6804595589637756
1772025710398890000,5.122889892578125,0.25494495034217834,0.09664644300937653,0.6681462526321411
1772025710408887000,5.132886962890625,0.2488260716199875,0.012332628481090069,0.6401830315589905
1772025710418885000,5.142885009765625,0.22148653864860535,-0.06272602081298828,0.5892887115478516
1772025710428882200,5.152882080078125,0.16622382402420044,-0.12582004070281982,0.5261790156364441
1772025710438879200,5.162879150390625,0.09419429302215576,-0.170341357588768,0.44598379731178284
1772025710448877300,5.172877197265625,0.0023232270032167435,-0.20966185629367828,0.3374791741371155
1772025710458874000,5.1828740234375,-0.09669099748134613,-0.24288631975650787,0.2002815157175064
1772025710468871200,5.19287109375,-0.20310078561306,-0.2725893557071686,0.03225468471646309
1772025710478869200,5.202869140625,-0.2926134765148163,-0.2912614643573761,-0.14629435539245605
1772025710488866300,5.2128662109375,-0.36203649640083313,-0.2994946241378784,-0.32629314064979553
1772025710498863000,5.222863037109375,-0.4172484576702118,-0.296035498380661,-0.47880107164382935
1772025710508861200,5.232861083984375,-0.45619210600852966,-0.2460716962814331,-0.5834581851959229
1772025710518858200,5.242858154296875,-0.4490751624107361,-0.15995803475379944,-0.6394596099853516
1772025710528856300,5.252856201171875,-0.3930659592151642,-0.05588994920253754,-0.6385568380355835
1772025710538853000,5.26285302734375,-0.2810452878475189,0.06560973078012466,-0.5927919745445251
1772025710548850200,5.27285009765625,-0.13181425631046295,0.16853319108486176,-0.5146580338478088
1772025710558848300,5.28284814453125,0.03094026818871498,0.24069705605506897,-0.4287489354610443
1772025710568845300,5.29284521484375,0.19692577421665192,0.2669379711151123,-0.34094956517219543
1772025710578842000,5.302842041015625,0.33767715096473694,0.2405940145254135,-0.26842349767684937
1772025710588840200,5.312840087890625,0.4435415267944336,0.16116417944431305,-0.21719388663768768
1772025710598835200,5.322835205078125,0.5281062126159668,0.05635707452893257,-0.17988911271095276
1772025710608832000,5.33283203125,0.5895119905471802,-0.04167022928595543,-0.1587335765361786
1772025710618830000,5.342830078125,0.6253029704093933,-0.12143068760633469,-0.14055483043193817
1772025710628827400,5.352827392578125,0.633033812046051,-0.18750585615634918,-0.13036157190799713
1772025710638824200,5.36282421875,0.6153941750526428,-0.23891572654247284,-0.12640267610549927
1772025710648822300,5.372822265625,0.5765445232391357,-0.28013721108436584,-0.12709775567054749
1772025710658819000,5.382819091796875,0.5365181565284729,-0.32067492604255676,-0.11923389881849289
1772025710668817400,5.3928173828125,0.4883711040019989,-0.35158011317253113,-0.10497826337814331
1772025710678814200,5.402814208984375,0.43992823362350464,-0.3808665871620178,-0.09375490993261337
1772025710688811300,5.412811279296875,0.3984889090061188,-0.3917197585105896,-0.07254762202501297
1772025710698809000,5.42280908203125,0.36290764808654785,-0.38784152269363403,-0.052864279597997665
1772025710708806400,5.432806396484375,0.3340906500816345,-0.36866995692253113,-0.030634872615337372
1772025710718803200,5.44280322265625,0.3089684247970581,-0.3490923345088959,-0.018068326637148857
1772025710728801300,5.45280126953125,0.281711220741272,-0.3207152783870697,-0.012419228442013264
1772025710738798000,5.462798095703125,0.25309112668037415,-0.28967756032943726,-0.010246641002595425
1772025710748795400,5.47279541015625,0.22740386426448822,-0.23648704588413239,-0.003474221797659993
1772025710758793200,5.482793212890625,0.207903653383255,-0.17680707573890686,0.0027305465191602707
1772025710768790300,5.492790283203125,0.19089777767658234,-0.12335903942584991,0.0057106236927211285
1772025710778787000,5.502787109375,0.18488569557666779,-0.07726052403450012,0.007462717592716217
1772025710788785200,5.51278515625,0.1869121491909027,-0.034001052379608154,0.008039774373173714
1772025710798782200,5.5227822265625,0.19627824425697327,0.003095607738941908,0.0005820164224132895
1772025710808780300,5.5327802734375,0.21146997809410095,0.016280651092529297,-0.007021841127425432
1772025710818777300,5.54277734375,0.2317451387643814,0.0024810978211462498,-0.017821652814745903
1772025710828774100,5.552774169921875,0.2552051842212677,-0.00564207648858428,-0.018259208649396896
1772025710838772200,5.562772216796875,0.28485292196273804,0.026201419532299042,-0.005729991942644119
1772025710848769300,5.572769287109375,0.32490208745002747,0.06440260261297226,0.012970991432666779
1772025710858766300,5.582766357421875,0.358403742313385,0.03807131573557854,0.02071988210082054
1772025710868764200,5.59276416015625,0.341366708278656,-0.04029965400695801,-0.007059019524604082
1772025710878761200,5.60276123046875,0.2920737564563751,-0.12297448515892029,-0.04465700313448906
1772025710888758300,5.61275830078125,0.2436915934085846,-0.18655158579349518,-0.059916649013757706
1772025710898756400,5.62275634765625,0.2143438309431076,-0.22479374706745148,-0.06056512892246246
1772025710908753200,5.632753173828125,0.19383083283901215,-0.26445168256759644,-0.06725791841745377
1772025710918750200,5.642750244140625,0.17393767833709717,-0.2985744774341583,-0.07746375352144241
1772025710928748000,5.652748046875,0.16187435388565063,-0.3130333125591278,-0.08174344897270203
1772025710938745300,5.662745361328125,0.16358771920204163,-0.29343634843826294,-0.07247065752744675
1772025710948743200,5.6727431640625,0.17035827040672302,-0.2729094922542572,-0.06825806945562363
1772025710958740200,5.682740234375,0.17821729183197021,-0.25705718994140625,-0.06816650182008743
1772025710968737000,5.692737060546875,0.18427971005439758,-0.24291980266571045,-0.07605744898319244
1772025710978735000,5.702735107421875,0.1856101006269455,-0.24573197960853577,-0.09085910022258759
1772025710988732400,5.712732421875,0.1894298791885376,-0.25828903913497925,-0.10358501970767975
1772025710998729200,5.722729248046875,0.1983157992362976,-0.2509462535381317,-0.1092105582356453
1772025711008727300,5.732727294921875,0.1970590502023697,-0.2150343358516693,-0.09569688141345978
1772025711018724000,5.74272412109375,0.19194810092449188,-0.16209106147289276,-0.07348911464214325
1772025711028721400,5.752721435546875,0.18109625577926636,-0.08462344110012054,-0.03854072093963623
1772025711038719200,5.76271923828125,0.17651180922985077,0.007629099301993847,0.027239104732871056
1772025711048716300,5.77271630859375,0.17301136255264282,0.12561540305614471,0.10707295686006546
1772025711058714000,5.782714111328125,0.17292410135269165,0.2472991943359375,0.2059486359357834
1772025711068711200,5.792711181640625,0.16627924144268036,0.3526354730129242,0.29763278365135193
1772025711078708200,5.802708251953125,0.15437069535255432,0.4319745898246765,0.37104836106300354
1772025711088706300,5.812706298828125,0.1324739158153534,0.4811418950557709,0.4166206419467926
1772025711098703000,5.822703125,0.11243487149477005,0.5025184154510498,0.443891316652298
1772025711108700200,5.8327001953125,0.07674771547317505,0.4922759234905243,0.446584552526474
1772025711118698200,5.8426982421875,0.02710890769958496,0.4616740942001343,0.4323003590106964
1772025711128695300,5.8526953125,-0.05544828623533249,0.4188762903213501,0.3897220194339752
1772025711138692000,5.862692138671875,-0.15915276110172272,0.3757120966911316,0.3503752648830414
1772025711148690200,5.872690185546875,-0.26333189010620117,0.3538017272949219,0.2959495484828949
1772025711158687200,5.882687255859375,-0.35271957516670227,0.35226917266845703,0.24282896518707275
1772025711168684300,5.892684326171875,-0.43229565024375916,0.3296874165534973,0.1835794895887375
1772025711178682400,5.902682373046875,-0.48975443840026855,0.2732970714569092,0.11363983154296875
1772025711188679200,5.91267919921875,-0.5277555584907532,0.19522437453269958,0.02324735000729561
1772025711198677200,5.92267724609375,-0.5523505806922913,0.10987554490566254,-0.0866500586271286
1772025711208675000,5.932675048828125,-0.567829966545105,0.014553549699485302,-0.2159007042646408
1772025711218673200,5.942673095703125,-0.5736169815063477,-0.10294599086046219,-0.35634157061576843
1772025711228670200,5.952670166015625,-0.5671876072883606,-0.20107121765613556,-0.4728756546974182
1772025711238667300,5.962667236328125,-0.5528823137283325,-0.24503977596759796,-0.5576071739196777
1772025711248665300,5.972665283203125,-0.5328282117843628,-0.2300027757883072,-0.6060306429862976
1772025711258662100,5.982662109375,-0.4953957498073578,-0.1670876294374466,-0.622633159160614
1772025711268659200,5.9926591796875,-0.4396938681602478,-0.06762361526489258,-0.6120012998580933
1772025711278657300,6.0026572265625,-0.34486883878707886,0.0478036105632782,-0.5830833315849304
1772025711288654300,6.012654296875,-0.23559613525867462,0.145098477602005,-0.5438509583473206
1772025711298652200,6.022652099609375,-0.12526191771030426,0.19477669894695282,-0.5120961666107178
1772025711308649200,6.032649169921875,-0.05628843605518341,0.2027864158153534,-0.4889780580997467
1772025711318646300,6.042646240234375,-0.017131179571151733,0.1904541254043579,-0.4714885354042053
1772025711328644400,6.052644287109375,-0.000515451654791832,0.164860337972641,-0.45241019129753113
1772025711338641200,6.06264111328125,-0.012785391882061958,0.13277214765548706,-0.43602922558784485
1772025711348638200,6.07263818359375,-0.039246562868356705,0.08908192068338394,-0.42160898447036743
1772025711358636000,6.082635986328125,-0.09142057597637177,0.04223855584859848,-0.4131391644477844
1772025711368633300,6.09263330078125,-0.1593484878540039,0.00044876732863485813,-0.408979594707489
1772025711378630100,6.102630126953125,-0.2337169200181961,-0.007654891349375248,-0.3938223719596863
1772025711388628200,6.112628173828125,-0.3072736859321594,0.02575419656932354,-0.366387277841568
1772025711398625000,6.122625,-0.3720763921737671,0.06947237998247147,-0.33555054664611816
1772025711408622300,6.132622314453125,-0.4233419597148895,0.10208412259817123,-0.3114606738090515
1772025711418620200,6.1426201171875,-0.44768044352531433,0.1250613033771515,-0.30199146270751953
1772025711428617000,6.152616943359375,-0.443516343832016,0.11255563795566559,-0.30054643750190735
1772025711438615000,6.162614990234375,-0.41804125905036926,0.08843796700239182,-0.3007078766822815
1772025711448612000,6.172612060546875,-0.3756674528121948,0.08230603486299515,-0.27979913353919983
1772025711458609200,6.182609130859375,-0.32522037625312805,0.1012449562549591,-0.24452483654022217
1772025711468607000,6.19260693359375,-0.26333144307136536,0.14108878374099731,-0.1879265457391739
1772025711478604000,6.20260400390625,-0.19824081659317017,0.16054537892341614,-0.12727731466293335
1772025711488601000,6.21260107421875,-0.14980536699295044,0.1570712924003601,-0.07079380005598068
1772025711498599200,6.22259912109375,-0.11335163563489914,0.13177475333213806,-0.014673599973320961
1772025711508596000,6.232595947265625,-0.08966334909200668,0.0943906307220459,0.04557695612311363
1772025711518594000,6.242593994140625,-0.09281390905380249,0.05898675322532654,0.11028005927801132
1772025711528590800,6.2525908203125,-0.11684121191501617,0.03298711031675339,0.16892287135124207
1772025711538588200,6.262588134765625,-0.14500778913497925,0.02321906015276909,0.22340978682041168
1772025711548586200,6.272586181640625,-0.17827360332012177,0.030423708260059357,0.276376336812973
1772025711558583000,6.2825830078125,-0.2052454948425293,0.0550745353102684,0.3073500692844391
1772025711568579800,6.292579833984375,-0.22307802736759186,0.10381437093019485,0.3313392698764801
1772025711578578000,6.302577880859375,-0.208136647939682,0.16821101307868958,0.34839215874671936
1772025711588575200,6.3125751953125,-0.1881842464208603,0.19603972136974335,0.3466360569000244
1772025711598572000,6.322572021484375,-0.18771517276763916,0.17442747950553894,0.30269476771354675
1772025711608570000,6.332570068359375,-0.20150794088840485,0.14766085147857666,0.2521498501300812
1772025711618567000,6.34256689453125,-0.21317876875400543,0.12020069360733032,0.18396645784378052
1772025711628564200,6.352564208984375,-0.23102940618991852,0.06981661915779114,0.1094280406832695
1772025711638562000,6.36256201171875,-0.26224425435066223,-0.011284710839390755,0.012152032926678658
1772025711648559000,6.37255908203125,-0.3164196312427521,-0.10535501688718796,-0.09787113964557648
1772025711658557000,6.382556884765625,-0.37727946043014526,-0.18642407655715942,-0.20054306089878082
1772025711668554000,6.392553955078125,-0.4333336651325226,-0.21088680624961853,-0.26769575476646423
1772025711678551000,6.402551025390625,-0.46788814663887024,-0.18795008957386017,-0.3018146753311157
1772025711688549000,6.412549072265625,-0.4840386211872101,-0.14558932185173035,-0.3027806282043457
1772025711698546000,6.4225458984375,-0.4588868319988251,-0.09965497255325317,-0.2747414708137512
1772025711708543000,6.43254296875,-0.38538676500320435,-0.049056243151426315,-0.22645303606987
1772025711718540800,6.442540771484375,-0.2732883095741272,-0.0024039759300649166,-0.16616444289684296
1772025711728538000,6.4525380859375,-0.14438652992248535,0.04709886014461517,-0.09653238207101822
1772025711738535000,6.462534912109375,-0.00601076427847147,0.09398940205574036,-0.026994502171874046
1772025711748533000,6.472532958984375,0.12387986481189728,0.14711253345012665,0.040212232619524
1772025711758529800,6.48252978515625,0.25392526388168335,0.20520058274269104,0.12285744398832321
1772025711768528000,6.49252783203125,0.378690630197525,0.2898571491241455,0.217106431722641
1772025711778525200,6.502525146484375,0.49505719542503357,0.40644708275794983,0.3317934572696686
1772025711788522000,6.51252197265625,0.610569179058075,0.5407841205596924,0.44998374581336975
1772025711798520000,6.52252001953125,0.7177024483680725,0.648351788520813,0.5597466230392456
1772025711808516900,6.532516845703125,0.8185105919837952,0.6953621506690979,0.6404678821563721
1772025711818514200,6.54251416015625,0.8951688408851624,0.692690372467041,0.689390242099762
1772025711828512000,6.552511962890625,0.9532251954078674,0.648239254951477,0.7069482207298279
1772025711838509000,6.562509033203125,0.9837039113044739,0.5426760911941528,0.6981328725814819
1772025711848507000,6.5725068359375,0.9919714331626892,0.41500574350357056,0.6761836409568787
1772025711858504000,6.58250390625,0.9830356240272522,0.29621267318725586,0.6473841667175293
1772025711868501000,6.5925009765625,0.9445673227310181,0.19952793419361115,0.6109907627105713
1772025711878499000,6.6024990234375,0.8722522258758545,0.11755932867527008,0.5586962699890137
1772025711888495900,6.612495849609375,0.7677343487739563,0.042138081043958664,0.4721805155277252
1772025711898493000,6.622492919921875,0.6342219710350037,-0.04154449328780174,0.3534829318523407
1772025711908491000,6.632490966796875,0.48817530274391174,-0.1657966673374176,0.21101392805576324
1772025711918488000,6.642488037109375,0.32073870301246643,-0.32566413283348083,0.0467386394739151
1772025711928484900,6.65248486328125,0.13436059653759003,-0.47878018021583557,-0.12138432264328003
1772025711938483000,6.66248291015625,-0.04481760784983635,-0.5793613195419312,-0.28089821338653564
1772025711948480300,6.672480224609375,-0.2078363597393036,-0.6136146783828735,-0.42286041378974915
1772025711958478000,6.68247802734375,-0.3456670045852661,-0.5997931957244873,-0.5257323384284973
1772025711968475100,6.69247509765625,-0.4311997592449188,-0.5262513160705566,-0.570509672164917
1772025711978472000,6.702471923828125,-0.446894109249115,-0.38064607977867126,-0.5440826416015625
1772025711988470000,6.712469970703125,-0.39989012479782104,-0.17295144498348236,-0.46962225437164307
1772025711998467000,6.722467041015625,-0.2928909659385681,0.0765644982457161,-0.3809233605861664
1772025712008464100,6.732464111328125,-0.14286072552204132,0.3116265535354614,-0.2918166518211365
1772025712018462000,6.7424619140625,0.05224369093775749,0.4946640729904175,-0.22681421041488647
1772025712028459000,6.752458984375,0.24414069950580597,0.6060497164726257,-0.20045876502990723
1772025712038456000,6.7624560546875,0.3979004919528961,0.666472852230072,-0.21446315944194794
1772025712048454100,6.7724541015625,0.5263385772705078,0.6876974701881409,-0.25143182277679443
1772025712058451000,6.782450927734375,0.6413744688034058,0.6777417659759521,-0.2983187437057495
1772025712068449000,6.792448974609375,0.7326764464378357,0.6435355544090271,-0.3456614911556244
1772025712078445800,6.80244580078125,0.7977485060691833,0.5774624347686768,-0.39259108901023865
1772025712088443100,6.812443115234375,0.8265013098716736,0.47959738969802856,-0.42933177947998047
1772025712098441200,6.822441162109375,0.8210610747337341,0.36713477969169617,-0.4489095211029053
1772025712108438000,6.83243798828125,0.7907862663269043,0.2400340735912323,-0.4532363712787628
1772025712118434800,6.842434814453125,0.743020236492157,0.10713507235050201,-0.4336916506290436
1772025712128433000,6.852432861328125,0.6874411702156067,-0.011338845826685429,-0.39258602261543274
1772025712138430200,6.86243017578125,0.6305519342422485,-0.11913732439279556,-0.33672627806663513
1772025712148427000,6.872427001953125,0.5715341567993164,-0.21704338490962982,-0.280171662569046
1772025712158425000,6.882425048828125,0.5144098401069641,-0.30679851770401,-0.21503432095050812
1772025712168422000,6.892421875,0.4659315347671509,-0.36699795722961426,-0.14165464043617249
1772025712178420000,6.902419921875,0.4116835296154022,-0.3972487449645996,-0.07111462950706482
1772025712188417000,6.9124169921875,0.35590922832489014,-0.41913914680480957,-0.0059545305557549
1772025712198414000,6.9224140625,0.30603325366973877,-0.44004568457603455,0.04469125717878342
1772025712208412000,6.932411865234375,0.2590484321117401,-0.4647608697414398,0.08683870732784271
1772025712218409000,6.942408935546875,0.22463911771774292,-0.4891088008880615,0.11938794702291489
1772025712228406000,6.952406005859375,0.1943054497241974,-0.5195545554161072,0.14609599113464355
1772025712238404000,6.962404052734375,0.16774463653564453,-0.5574709177017212,0.1598120778799057
1772025712248401000,6.97240087890625,0.13790471851825714,-0.5960241556167603,0.16415807604789734
1772025712258399000,6.98239892578125,0.10905136913061142,-0.6257529258728027,0.16317583620548248
1772025712268395800,6.992395751953125,0.08219818025827408,-0.6329410672187805,0.17075785994529724
1772025712278393000,7.00239306640625,0.06754030287265778,-0.6015867590904236,0.1910737156867981
1772025712288391200,7.01239111328125,0.09711284190416336,-0.4947335422039032,0.2404303401708603
1772025712298388000,7.022387939453125,0.14325113594532013,-0.41677844524383545,0.289384126663208
1772025712308385000,7.032385009765625,0.13634023070335388,-0.421445369720459,0.28332623839378357
1772025712318383000,7.042383056640625,0.09272007644176483,-0.4549717307090759,0.2391679435968399
1772025712328380200,7.052380126953125,0.07085046172142029,-0.454673707485199,0.20320966839790344
1772025712338377000,7.062376953125,0.07753082364797592,-0.4125218093395233,0.17797140777111053
1772025712348375000,7.072375,0.09094196557998657,-0.3720015585422516,0.15660007297992706
1772025712358372000,7.0823720703125,0.08353851735591888,-0.35210418701171875,0.11759530752897263
1772025712368370200,7.0923701171875,0.07351837307214737,-0.34072208404541016,0.0774763822555542
1772025712378367000,7.102366943359375,0.07883355766534805,-0.3109349310398102,0.05510915443301201
1772025712388364000,7.112364013671875,0.09464047849178314,-0.280501127243042,0.04904700070619583
1772025712398361900,7.12236181640625,0.10819197446107864,-0.2688545882701874,0.04785230755805969
1772025712408359200,7.132359130859375,0.1097964495420456,-0.27438417077064514,0.0406731516122818
1772025712418356000,7.14235595703125,0.11270242929458618,-0.2828844487667084,0.04163336008787155
1772025712428353800,7.152353759765625,0.12534312903881073,-0.2683403789997101,0.06033594161272049
1772025712438350800,7.162350830078125,0.1473022699356079,-0.23922458291053772,0.10236021876335144
1772025712448348000,7.172347900390625,0.17290431261062622,-0.21164275705814362,0.15052056312561035
1772025712458346000,7.182345947265625,0.19167402386665344,-0.1822921335697174,0.208115816116333
1772025712468342800,7.1923427734375,0.20570355653762817,-0.14283128082752228,0.2733062505722046
1772025712478340900,7.2023408203125,0.21303938329219818,-0.08701587468385696,0.3324350118637085
1772025712488337700,7.212337646484375,0.2236161231994629,-0.03843981772661209,0.38295838236808777
1772025712498335000,7.2223349609375,0.2270403653383255,-0.012846804223954678,0.4243813455104828
1772025712508333000,7.2323330078125,0.2155432403087616,-0.024253657087683678,0.44212278723716736
1772025712518329900,7.242329833984375,0.19186654686927795,-0.07903464883565903,0.4463641941547394
1772025712528326700,7.25232666015625,0.15054094791412354,-0.14410126209259033,0.44639989733695984
1772025712538324700,7.26232470703125,0.09706942737102509,-0.19448237121105194,0.45161792635917664
1772025712548322000,7.272322021484375,0.027571575716137886,-0.227837935090065,0.4593096673488617
1772025712558319900,7.28231982421875,-0.04687491059303284,-0.24804961681365967,0.4624199867248535
1772025712568317000,7.29231689453125,-0.12443095445632935,-0.2596202492713928,0.45778796076774597
1772025712578313700,7.302313720703125,-0.19240719079971313,-0.2611398994922638,0.43950650095939636
1772025712588311800,7.312311767578125,-0.2504049837589264,-0.2611801028251648,0.39341142773628235
1772025712598308900,7.322308837890625,-0.2898479700088501,-0.26119348406791687,0.31450155377388
1772025712608306000,7.332305908203125,-0.3051281273365021,-0.25441253185272217,0.2164277285337448
1772025712618303700,7.3423037109375,-0.29921531677246094,-0.2559756636619568,0.1028185561299324
1772025712628300800,7.35230078125,-0.29058852791786194,-0.25468161702156067,-0.025553004816174507
1772025712638297900,7.3622978515625,-0.2731689214706421,-0.25561922788619995,-0.14811041951179504
1772025712648296000,7.3722958984375,-0.24473275244235992,-0.24239744246006012,-0.25262749195098877
1772025712658292700,7.382292724609375,-0.20225854218006134,-0.20128493010997772,-0.3322077989578247
1772025712668290800,7.392290771484375,-0.15170268714427948,-0.13853579759597778,-0.385531485080719
1772025712678288000,7.402287841796875,-0.09639333933591843,-0.052618030458688736,-0.41123539209365845
1772025712688285000,7.412284912109375,-0.029652392491698265,0.028174282982945442,-0.4146394431591034
1772025712698283000,7.422282958984375,0.04845000058412552,0.10344434529542923,-0.38838979601860046
1772025712708279800,7.43227978515625,0.1178293451666832,0.15744872391223907,-0.3460383415222168
1772025712718276900,7.44227685546875,0.1838865876197815,0.1902063637971878,-0.3013324737548828
1772025712728275000,7.45227490234375,0.2262476235628128,0.19917535781860352,-0.26765814423561096
1772025712738272000,7.46227197265625,0.257683128118515,0.18058349192142487,-0.25549420714378357
1772025712748269800,7.472269775390625,0.2773039638996124,0.13232727348804474,-0.26094648241996765
1772025712758267000,7.482266845703125,0.28005287051200867,0.0706641897559166,-0.27753958106040955
1772025712768264000,7.492263916015625,0.2675487995147705,0.012076770886778831,-0.2848094701766968
1772025712778262000,7.502261962890625,0.23157185316085815,-0.03777144476771355,-0.28278905153274536
1772025712788258800,7.5122587890625,0.19462822377681732,-0.07171209901571274,-0.2642526626586914
1772025712798255900,7.522255859375,0.1642679125070572,-0.09096558392047882,-0.2374589890241623
1772025712808253700,7.532253662109375,0.14408594369888306,-0.10935842990875244,-0.2058589905500412
1772025712818251000,7.5422509765625,0.137067049741745,-0.13112519681453705,-0.17477673292160034
1772025712828247800,7.552247802734375,0.13940130174160004,-0.1527990698814392,-0.14100998640060425
1772025712838246000,7.562245849609375,0.14460964500904083,-0.15990200638771057,-0.10946141928434372
1772025712848242700,7.57224267578125,0.15794195234775543,-0.166185200214386,-0.08161833882331848
1772025712858240800,7.58224072265625,0.17717601358890533,-0.1589718610048294,-0.062371473759412766
1772025712868237800,7.59223779296875,0.19952179491519928,-0.13109947741031647,-0.05359635502099991
1772025712878235000,7.60223486328125,0.2146168202161789,-0.08077023923397064,-0.05454244092106819
1772025712888233000,7.61223291015625,0.23276838660240173,-0.022155659273266792,-0.059971027076244354
1772025712898229800,7.622229736328125,0.24990738928318024,0.03359043598175049,-0.07531837373971939
1772025712908227000,7.63222705078125,0.26904138922691345,0.07031462341547012,-0.08900994807481766
1772025712918225000,7.642224853515625,0.2951745092868805,0.08371689915657043,-0.10402863472700119
1772025712928222000,7.652221923828125,0.3257388174533844,0.08670816570520401,-0.11370496451854706
1772025712938218800,7.66221875,0.3573985695838928,0.0929831713438034,-0.10934876650571823
1772025712948216800,7.672216796875,0.3839239478111267,0.08767149597406387,-0.09629927575588226
1772025712958214000,7.6822138671875,0.40621861815452576,0.08271685242652893,-0.06496825069189072
1772025712968212000,7.6922119140625,0.4254405200481415,0.07854074984788895,-0.027545247226953506
1772025712978208800,7.702208740234375,0.4357653260231018,0.08150484412908554,0.007816738449037075
1772025712988205800,7.712205810546875,0.44139713048934937,0.09123443812131882,0.04071130231022835
1772025712998203600,7.72220361328125,0.4361254572868347,0.11363893002271652,0.07259386032819748
1772025713008201000,7.732200927734375,0.4368216097354889,0.13046078383922577,0.09027937799692154
1772025713018197800,7.74219775390625,0.4323134124279022,0.14747354388237,0.11064137518405914
1772025713028195800,7.75219580078125,0.42949870228767395,0.1692395657300949,0.1286584585905075
1772025713038192600,7.762192626953125,0.4228520691394806,0.1939256340265274,0.14080041646957397
1772025713048190700,7.772190673828125,0.4191393554210663,0.2299368977546692,0.15173563361167908
1772025713058188000,7.78218798828125,0.4168999493122101,0.2673008143901825,0.15991632640361786
1772025713068184800,7.792184814453125,0.41503387689590454,0.3116922676563263,0.17060412466526031
1772025713078183000,7.802182861328125,0.41755378246307373,0.36319154500961304,0.18933379650115967
1772025713088179700,7.8121796875,0.4315122067928314,0.40135809779167175,0.2103717029094696
1772025713098177000,7.822177001953125,0.44028663635253906,0.4239187240600586,0.22912168502807617
1772025713108174800,7.8321748046875,0.4485935568809509,0.42314109206199646,0.24401727318763733
1772025713118172000,7.842171875,0.44778650999069214,0.4204990863800049,0.2527422606945038
1772025713128168700,7.852168701171875,0.43684065341949463,0.4223766028881073,0.25463762879371643
1772025713138166800,7.862166748046875,0.41677674651145935,0.4212993085384369,0.25418856739997864
1772025713148163800,7.872163818359375,0.38988548517227173,0.4180105924606323,0.25773510336875916
1772025713158162000,7.882161865234375,0.3572063148021698,0.3976244330406189,0.2589684724807739
1772025713168158700,7.89215869140625,0.3237071931362152,0.3712572455406189,0.2508671283721924
1772025713178155800,7.90215576171875,0.28999051451683044,0.36158934235572815,0.23640145361423492
1772025713188153900,7.91215380859375,0.2621708810329437,0.3535260856151581,0.21796384453773499
1772025713198151000,7.92215087890625,0.23084355890750885,0.3466183543205261,0.17409472167491913
1772025713208147700,7.932147705078125,0.19997486472129822,0.32839086651802063,0.12809021770954132
1772025713218145800,7.942145751953125,0.16172342002391815,0.31976374983787537,0.07427645474672318
1772025713228142800,7.952142822265625,0.1317085176706314,0.31676343083381653,0.023484380915760994
1772025713238141000,7.962140869140625,0.11229952424764633,0.30392223596572876,-0.014905682764947414
1772025713248138000,7.972137939453125,0.09314127266407013,0.2711651027202606,-0.04644496738910675
1772025713258134800,7.982134765625,0.07296807318925858,0.24720804393291473,-0.06514114886522293
1772025713268132900,7.9921328125,0.0512356199324131,0.23059311509132385,-0.06954202800989151
1772025713278130000,8.0021298828125,0.03549603745341301,0.21912918984889984,-0.06320477277040482
1772025713288127000,8.012126953125,0.024235660210251808,0.20430177450180054,-0.04194795340299606
1772025713298124800,8.022124755859375,0.01998850889503956,0.21293921768665314,-0.0018909493228420615
1772025713308121900,8.032121826171876,0.02746772952377796,0.2538120746612549,0.0667022317647934
1772025713318119000,8.042118896484375,0.04606021195650101,0.3333304524421692,0.1464845985174179
1772025713328117000,8.052116943359374,0.10263080894947052,0.44235414266586304,0.23632606863975525
1772025713338113800,8.06211376953125,0.21502827107906342,0.5528755187988281,0.32788869738578796
1772025713348112000,8.07211181640625,0.3503485321998596,0.5911789536476135,0.40202099084854126
1772025713358108700,8.082108642578126,0.4516916275024414,0.5320044755935669,0.4273143410682678
1772025713368106000,8.09210595703125,0.4906153082847595,0.41160643100738525,0.4179845154285431
1772025713378103800,8.102103759765624,0.46628519892692566,0.3059036433696747,0.37154728174209595
1772025713388100900,8.112100830078125,0.3645777404308319,0.23627102375030518,0.2963443994522095
1772025713398097700,8.12209765625,0.20417571067810059,0.1689562052488327,0.19152478873729706
1772025713408095700,8.132095703125,0.014154376462101936,0.09895074367523193,0.06466777622699738
1772025713418093000,8.142093017578125,-0.15542319416999817,0.03689137101173401,-0.04636872932314873
1772025713428091000,8.1520908203125,-0.27839574217796326,-0.007480887230485678,-0.11671853065490723
1772025713438088700,8.162088623046875,-0.3634513020515442,0.0037736014928668737,-0.11814738065004349
1772025713448085800,8.172085693359374,-0.39943727850914,0.06265289336442947,-0.06234750524163246
1772025713458083600,8.18208349609375,-0.38462555408477783,0.1346062272787094,0.0333569161593914
1772025713468080600,8.19208056640625,-0.3261563777923584,0.22341333329677582,0.14438223838806152
1772025713478077700,8.20207763671875,-0.21852245926856995,0.31428271532058716,0.26804378628730774
1772025713488075800,8.21207568359375,-0.0663856565952301,0.4151403605937958,0.4005610942840576
1772025713498072600,8.222072509765624,0.11923149228096008,0.4996613562107086,0.5299558639526367
1772025713508070700,8.232070556640625,0.29597753286361694,0.5626197457313538,0.6359624266624451
1772025713518067700,8.242067626953125,0.42305776476860046,0.6121633052825928,0.7085394263267517
1772025713528064800,8.252064697265626,0.5079936981201172,0.6245709657669067,0.7443959712982178
1772025713538062800,8.262062744140625,0.563082754611969,0.6033269762992859,0.7322632670402527
1772025713548059600,8.2720595703125,0.57146155834198,0.5629827380180359,0.685397744178772
1772025713558056700,8.282056640625,0.5428780913352966,0.5106866359710693,0.6130218505859375
1772025713568054800,8.2920546875,0.4748463034629822,0.4483042061328888,0.528778076171875
1772025713578051800,8.3020517578125,0.38275304436683655,0.38485851883888245,0.4472329318523407
1772025713588048600,8.312048583984375,0.26435399055480957,0.3518211841583252,0.37404847145080566
1772025713598046700,8.322046630859376,0.14610818028450012,0.3443545699119568,0.3036828935146332
1772025713608043800,8.332043701171875,0.03023163601756096,0.3292880058288574,0.22989360988140106
1772025713618041900,8.342041748046874,-0.07737331837415695,0.2932223081588745,0.1505066454410553
1772025713628038700,8.35203857421875,-0.17527484893798828,0.2455274909734726,0.04901197552680969
1772025713638035700,8.36203564453125,-0.26405414938926697,0.16517283022403717,-0.0685819536447525
1772025713648033500,8.372033447265625,-0.3249076306819916,0.09760285168886185,-0.18498952686786652
1772025713658030800,8.38203076171875,-0.34850022196769714,0.07238055765628815,-0.2889913022518158
1772025713668027600,8.392027587890626,-0.34599071741104126,0.07095230370759964,-0.3735322952270508
1772025713678025700,8.402025634765625,-0.32329314947128296,0.11121849715709686,-0.42046305537223816
1772025713688022500,8.4120224609375,-0.26673266291618347,0.1964564323425293,-0.4297622740268707
1772025713698020600,8.4220205078125,-0.18835711479187012,0.3083854615688324,-0.4175938069820404
1772025713708018000,8.432017822265625,-0.08960045874118805,0.42191654443740845,-0.3981063961982727
1772025713718014700,8.4420146484375,0.008279637433588505,0.5061436295509338,-0.3831307291984558
1772025713728012800,8.4520126953125,0.09408322721719742,0.5533148646354675,-0.3805530369281769
1772025713738009600,8.462009521484376,0.1603064090013504,0.5552499294281006,-0.3851257562637329
1772025713748007000,8.4720068359375,0.2216469943523407,0.5140990614891052,-0.39231735467910767
1772025713758004700,8.482004638671874,0.2699657082557678,0.43069323897361755,-0.40648123621940613
1772025713768001800,8.492001708984375,0.2966766655445099,0.32021039724349976,-0.423939049243927
1772025713777998600,8.50199853515625,0.3083666265010834,0.20684394240379333,-0.4313804507255554
1772025713787996700,8.51199658203125,0.3102057874202728,0.11580003798007965,-0.41974562406539917
1772025713797993700,8.52199365234375,0.30037355422973633,0.044732753187417984,-0.3991609513759613
1772025713807991800,8.53199169921875,0.2736237049102783,-0.01581714302301407,-0.37095433473587036
1772025713817988600,8.541988525390625,0.23504817485809326,-0.063703753054142,-0.3444575369358063
1772025713827985700,8.551985595703124,0.18945938348770142,-0.10904966294765472,-0.3231293559074402
1772025713837983500,8.5619833984375,0.14679007232189178,-0.16344411671161652,-0.3022390604019165
1772025713847980800,8.571980712890625,0.11311653256416321,-0.21113386750221252,-0.28447097539901733
1772025713857977600,8.5819775390625,0.09196004271507263,-0.2571488320827484,-0.2591798007488251
1772025713867975700,8.5919755859375,0.0849950760602951,-0.281914621591568,-0.23224380612373352
1772025713877972700,8.60197265625,0.09415552020072937,-0.29682204127311707,-0.20196552574634552
1772025713887970600,8.611970458984375,0.11363574117422104,-0.30758628249168396,-0.16380321979522705
1772025713897967900,8.6219677734375,0.13127394020557404,-0.31141889095306396,-0.1234600692987442
1772025713907964700,8.631964599609375,0.1551917940378189,-0.31854739785194397,-0.08407405018806458
1772025713917962800,8.641962646484375,0.17520642280578613,-0.3276928961277008,-0.03597574308514595
1772025713927959800,8.651959716796876,0.19093585014343262,-0.3248409330844879,0.023371199145913124
1772025713937956900,8.661956787109375,0.21028855443000793,-0.30823981761932373,0.08379712700843811
1772025713947954700,8.67195458984375,0.2256254255771637,-0.2921982705593109,0.1496421843767166
1772025713957951700,8.68195166015625,0.2358168065547943,-0.2761245369911194,0.21438655257225037
1772025713967948800,8.69194873046875,0.24088560044765472,-0.2679867148399353,0.25899559259414673
1772025713977947000,8.70194677734375,0.2444743514060974,-0.2764074206352234,0.290906697511673
1772025713987943700,8.711943603515625,0.24192170798778534,-0.30712300539016724,0.31396833062171936
1772025713997941800,8.721941650390624,0.23505063354969025,-0.34488704800605774,0.3217547535896301
1772025714007938600,8.7319384765625,0.22757993638515472,-0.3622271418571472,0.3330545425415039
1772025714017936000,8.741935791015624,0.23035822808742523,-0.34960809350013733,0.35053712129592896
1772025714027934000,8.751933837890626,0.25960370898246765,-0.2947182059288025,0.3769543468952179
1772025714037930800,8.7619306640625,0.3065894544124603,-0.22790808975696564,0.3983626961708069
1772025714047927600,8.771927490234376,0.33995965123176575,-0.22994673252105713,0.3813999593257904
1772025714057925600,8.781925537109375,0.34168609976768494,-0.2792024612426758,0.3217346668243408
1772025714067923000,8.7919228515625,0.30938035249710083,-0.3108315169811249,0.23506207764148712
1772025714077920800,8.801920654296875,0.2790444493293762,-0.2989445626735687,0.1642157882452011
1772025714087917800,8.811917724609375,0.2626447081565857,-0.2524910569190979,0.10335617512464523
1772025714097914600,8.82191455078125,0.25922396779060364,-0.19416333734989166,0.05455208569765091
1772025714107912700,8.83191259765625,0.2733629643917084,-0.1417161077260971,0.02735082618892193
1772025714117909800,8.84190966796875,0.3309338688850403,-0.09063047170639038,0.028356166556477547
1772025714127906800,8.85190673828125,0.4116990268230438,-0.055152107030153275,0.055186446756124496
1772025714137904600,8.861904541015624,0.5035008788108826,-0.051270171999931335,0.08985269069671631
1772025714147901700,8.871901611328125,0.5801231861114502,-0.09188071638345718,0.11504992097616196
1772025714157899500,8.8818994140625,0.6261025071144104,-0.15770138800144196,0.13128355145454407
1772025714167896800,8.891896728515626,0.6456879377365112,-0.23669953644275665,0.14301450550556183
1772025714177893600,8.9018935546875,0.6459588408470154,-0.2946135997772217,0.1584213674068451
1772025714187891700,8.9118916015625,0.6271710395812988,-0.3229818642139435,0.18104411661624908
1772025714197888500,8.921888427734375,0.6037836670875549,-0.33401769399642944,0.19886630773544312
1772025714207885800,8.9318857421875,0.5786623358726501,-0.31863847374916077,0.219309002161026
1772025714217884000,8.9418837890625,0.5509086847305298,-0.2742058038711548,0.23374120891094208
1772025714227880700,8.951880615234375,0.5278941988945007,-0.22464412450790405,0.24097195267677307
1772025714237877500,8.96187744140625,0.5061144232749939,-0.18178316950798035,0.23142699897289276
1772025714247875600,8.97187548828125,0.4958953559398651,-0.12804511189460754,0.23232369124889374
1772025714257873000,8.981872802734374,0.5016192197799683,-0.02822869084775448,0.25114989280700684
1772025714267870700,8.99187060546875,0.5283381938934326,0.12011203914880753,0.2910744249820709
1772025714277867800,9.00186767578125,0.5618329048156738,0.29233720898628235,0.3484760522842407
1772025714287864600,9.011864501953125,0.58244389295578,0.4342304468154907,0.4012921452522278
1772025714297862700,9.021862548828125,0.5753019452095032,0.5072371959686279,0.4294164478778839
1772025714307859700,9.031859619140626,0.5522834062576294,0.5320778489112854,0.4380576014518738
1772025714317856800,9.041856689453125,0.5030697584152222,0.5498548150062561,0.425370454788208
1772025714327854600,9.0518544921875,0.4414287805557251,0.5528567433357239,0.3903783857822418
1772025714337851600,9.0618515625,0.3842170238494873,0.5372453331947327,0.33330196142196655
1772025714347849700,9.071849609375,0.32582563161849976,0.5072040557861328,0.25591209530830383
1772025714357846800,9.0818466796875,0.2849569320678711,0.45822668075561523,0.16188792884349823
1772025714367843600,9.091843505859375,0.25754687190055847,0.4103643596172333,0.05961695313453674
1772025714377841700,9.101841552734374,0.24574805796146393,0.3748810887336731,-0.047196052968502045
1772025714387838700,9.111838623046875,0.2478298544883728,0.35198214650154114,-0.15624983608722687
1772025714397835800,9.121835693359374,0.26876798272132874,0.3366452157497406,-0.2535543441772461
1772025714407833900,9.131833740234375,0.3082306981086731,0.3520606458187103,-0.3332630395889282
1772025714417830700,9.14183056640625,0.359388530254364,0.3920934200286865,-0.3946477472782135
1772025714427827700,9.15182763671875,0.4275824725627899,0.4194624423980713,-0.44982922077178955
1772025714437825800,9.16182568359375,0.5243860483169556,0.43446624279022217,-0.47982463240623474
1772025714447822800,9.17182275390625,0.6452123522758484,0.4541962742805481,-0.49564433097839355
1772025714457820700,9.181820556640625,0.7777401804924011,0.46417731046676636,-0.4913836121559143
1772025714467817700,9.191817626953124,0.8963810801506042,0.4621032178401947,-0.4695390462875366
1772025714477814800,9.201814697265625,0.9836075305938721,0.45189183950424194,-0.43592017889022827
1772025714487812900,9.211812744140625,1.0401828289031982,0.431519478559494,-0.39741724729537964
1772025714497809700,9.2218095703125,1.084288239479065,0.40709659457206726,-0.36241042613983154
1772025714507806700,9.231806640625,1.1112711429595947,0.38108816742897034,-0.32741251587867737
1772025714517804500,9.241804443359374,1.1209843158721924,0.35506391525268555,-0.3016347885131836
1772025714527801900,9.2518017578125,1.104203224182129,0.348458468914032,-0.28479936718940735
1772025714537800000,9.261800048828125,1.0669554471969604,0.3465190827846527,-0.27486342191696167
1772025714547796700,9.271796630859376,1.0178800821304321,0.3496735990047455,-0.2697964906692505
1772025714557793500,9.28179345703125,0.962697446346283,0.35698503255844116,-0.2597220838069916
1772025714567791600,9.29179150390625,0.9066190123558044,0.3598191440105438,-0.25166016817092896
1772025714577789000,9.301788818359375,0.8477910757064819,0.36808714270591736,-0.24145373702049255
1772025714587785700,9.31178564453125,0.8085197806358337,0.3668261170387268,-0.2388768494129181
1772025714597783800,9.32178369140625,0.7744831442832947,0.3641604483127594,-0.2433338612318039
1772025714607779800,9.33177978515625,0.7496446371078491,0.3568527400493622,-0.2593221366405487
1772025714617776600,9.341776611328125,0.734516441822052,0.36302366852760315,-0.27358371019363403
1772025714627774700,9.351774658203125,0.7253572940826416,0.39368465542793274,-0.2945297360420227
1772025714637771500,9.361771484375,0.7282283306121826,0.43470877408981323,-0.308498740196228
1772025714647768800,9.371768798828125,0.7498420476913452,0.47678351402282715,-0.3146415948867798
1772025714657767000,9.381766845703124,0.7802823781967163,0.5104942321777344,-0.3170284032821655
1772025714667763700,9.391763671875,0.8276261687278748,0.5366552472114563,-0.31050020456314087
1772025714677760800,9.4017607421875,0.8827964663505554,0.5561892986297607,-0.28352609276771545
1772025714687758600,9.411758544921875,0.9409531950950623,0.5787183046340942,-0.24815425276756287
1772025714697756000,9.421755859375,0.992027759552002,0.604398250579834,-0.2045329362154007
1772025714707753700,9.431753662109376,1.0306929349899292,0.6269205808639526,-0.1539965271949768
1772025714717750800,9.441750732421875,1.056134581565857,0.6487700939178467,-0.10389221459627151
1772025714727747600,9.45174755859375,1.07129967212677,0.6547334790229797,-0.0587385855615139
1772025714737745700,9.46174560546875,1.0669935941696167,0.6439145803451538,-0.02059931866824627
1772025714747742700,9.47174267578125,1.0517033338546753,0.6281582713127136,0.014475311152637005
1772025714757739800,9.48173974609375,1.0317752361297607,0.6170281171798706,0.05121960863471031
1772025714767737600,9.491737548828125,1.0048543214797974,0.6100359559059143,0.08911159634590149
1772025714777734700,9.501734619140626,0.9671053290367126,0.5983500480651855,0.12199337780475616
1772025714787731700,9.511731689453125,0.9242750406265259,0.5858350396156311,0.1405998170375824
1772025714797729800,9.521729736328124,0.8809020519256592,0.5800138115882874,0.15326407551765442
1772025714807726600,9.5317265625,0.8469334244728088,0.5680059194564819,0.15877389907836914
1772025714817724700,9.541724609375,0.8161813616752625,0.5598625540733337,0.1472816914319992
1772025714827721700,9.5517216796875,0.7838819622993469,0.5591070055961609,0.12175848335027695
1772025714837718800,9.56171875,0.7678760290145874,0.564415693283081,0.09006613492965698
1772025714847716900,9.571716796875,0.7649534940719604,0.5907309055328369,0.06317247450351715
1772025714857713700,9.581713623046875,0.7803536057472229,0.6397826075553894,0.040188394486904144
1772025714867710700,9.591710693359374,0.8212323188781738,0.6895378828048706,0.03101487085223198
1772025714877708800,9.601708740234375,0.8923757672309875,0.7193102836608887,0.038071177899837494
1772025714887705900,9.611705810546875,0.9718087911605835,0.6993509531021118,0.053228024393320084
1772025714897703700,9.62170361328125,1.033320426940918,0.6416966319084167,0.07069776952266693
1772025714907700700,9.63170068359375,1.0732418298721313,0.569351077079773,0.09302730858325958
1772025714917697800,9.64169775390625,1.0951253175735474,0.5085492134094238,0.12198026478290558
1772025714927696000,9.65169580078125,1.0815788507461548,0.45067816972732544,0.14476920664310455
1772025714937692700,9.661692626953124,1.0339972972869873,0.3933236598968506,0.14463983476161957
1772025714947689700,9.671689697265625,0.9697991609573364,0.3679458796977997,0.13528893887996674
1772025714957687600,9.6816875,0.9222933650016785,0.4017048478126526,0.13203242421150208
1772025714967684900,9.691684814453126,0.9024179577827454,0.45426952838897705,0.12979936599731445
1772025714977683000,9.701682861328125,0.8960025310516357,0.5021286010742188,0.11987703293561935
1772025714987679700,9.7116796875,0.9024268388748169,0.5390485525131226,0.09388884156942368
1772025714997676500,9.721676513671875,0.9190033674240112,0.5628224611282349,0.06581319868564606
1772025715007674600,9.731674560546875,0.9448916912078857,0.5742250680923462,0.02362845651805401
1772025715017672000,9.741671875,0.9770130515098572,0.575048565864563,-0.025175632908940315
1772025715027668700,9.751668701171875,1.0117355585098267,0.5825499296188354,-0.06440239399671555
1772025715037666800,9.761666748046874,1.0342488288879395,0.5739350914955139,-0.1069442629814148
1772025715047663600,9.77166357421875,1.0342568159103394,0.5726708769798279,-0.15459513664245605
1772025715057661000,9.781660888671874,1.0200495719909668,0.6054007411003113,-0.19823329150676727
1772025715067658800,9.79165869140625,0.9939302206039429,0.6597587466239929,-0.25299057364463806
1772025715077655800,9.80165576171875,0.9636364579200745,0.6746072769165039,-0.32641029357910156
1772025715087653600,9.811653564453126,0.9216914176940918,0.6249686479568481,-0.4327985346317291
1772025715097650700,9.821650634765625,0.8695669770240784,0.5757290720939636,-0.5528149604797363
1772025715107647700,9.831647705078124,0.8370399475097656,0.5910808444023132,-0.6711450815200806
1772025715117645800,9.841645751953125,0.8400332927703857,0.5491316318511963,-0.774601399898529
1772025715127642600,9.851642578125,0.8532295227050781,0.4347272515296936,-0.8592324256896973
1772025715137639700,9.8616396484375,0.8905828595161438,0.30303287506103516,-0.8701713681221008
1772025715147637500,9.871637451171875,0.9410534501075745,0.25187620520591736,-0.7796478867530823
1772025715157634800,9.881634765625,0.9792914390563965,0.25391775369644165,-0.6199147701263428
1772025715167633000,9.8916328125,1.0133979320526123,0.27194708585739136,-0.4336743652820587
1772025715177629700,9.901629638671874,1.0557259321212769,0.31299805641174316,-0.25132834911346436
1772025715187626800,9.911626708984375,1.1399198770523071,0.33973246812820435,-0.07932781428098679
1772025715197624600,9.92162451171875,1.2520372867584229,0.34630459547042847,0.049292273819446564
1772025715207622000,9.931621826171876,1.364996314048767,0.3337922692298889,0.12406478822231293
1772025715217620700,9.941620849609375,1.4501184225082397,0.29543694853782654,0.14138729870319366
1772025715227617800,9.95161767578125,1.4909135103225708,0.2293255776166916,0.11698449403047562
1772025715237615900,9.961615966796876,1.4844098091125488,0.15755566954612732,0.06698659062385559
1772025715247612700,9.97161279296875,1.4281147718429565,0.09662840515375137,-0.0010396038414910436
1772025715257609700,9.981609619140626,1.347743034362793,0.05841993913054466,-0.08625722676515579
1772025715267607800,9.99160791015625,1.2574125528335571,0.037325307726860046,-0.18637824058532715
1772025715277604900,10.00160498046875,1.1754388809204102,0.029868880286812782,-0.3093374967575073
1772025715287601700,10.0116015625,1.1077202558517456,0.029000157490372658,-0.4371841549873352
1772025715297599700,10.021599853515625,1.0668139457702637,0.0636969655752182,-0.5358495116233826
1772025715307596800,10.0315966796875,1.0538878440856934,0.13104751706123352,-0.5797919631004333
1772025715317593900,10.04159375,1.052395224571228,0.23225148022174835,-0.5667092800140381
1772025715327591700,10.051591796875,1.0621782541275024,0.3514596223831177,-0.5062592625617981
1772025715337588700,10.061588623046875,1.0951939821243286,0.4830925464630127,-0.4151518940925598
1772025715347586600,10.071586669921874,1.1411404609680176,0.5966324806213379,-0.31604209542274475
1772025715357584000,10.081583984375,1.183380365371704,0.6755607724189758,-0.21950149536132812
1772025715367580700,10.09158056640625,1.2183644771575928,0.7270210385322571,-0.14802305400371552
1772025715377578800,10.101578857421876,1.2388601303100586,0.7657914757728577,-0.1098606213927269
1772025715387575600,10.111575439453125,1.2374202013015747,0.7688783407211304,-0.12486754357814789
1772025715397572900,10.12157275390625,1.2356255054473877,0.7347257137298584,-0.16224446892738342
1772025715407571000,10.131571044921875,1.253096103668213,0.6932685375213623,-0.20930199325084686
1772025715417567700,10.141567626953124,1.2808692455291748,0.6560338139533997,-0.2626345157623291
1772025715427565800,10.15156591796875,1.2882347106933594,0.6141292452812195,-0.30983611941337585
1772025715437562400,10.161562255859375,1.2932246923446655,0.5775464773178101,-0.34133604168891907
1772025715447559400,10.171559326171876,1.3046895265579224,0.5433445572853088,-0.32625457644462585
1772025715457557500,10.1815576171875,1.3169622421264648,0.49712488055229187,-0.27895909547805786
1772025715467554300,10.19155419921875,1.3118544816970825,0.4527680575847626,-0.2229674756526947
1772025715477551400,10.20155126953125,1.291983723640442,0.3902027904987335,-0.1578385978937149
1772025715487549200,10.211549072265624,1.260143518447876,0.32629600167274475,-0.07192981988191605
1772025715497546500,10.22154638671875,1.2282235622406006,0.2864552140235901,0.01836352050304413
1772025715507544300,10.23154443359375,1.195181965827942,0.2828002870082855,0.10412130504846573
1772025715517541400,10.241541259765626,1.1711817979812622,0.27738556265830994,0.16508212685585022
1772025715527538200,10.2515380859375,1.138027310371399,0.24415570497512817,0.2130800038576126
1772025715537536300,10.261536376953124,1.1015838384628296,0.21624518930912018,0.24617616832256317
1772025715547533300,10.271533203125,1.0713132619857788,0.20475071668624878,0.2804742455482483
1772025715557530400,10.2815302734375,1.0571597814559937,0.2053535133600235,0.31835269927978516
1772025715567528200,10.291528076171875,1.0613417625427246,0.21883469820022583,0.35365530848503113
1772025715577525500,10.301525390625,1.0753321647644043,0.22017990052700043,0.3756316602230072
1772025715587523600,10.311523681640624,1.1023331880569458,0.2083139270544052,0.38180112838745117
1772025715597520400,10.321520263671875,1.131085753440857,0.19653552770614624,0.386747270822525
1772025715607517200,10.33151708984375,1.1630492210388184,0.20706859230995178,0.3886314630508423
1772025715617515300,10.341515380859375,1.2009074687957764,0.23933951556682587,0.3873364329338074
1772025715627512600,10.3515126953125,1.2224316596984863,0.22411128878593445,0.3639101982116699
1772025715637509400,10.36150927734375,1.2006759643554688,0.1339181363582611,0.3044721186161041
1772025715647507500,10.371507568359375,1.1460846662521362,0.04183747246861458,0.23482884466648102
1772025715657504300,10.381504150390626,1.1005699634552002,-0.010087236762046814,0.18379242718219757
1772025715667502300,10.39150244140625,1.0591317415237427,-0.0366450771689415,0.14878064393997192
1772025715677499400,10.40149951171875,1.0259524583816528,-0.06509604305028915,0.12627947330474854
1772025715687496400,10.411496337890625,1.0020819902420044,-0.08018685132265091,0.10581281036138535
1772025715697494300,10.421494384765625,1.0109950304031372,-0.05317999795079231,0.09795861691236496
1772025715707491300,10.4314912109375,1.043333888053894,0.013099422678351402,0.1040671095252037
1772025715717488400,10.44148828125,1.0787304639816284,0.08597662299871445,0.10097071528434753
1772025715727486500,10.451486572265624,1.0996160507202148,0.14150647819042206,0.07700546830892563
1772025715737483300,10.461483154296875,1.1134577989578247,0.1905931532382965,0.03274599090218544
1772025715747481300,10.4714814453125,1.1259949207305908,0.24436292052268982,-0.012911239638924599
1772025715757478100,10.48147802734375,1.1445914506912231,0.2909349501132965,-0.041918057948350906
1772025715767475500,10.491475341796875,1.1639279127120972,0.33964335918426514,-0.03572966903448105
1772025715777473500,10.5014736328125,1.1757229566574097,0.37146303057670593,0.008501304313540459
1772025715787470300,10.51147021484375,1.1793681383132935,0.37755632400512695,0.08678492903709412
1772025715797467100,10.521467041015624,1.1627053022384644,0.37857213616371155,0.18382473289966583
1772025715807465200,10.53146533203125,1.1376210451126099,0.3884982764720917,0.2808849513530731
1772025715817462500,10.541462646484375,1.104400634765625,0.3941361606121063,0.3675141930580139
1772025715827459300,10.551459228515625,1.0657286643981934,0.3795851767063141,0.44125765562057495
1772025715837457400,10.56145751953125,1.0129741430282593,0.3489023447036743,0.48522505164146423
1772025715847454200,10.5714541015625,0.9282051920890808,0.3323974013328552,0.484752357006073
1772025715857452300,10.581452392578125,0.8297621607780457,0.3268278241157532,0.44103819131851196
1772025715867449300,10.591449462890624,0.7424248456954956,0.3356253206729889,0.3677080571651459
1772025715877446400,10.6014462890625,0.6694155931472778,0.34961292147636414,0.2828829288482666
1772025715887444200,10.6114443359375,0.6095120310783386,0.3568119704723358,0.19727347791194916
1772025715897441300,10.621441162109376,0.5548259615898132,0.39383548498153687,0.11704402416944504
1772025715907438300,10.631438232421875,0.508737325668335,0.45803576707839966,0.04047281667590141
1772025715917436400,10.6414365234375,0.4734845757484436,0.5491448640823364,-0.03691750392317772
1772025715927433200,10.65143310546875,0.44855818152427673,0.6390902400016785,-0.12221456319093704
1772025715937431300,10.661431396484375,0.4400123655796051,0.6944723129272461,-0.20767591893672943
1772025715947428400,10.671428466796876,0.4382168650627136,0.6985597014427185,-0.27143627405166626
1772025715957425400,10.68142529296875,0.4387337565422058,0.7091230750083923,-0.3074205815792084
1772025715967423500,10.691423583984376,0.4500660300254822,0.727226734161377,-0.32362857460975647
1772025715977420300,10.701420166015625,0.4748396575450897,0.7648141384124756,-0.34179526567459106
1772025715987417300,10.711417236328124,0.5229563117027283,0.782873809337616,-0.3764456510543823
1772025715997415400,10.72141552734375,0.6021831035614014,0.7697423100471497,-0.40869465470314026
1772025716007412500,10.73141259765625,0.6607803702354431,0.7435722351074219,-0.3903665244579315
1772025716017410300,10.741410400390626,0.6587430834770203,0.6795420050621033,-0.3119274973869324
1772025716027407400,10.751407470703125,0.6648443937301636,0.559657633304596,-0.2653903365135193
1772025716037404400,10.761404296875,0.7180808782577515,0.41695278882980347,-0.2539843022823334
1772025716047402500,10.771402587890625,0.7870564460754395,0.2952631115913391,-0.2575686573982239
1772025716057399300,10.7813994140625,0.8174300193786621,0.22477789223194122,-0.2700977623462677
1772025716067396400,10.791396240234375,0.7713831663131714,0.18522408604621887,-0.2849169373512268
1772025716077394200,10.801394287109375,0.6945545077323914,0.15800657868385315,-0.26853933930397034
1772025716087391500,10.8113916015625,0.6599560976028442,0.20551790297031403,-0.21139110624790192
1772025716097389600,10.8213896484375,0.6453453898429871,0.26133134961128235,-0.14753170311450958
1772025716107386400,10.831386474609374,0.6444305777549744,0.24243327975273132,-0.10314293205738068
