time,seconds_elapsed,z,y,x
1772025716797071000,0.083071044921875,0.09624912792146205,0.7885206137090921,1.4369298691555856
1772025716807068200,0.093068115234375,-0.03527238891124725,0.9514204346239566,1.1950915360823273
1772025716817066200,0.103066162109375,-0.08360942657887935,1.0616507416248322,1.0189249679677188
1772025716827063000,0.11306298828125,-0.09764964236915111,1.1122238677814602,0.941684345768392
1772025716837060000,0.12306005859375,-0.04419686912298202,1.1142302391678094,0.8397777766071259
1772025716847058200,0.13305810546875,0.17187047835588454,1.181837502233684,0.7218119069181382
1772025716857055200,0.14305517578125,0.5141285030335188,1.2613546910628675,0.6191460438221693
1772025716867052000,0.153052001953125,0.811036981421709,1.2327043506398796,0.5076118146158755
1772025716877050000,0.163050048828125,0.8953858281910418,1.1476526162981986,0.501157816170901
1772025716887047200,0.173047119140625,0.8770061218917369,1.0171852846935392,0.5919255900718271
1772025716897045200,0.183045166015625,0.8953671234905719,0.7968895058646798,0.7936150142386555
1772025716907042000,0.1930419921875,0.9203753080189228,0.6411006859987973,1.0209681642331183
1772025716917039000,0.2030390625,0.8228583521187305,0.5317959694102407,1.2022285483554005
1772025716927037200,0.213037109375,0.7168138063699007,0.40968876213282346,1.295879622607678
1772025716937034200,0.2230341796875,0.8022007640153169,0.32262188857644797,1.266080696671456
1772025716947031300,0.23303125,0.8599404208004474,0.3028644641831517,1.2203282686695456
1772025716957029000,0.243029052734375,0.6310597689777613,0.2696107216179371,1.1980540391497314
1772025716967026200,0.253026123046875,0.2966401828408241,0.16826076342612503,1.2136115276351571
1772025716977024000,0.26302392578125,0.16870763041079043,0.10009440517276524,1.1153563205882906
1772025716987021300,0.273021240234375,0.2363952652364969,0.14602964239567517,0.8993639380417764
1772025716997018000,0.28301806640625,0.20268179620504378,0.21394816336780786,0.6430364763669669
1772025717007016200,0.29301611328125,0.07912029846608638,0.18165479026734827,0.4904975251425057
1772025717017013000,0.303012939453125,-0.10771218670010566,0.0859448837891221,0.5155646002512425
1772025717027010300,0.31301025390625,-0.3735989193588495,0.08018880448043346,0.5043390765555202
1772025717037008100,0.323008056640625,-0.47167526270747184,0.1255982642635703,0.33854784504808483
1772025717047005200,0.333005126953125,-0.3663824121087789,0.13816490036994217,0.16307693104743956
1772025717057003300,0.343003173828125,-0.26872809356451033,0.08863017735034227,0.03512180145941674
1772025717067000000,0.353,-0.3687158234924078,0.0330482831209898,0.07053856727741659
1772025717076997000,0.3629970703125,-0.49407764865159987,-0.0586523877158761,0.21420549912974238
1772025717086995200,0.3729951171875,-0.6242337223500013,-0.22022592846304176,0.4249164341419935
1772025717096992300,0.3829921875,-0.7332295191198587,-0.3680596976712346,0.5310251311682165
1772025717106989000,0.392989013671875,-0.6833955208927392,-0.37048137186020613,0.5830261712361127
1772025717116987100,0.402987060546875,-0.6313765798419714,-0.3277864317327738,0.5721916196193546
1772025717126984200,0.412984130859375,-0.6662187606424093,-0.35417438018172975,0.5504382721684873
1772025717136982300,0.422982177734375,-0.7737357170313597,-0.4264584028869867,0.5738529769603162
1772025717146979000,0.43297900390625,-0.9069535163879394,-0.5199889194995164,0.7078308739691972
1772025717156976000,0.44297607421875,-1.0455150148600338,-0.7200052958875894,0.8838396211735904
1772025717166974000,0.452973876953125,-1.0625625957727431,-1.021152142497897,0.9353905063211917
1772025717176971300,0.46297119140625,-1.0938760179251432,-1.0081097055733204,0.7906928431816399
1772025717186968000,0.472968017578125,-1.1952332826405763,-0.785566732339561,0.7340148242786526
1772025717196966100,0.482966064453125,-1.3427560862034558,-0.8107648864820599,0.7160626957416534
1772025717206963000,0.492962890625,-1.5303817675739526,-0.9557184240788221,0.6709630325600504
1772025717216961000,0.5029609375,-1.632186191534996,-0.9451379933536053,0.5756666387861594
1772025717226958000,0.5129580078125,-1.637037138697505,-0.6878446092560887,0.4258385904882103
1772025717236955100,0.522955078125,-1.5816589503467082,-0.35677521032989024,0.20905155043266713
1772025717246953200,0.532953125,-1.3552426428109408,-0.09123860628306865,-0.10511296398714184
1772025717256950000,0.542949951171875,-0.9818296014130115,0.09636866264790296,-0.42813280237261203
1772025717266947000,0.552947021484375,-0.6384668303638696,0.2830471262961626,-0.6523452797211706
1772025717276945200,0.562945068359375,-0.23556056797802447,0.5414657150313258,-0.7953261290054768
1772025717286942200,0.572942138671875,0.12102408821582794,0.7187067805096506,-0.8329865090318024
1772025717296940000,0.58293994140625,0.3796306007385254,0.7609452090412377,-0.7839760290820151
1772025717306937300,0.592937255859375,0.6209943020373583,0.7335919226914643,-0.6966379373688251
1772025717316934100,0.60293408203125,0.801702751365304,0.713430009150505,-0.6177826465144753
1772025717326932200,0.61293212890625,0.9148205965012312,0.6975424119278788,-0.5547750592637807
1772025717336929000,0.622928955078125,0.9758341603904962,0.6447142003208398,-0.4543902197770774
1772025717346926300,0.63292626953125,0.9639882397741079,0.551254703117907,-0.27141042798366394
1772025717356924200,0.642924072265625,0.8034265064179897,0.44117754085212946,-0.06297887261286378
1772025717366921200,0.652921142578125,0.5846650975495576,0.4168842265948653,0.09927269526002928
1772025717376919000,0.6629189453125,0.48731589943170545,0.4891039518922567,0.14159772436283527
1772025717386916000,0.672916015625,0.48661856481730936,0.5845888174429535,0.11964140168577432
1772025717396913200,0.6829130859375,0.44390579677224157,0.5970534544795751,0.04442569117648527
1772025717406911200,0.6929111328125,0.36549744596779343,0.565296380212903,-0.06965088858953676
1772025717416908000,0.702907958984375,0.27539748832583427,0.589688770930469,-0.20243370319548992
1772025717426905000,0.712905029296875,0.0867354496449232,0.6605164573475718,-0.2950855555436574
1772025717436902400,0.72290234375,-0.14246961182653903,0.7060431137695908,-0.3320097485162318
1772025717446899700,0.732899658203125,-0.264776725590229,0.7123121110364794,-0.32867786414716393
1772025717456897500,0.7428974609375,-0.24074118548631668,0.7296428928047418,-0.31808965197429057
1772025717466894600,0.75289453125,-0.21276129167079924,0.792528680306673,-0.3422077923277393
1772025717476891400,0.762891357421875,-0.19145956044495105,0.8162862802520394,-0.37779238899331535
1772025717486889700,0.7728896484375,-0.1918541127204895,0.8126739349737763,-0.4583426471972838
1772025717496886500,0.782886474609375,-0.11296820753216742,0.8034583628609776,-0.5062363615442067
1772025717506883600,0.792883544921875,0.029034371304512023,0.7744201921641826,-0.5113485169261693
1772025717516881400,0.80288134765625,0.163197342556715,0.7153294130310416,-0.4438856672996655
1772025717526878700,0.812878662109375,0.3148702515363693,0.6485510020047426,-0.29755320603251456
1772025717536876500,0.82287646484375,0.5041606512486935,0.5294461914137005,-0.10710684121809899
1772025717546873600,0.83287353515625,0.6762076552152634,0.41638153776973486,0.050132816776912656
1772025717556870400,0.842870361328125,0.7101788984000682,0.3119485188707709,0.17914856133377177
1772025717566868500,0.852868408203125,0.6531254703134298,0.2028074684113264,0.2983945156948641
1772025717576865800,0.86286572265625,0.6308487565755844,0.07252075407058,0.3699492377448827
1772025717586862600,0.872862548828125,0.4985796362459659,-0.12201777542829513,0.43105135670043526
1772025717596860700,0.882860595703125,0.33758184956014153,-0.24415567010492084,0.4627632766511291
1772025717606857500,0.892857421875,0.25865327427387236,-0.23570406810194253,0.4805706994878128
1772025717616855600,0.90285546875,0.2099701996475458,-0.221489957049489,0.43213195501137525
1772025717626852600,0.9128525390625,0.11913549799025058,-0.24484482141286135,0.33527967356499283
1772025717636849700,0.922849609375,0.03615735505223274,-0.2505035778269172,0.24441965480335057
1772025717646847500,0.932847412109375,-0.005651742151379585,-0.230801975274086,0.07737064178716391
1772025717656844500,0.942844482421875,-0.038249943417310715,-0.18307576298117637,-0.08106960590295494
1772025717666841600,0.952841552734375,-0.010731237372756004,-0.13772300182133912,-0.15597626872938125
1772025717676839700,0.962839599609375,0.04595628001093864,-0.07705226002037524,-0.1885023911397904
1772025717686836500,0.97283642578125,0.10547580595016479,-0.040651159340143204,-0.2020278623409569
1772025717696834600,0.98283447265625,0.20417817224264143,-0.07674860089868307,-0.21271420112606138
1772025717706831400,0.992831298828125,0.2967015576392412,-0.15054945790767668,-0.17353373539298772
1772025717716828700,1.00282861328125,0.3702648065000772,-0.2096913827061653,-0.11101652547512203
1772025717726826800,1.01282666015625,0.416713253942132,-0.3032709991574287,-0.005669095144979656
1772025717736823600,1.022823486328125,0.4602437681108713,-0.43751258860379455,0.12278799261581153
1772025717746820400,1.0328203125,0.47612347428798674,-0.5582888395383954,0.19599548684153706
1772025717756818400,1.042818359375,0.46397944750785824,-0.6523255521073937,0.242329294927977
1772025717766815700,1.052815673828125,0.40597383326292036,-0.7454919115826487,0.24648352853059768
1772025717776813600,1.0628134765625,0.24545067835152148,-0.8418927229344845,0.25998382875788956
1772025717786810600,1.072810546875,0.12259528305530547,-0.9438283720597624,0.295759162222594
1772025717796807400,1.082807373046875,0.06844400615096091,-0.9778361478626727,0.3134586677053943
1772025717806805500,1.092805419921875,0.04120353252589702,-0.9541147882744669,0.3344850891212001
1772025717816802600,1.102802490234375,-0.021748305949568746,-0.8989762538984417,0.3227424462161958
1772025717826799600,1.112799560546875,-0.11329495526850222,-0.8621420224979519,0.2786171810247004
1772025717836797400,1.12279736328125,-0.19360007960498332,-0.8397752923890948,0.21912337404862045
1772025717846794500,1.13279443359375,-0.2023059486299753,-0.7897910720363259,0.14604074831157923
1772025717856792600,1.14279248046875,-0.23027356748580932,-0.7349526896506547,0.1172980534300208
1772025717866789600,1.15278955078125,-0.2944131544411182,-0.6703706196248531,0.1088351263154298
1772025717876786400,1.162786376953125,-0.30699966429173947,-0.6084472474142909,0.09789240161646157
1772025717886784500,1.172784423828125,-0.26002690071463586,-0.5304834255069494,0.10089695372730494
1772025717896781600,1.182781494140625,-0.2758750427097082,-0.4519084859639406,0.12893076968714595
1772025717906778600,1.192778564453125,-0.3021563159137964,-0.4064955190494656,0.20768625342883168
1772025717916776700,1.202776611328125,-0.27678046711683274,-0.5177355876147747,0.33123474555574356
1772025717926773500,1.2127734375,-0.25119945113658904,-0.6681807083651423,0.42157326119393107
1772025717936771600,1.222771484375,-0.3661106094300747,-0.6521314908400178,0.45224633961617944
1772025717946768600,1.2327685546875,-0.5548369455188512,-0.6257137317746877,0.5470418346632272
1772025717956765700,1.242765625,-0.645450697901845,-0.7560273341223597,0.6210105955850332
1772025717966763500,1.252763427734375,-0.7450555659919976,-0.9122548376664519,0.6588874679062515
1772025717976760600,1.262760498046875,-0.8890244764655828,-0.926669147466123,0.6819109814234078
1772025717986757600,1.272757568359375,-1.0369587834388017,-0.7750149431869388,0.6796494662322103
1772025717996755700,1.282755615234375,-1.0726613804608582,-0.5612488583877683,0.6436140570592135
1772025718006752500,1.29275244140625,-1.0687333933621643,-0.3598042027622461,0.5931815814822912
1772025718016750600,1.30275048828125,-1.0878472591549158,-0.2222729241207242,0.46917270530201494
1772025718026747400,1.312747314453125,-1.056298274680972,-0.07291413730233907,0.24993710305057465
1772025718036744700,1.32274462890625,-0.9003115941554307,0.10211801995486021,0.0633611499287188
1772025718046742800,1.33274267578125,-0.7232271805435418,0.2990069119721651,-0.09441950134150684
1772025718056739600,1.342739501953125,-0.5818050319433212,0.4551145885288715,-0.18700513831935822
1772025718066736400,1.352736328125,-0.46517654833793637,0.5514683458685875,-0.23288893761597573
1772025718076734500,1.362734375,-0.2766723305672407,0.5958689208701252,-0.2508230190396309
1772025718086731800,1.372731689453125,-0.10483633900284767,0.6337734118506312,-0.20652897315248847
1772025718096728600,1.382728515625,0.04791968903839588,0.66836220241189,-0.12212825006544589
1772025718106726700,1.3927265625,0.16777531799674034,0.7378110016912222,0.011254603659734129
1772025718116723500,1.402723388671875,0.27352994088828564,0.7516206235960126,0.13828465429209172
1772025718126721500,1.412721435546875,0.39521161623001094,0.7631006335094571,0.20191271152868867
1772025718136718600,1.422718505859375,0.4981751470983028,0.8523480659753083,0.23209581447690725
1772025718146715600,1.432715576171875,0.5983639525562524,0.9935776146128773,0.24646190122067926
1772025718156713500,1.44271337890625,0.755679835858941,1.1069622939914465,0.22752573008239269
1772025718166710500,1.45271044921875,0.9560492634683847,1.153327154803276,0.19853987409472465
1772025718176707600,1.46270751953125,1.1347148087918757,1.113533489075303,0.206918703122437
1772025718186705700,1.47270556640625,1.2328256389319896,1.1005468739911912,0.23403598875924944
1772025718196702500,1.482702392578125,1.2712912709265947,1.120866608442366,0.30058497494384645
1772025718206700500,1.492700439453125,1.3148586099743842,1.0119009145498274,0.42097427238747476
1772025718216697300,1.502697265625,1.260857555195689,0.8088061536297202,0.5830823584027588
1772025718226694700,1.512694580078125,1.218449323055148,0.5985144669428467,0.7576218367721885
1772025718236692700,1.522692626953125,1.161710367745161,0.40887423087954516,0.9060578827224671
1772025718246689500,1.532689453125,0.9788292505532502,0.22878332892805336,1.0271633656114338
1772025718256686300,1.542686279296875,0.724552876189351,0.01528320158869028,1.1389658903650939
1772025718266684400,1.552684326171875,0.507758968001604,-0.14888123243451118,1.234820319880545
1772025718276681700,1.562681640625,0.2880132242709398,-0.19676321981102227,1.3195453064858913
1772025718286679600,1.572679443359375,-0.015368834045529365,-0.14596066881269215,1.361732004830241
1772025718296676600,1.582676513671875,-0.3242342922091484,-0.0734536510065198,1.3756252133652567
1772025718306673400,1.59267333984375,-0.5657675048559904,-0.002639408592879772,1.3584358858942984
1772025718316671500,1.60267138671875,-0.7472118672430514,0.06551584374457597,1.3163029635637997
1772025718326668500,1.61266845703125,-0.8120499578565359,0.18689122961610555,1.1395292233362793
1772025718336665600,1.62266552734375,-0.6762830585390329,0.33963819756805896,0.9126089848663658
1772025718346663400,1.632663330078125,-0.39403146653473375,0.4299275403022766,0.783038163710013
1772025718356660500,1.642660400390625,-0.13995149152576922,0.44263037000894545,0.653088133977726
1772025718366658600,1.652658447265625,0.10638239940106868,0.44254415303021666,0.45930926373973485
1772025718376655600,1.662655517578125,0.3971580741226673,0.49163025549948214,0.2899178157832473
1772025718386652400,1.67265234375,0.635524931693077,0.48571051006168126,0.23978804947994647
1772025718396650500,1.682650390625,0.7750117283165454,0.35223610559552904,0.31542817768007514
1772025718406647600,1.6926474609375,0.7765384994924068,0.23825609067231415,0.42297304498925803
1772025718416644600,1.70264453125,0.669604311427474,0.19978227537125348,0.660413946821168
1772025718426642700,1.712642578125,0.5226011478245258,0.14995119975358248,0.9534030598085373
1772025718436639200,1.72263916015625,0.4640051664710045,-0.0070502107724547385,1.1281582267552615
1772025718446636300,1.73263623046875,0.4829717327475547,-0.140438690520823,1.1154505016777663
1772025718456634400,1.74263427734375,0.42501346477568147,-0.19361235456466674,1.085314964198321
1772025718466631400,1.75263134765625,0.3411982864916324,-0.2200309904128313,1.1011248930748552
1772025718476629200,1.762629150390625,0.344255920496583,-0.25159663376063107,1.110382112372294
1772025718486626300,1.772626220703125,0.3495850065648556,-0.2716644392773509,1.0973694129988552
1772025718496623400,1.782623291015625,0.2931517562031746,-0.26644582784622906,1.0991238554507494
1772025718506621400,1.792621337890625,0.2141962929099798,-0.23650515535175798,1.0477520531971007
1772025718516618200,1.8026181640625,0.1613186892032623,-0.22341244954466818,0.9634377662844955
1772025718526615300,1.812615234375,0.09557108252942562,-0.21980974887758492,0.8648639217425137
1772025718536613000,1.822613037109375,-0.03775719146430492,-0.1802589519947767,0.8136063935182988
1772025718546610400,1.8326103515625,-0.158980601644516,-0.1410287653684616,0.8073935834180563
1772025718556608300,1.842608154296875,-0.20816402700841424,-0.13709522531181573,0.7889001876112073
1772025718566605300,1.852605224609375,-0.29131051225066185,-0.13864333153665065,0.7771867342680692
1772025718576602000,1.86260205078125,-0.4907411977052688,-0.13332272103577852,0.7496388021290302
1772025718586600200,1.87260009765625,-0.6355763696193695,-0.12775748812407253,0.7209105741642415
1772025718596597200,1.88259716796875,-0.6235387258231639,-0.13806962330192327,0.6743669957846403
1772025718606594300,1.89259423828125,-0.6014502281337976,-0.10447393543124198,0.6596024843078107
1772025718616592400,1.90259228515625,-0.6407511419087648,-0.09246317964196205,0.6765921244882047
1772025718626589200,1.912589111328125,-0.6891022081017494,-0.14629735342115163,0.7238512307260185
1772025718636587300,1.922587158203125,-0.7126864973068237,-0.28973317993134257,0.8032722657043486
1772025718646584300,1.932584228515625,-0.769842801246047,-0.5450836132675408,0.9297118030976503
1772025718656581400,1.942581298828125,-0.8105518282532691,-0.8585878371477127,1.0604084864787757
1772025718666579200,1.9525791015625,-0.9323422246664762,-0.770894648386538,0.9764216779548675
1772025718676576300,1.962576171875,-1.0765683247715234,-0.3579214577555656,0.8478880908917635
1772025718686573300,1.9725732421875,-1.0720721823960542,-0.20553250946104526,0.686767919935286
1772025718696571400,1.9825712890625,-0.9076391605645417,-0.3583458206474781,0.5345613424703478
1772025718706568200,1.992568115234375,-0.8021873200118541,-0.4118637680843472,0.3396967958875
1772025718716566300,2.002566162109375,-0.7497299875438213,-0.19834172117412088,0.11909165884852409
1772025718726563300,2.012563232421875,-0.6563052693933248,0.05259089571982622,-0.0548942042261362
1772025718736560400,2.022560302734375,-0.5174678765892983,0.0957221814379096,-0.1724163122029975
1772025718746558500,2.032558349609375,-0.47205169480443,0.04597440018951893,-0.26276677400730547
1772025718756555300,2.04255517578125,-0.5497539431661367,0.1402232942044735,-0.3577397445131093
1772025718766552300,2.05255224609375,-0.6052613108545541,0.24410773930996654,-0.4322020245729014
1772025718776550400,2.06255029296875,-0.6478846470504999,0.29487580351680515,-0.58230023158174
1772025718786547500,2.07254736328125,-0.6514151592642069,0.26077245838493107,-0.7217383302252739
1772025718796545300,2.082545166015625,-0.5152858563750982,0.24910423242300747,-0.8683714184068143
1772025718806542300,2.092542236328125,-0.3064601505875587,0.313593363468349,-0.9897004809185862
1772025718816539400,2.102539306640625,-0.16061901650130747,0.42619829064607617,-1.0617856931161134
1772025718826537500,2.112537353515625,-0.06783844147324562,0.5105255101054906,-1.1054796542182563
1772025718836534300,2.1225341796875,0.03860883985757828,0.5195648488685488,-1.1575003488346933
1772025718846531300,2.13253125,0.21529870119392872,0.5219280708685518,-1.2111236563421786
1772025718856529200,2.142529052734375,0.42438335017859935,0.5012348269298672,-1.271314651802182
1772025718866526500,2.1525263671875,0.5544768800348043,0.4752475682362914,-1.3065759347975254
1772025718876523300,2.162523193359375,0.5948071368575096,0.4497036693960428,-1.2950281203448772
1772025718886521300,2.172521240234375,0.6159568923920392,0.3828352419987321,-1.2429537958450614
1772025718896518100,2.18251806640625,0.6120727444350719,0.27743542389422654,-1.182147298835218
1772025718906516200,2.19251611328125,0.5684194806694984,0.17846359301060438,-1.1316218112125993
1772025718916513300,2.20251318359375,0.5229425086081028,0.1225894378364086,-1.0504388811282812
1772025718926510300,2.21251025390625,0.4633218603819608,0.07236731707453728,-0.9737121998004614
1772025718936508400,2.22250830078125,0.4000380134731531,0.002101356193423271,-0.9320926338195801
1772025718946505200,2.232505126953125,0.3488859183847904,-0.09644903440773486,-0.884128521117568
1772025718956502300,2.242502197265625,0.31118133389055724,-0.16072160009294748,-0.8240318528775126
1772025718966500400,2.252500244140625,0.1945470050662756,-0.14047931479215622,-0.7577057156633585
1772025718976497400,2.262497314453125,-0.03746960669457912,-0.043430268664658066,-0.6762298670470714
1772025718986495200,2.2724951171875,-0.24128069919049738,0.047028000895679,-0.650781683666259
1772025718996492300,2.2824921875,-0.2795768198370933,0.08111614845842123,-0.7239845747821032
1772025719006489300,2.2924892578125,-0.24748598357141016,0.11117606341838836,-0.8824132416322826
1772025719016487400,2.3024873046875,-0.10837328095734118,0.17276771945655345,-1.028721920165047
1772025719026484200,2.312484130859375,0.10836042147576808,0.26583471021056176,-1.067701566096395
1772025719036481300,2.322481201171875,0.37012510576844215,0.3265437381953001,-1.0730142855517566
1772025719046479000,2.33247900390625,0.6532698472201823,0.3266287861302495,-1.1559071613591163
1772025719056476400,2.342476318359375,0.846225783702731,0.23347236352711914,-1.1611527338624
1772025719066474200,2.35247412109375,0.9339607657790183,0.1332274439677596,-1.1138498615480958
1772025719076471300,2.36247119140625,1.0137550179839134,-0.010912146897614002,-0.9377577469091862
1772025719086468000,2.372468017578125,1.0323848996520042,-0.17066870135068893,-0.6337696124583483
1772025719096466200,2.382466064453125,0.9683125327140092,-0.3314417393699288,-0.4146759759608656
1772025719106463200,2.392463134765625,0.8690046017438173,-0.5054840088069439,-0.2965172140482813
1772025719116460300,2.402460205078125,0.7531628846019506,-0.6861068256780505,-0.16810411155968905
1772025719126458400,2.412458251953125,0.5915560261070728,-0.812372321678698,-0.004680559031665325
1772025719136455400,2.422455322265625,0.44697804382443423,-0.8921391013547778,0.10795490941479802
1772025719146453500,2.43245361328125,0.38564357741773125,-0.9100950292840599,0.12242832899056375
1772025719156450300,2.4424501953125,0.380733593544364,-0.9068924338504671,0.07591156555265188
1772025719166447400,2.452447265625,0.4091594775617122,-0.8467685122773051,-0.040303734141960736
1772025719176445200,2.462445068359375,0.44743163281083104,-0.7593237453192472,-0.1363626001883298
1772025719186442500,2.4724423828125,0.4040764752089977,-0.6840782424598932,-0.18981866137012837
1772025719196439300,2.482439208984375,0.28152970747053624,-0.6269762990564107,-0.23257446483932434
1772025719206437400,2.492437255859375,0.24468261658847332,-0.5671317789465189,-0.2600103879712522
1772025719216434200,2.50243408203125,0.24582243427336214,-0.4986699448779225,-0.2759208546128124
1772025719226432300,2.512432373046875,0.2328185757935047,-0.47640784418731924,-0.31943807090856136
1772025719236429300,2.52242919921875,0.16300445033311842,-0.46419104443192477,-0.35772052835598583
1772025719246426400,2.53242626953125,0.0632949528247118,-0.45504561494588847,-0.3697804570492357
1772025719256424400,2.542424560546875,-0.05713993732631206,-0.4469689837351441,-0.35998175128623844
1772025719266421200,2.552421142578125,-0.15176818604767323,-0.4610305345743894,-0.4144102376967668
1772025719276418300,2.562418212890625,-0.20839783576428889,-0.4504331527143717,-0.5171977544110268
1772025719286416400,2.57241650390625,-0.2852221322476864,-0.4126233542799949,-0.5834645626533776
1772025719296413400,2.582413330078125,-0.3855570681780576,-0.36753713510185476,-0.6514292608547956
1772025719306410200,2.59241015625,-0.46096448360085485,-0.36408611786514516,-0.6964321856636554
1772025719316408300,2.602408203125,-0.5354226354748011,-0.3628770343363285,-0.717115127404034
1772025719326405400,2.6124052734375,-0.5804775827318429,-0.35015199279785153,-0.7105972699426114
1772025719336403500,2.622403564453125,-0.5944236904978751,-0.3395128176227212,-0.7098782349530607
1772025719346400300,2.632400146484375,-0.6632172407388687,-0.3558507889613509,-0.735498633095622
1772025719356397300,2.642397216796875,-0.6577291647166014,-0.4002613008350134,-0.737279305967316
1772025719366395100,2.65239501953125,-0.5714806218057871,-0.5509887456580996,-0.6590101444378494
1772025719376392400,2.662392333984375,-0.4988882638037204,-0.811354084546864,-0.5463523180291057
1772025719386389200,2.67238916015625,-0.6149684658765793,-0.9236743495643138,-0.43905565332733093
1772025719396387300,2.68238720703125,-0.8206243094563483,-0.893921600857377,-0.31618681402765214
1772025719406384000,2.692384033203125,-0.9247831875890493,-0.9163172647997736,-0.22983218039385972
1772025719416382200,2.70238232421875,-0.9546645311117171,-1.0252914342597126,-0.13089724745452402
1772025719426379300,2.712379150390625,-0.9689660281866789,-1.0955898361057042,-0.0010812193654477595
1772025719436376800,2.722376953125,-1.088079898867011,-1.0725099892914294,0.07212561727315187
1772025719446375000,2.732375,-1.1617968769848346,-0.8964172170653939,0.12872224150300024
1772025719456371700,2.742371826171875,-1.1377227584362029,-0.6812637695610523,0.14722798533476888
1772025719466369000,2.752369140625,-1.0669558622956274,-0.5238318586632609,0.06585347820110618
1772025719476367000,2.7623671875,-0.9769862530350685,-0.41323038026243447,-0.052882572142779825
1772025719486364000,2.772364013671875,-0.9287427388697862,-0.2732394335091114,-0.10328004947155714
1772025719496362000,2.782362060546875,-0.9089292003750801,-0.12585662293881178,-0.16921455701962113
1772025719506358800,2.79235888671875,-0.8588514565199613,-0.0005655249282717704,-0.2497241178870201
1772025719516356000,2.802356201171875,-0.7093564761012792,0.09077069651037455,-0.30731501385122534
1772025719526354000,2.81235400390625,-0.5538087715148925,0.19332360075116156,-0.3272404882878065
1772025719536351000,2.82235107421875,-0.4389367761880159,0.3004936433985829,-0.2797388785310089
1772025719546347800,2.83234765625,-0.3136421710461378,0.3696981125280261,-0.20358853578642008
1772025719556345900,2.842345947265625,-0.17159049237072466,0.4121916848644614,-0.14256269693747162
1772025719566343000,2.852343017578125,-0.02339899576604366,0.4781938508212566,-0.07721767971515656
1772025719576341000,2.862341064453125,0.11457681177258491,0.5966515956804156,-0.07919277918040751
1772025719586337800,2.872337890625,0.2490004797875881,0.7813818478703498,-0.1526725875414908
1772025719596334800,2.8823349609375,0.4467740456849336,0.8591787887781858,-0.09639832713380456
1772025719606332700,2.892332763671875,0.5880044711053372,0.8844131832778453,-0.01694032114595175
1772025719616330000,2.902330078125,0.6341489671647549,0.8752148545607924,0.07600406614169478
1772025719626326800,2.912326904296875,0.7443097160607576,0.8393249182730913,0.11334303219392895
1772025719636324900,2.922324951171875,0.8634428759634494,0.8222323291748762,0.16277371031716464
1772025719646321700,2.93232177734375,0.8633084359288216,0.7700058828532695,0.268671833332628
1772025719656319700,2.94231982421875,0.8066735255151987,0.6886497881591319,0.33026875006780027
1772025719666317000,2.952317138671875,0.7369061618059873,0.6471843898266554,0.41121436426490543
1772025719676313900,2.96231396484375,0.6495102024257182,0.6280214241951704,0.5052120599977672
1772025719686312000,2.97231201171875,0.6135737966477871,0.5880851351261138,0.592940320072323
1772025719696308700,2.982308837890625,0.5659428614228964,0.5125751361116767,0.6749563399799168
1772025719706306000,2.99230615234375,0.45982232782840726,0.41850276770740746,0.7222782092556357
1772025719716304000,3.002303955078125,0.3564151448458433,0.3430214102655649,0.7394159526698291
1772025719726301000,3.012301025390625,0.22765724750757216,0.30180969443321226,0.7136284543320536
1772025719736298800,3.022298828125,0.10616320369243622,0.34219957248866556,0.6181267837770282
1772025719746295800,3.0322958984375,-0.026836568999290464,0.4702648113876581,0.524870554061234
1772025719756292900,3.04229296875,-0.14712182154655457,0.5549035810142755,0.45431963875889775
1772025719766291000,3.052291015625,-0.21108722097873686,0.5691054171070457,0.3411339890837669
1772025719776287700,3.062287841796875,-0.18657120388150214,0.5905623388946056,0.17231252303496003
1772025719786284800,3.072284912109375,-0.10923077456951141,0.6679226419508457,0.006904518691450357
1772025719796283000,3.082282958984375,0.12719897745847702,0.734362907063961,-0.11801686922386288
1772025719806280000,3.092280029296875,0.47303427610099313,0.7723404632806777,-0.18593071402087807
1772025719816276700,3.10227685546875,0.7814584202378988,0.7754954201802611,-0.20392726622149346
1772025719826274800,3.11227490234375,0.9701245505720376,0.7149822070285677,-0.17984145723506806
1772025719836272000,3.122272216796875,1.009887821161747,0.6105784142240882,-0.10443506472557783
1772025719846270000,3.13227001953125,1.0028893405765293,0.4506204919800162,0.019690058245509862
1772025719856267000,3.14226708984375,1.0212070875555277,0.2850488215073943,0.1825885639861226
1772025719866263800,3.152263916015625,1.0720207444697618,0.1058329488247633,0.2713654563307762
1772025719876262000,3.162261962890625,1.1124392640978098,-0.053769876371324056,0.2864396913439035
1772025719886259000,3.172259033203125,1.1086924787849186,-0.1862389031872153,0.35189854420423505
1772025719896256000,3.182256103515625,1.067533369922638,-0.31005116081684825,0.37755510963872074
1772025719906253800,3.19225390625,1.0050690227031707,-0.39883389838039873,0.4506643311217427
1772025719916251000,3.2022509765625,0.9205015647470951,-0.4729714399978518,0.5245297777995467
1772025719926248700,3.212248779296875,0.832754892233014,-0.5704235139682888,0.5262209457568824
1772025719936246000,3.22224609375,0.7554466116249561,-0.6459682920351624,0.55748292998299
1772025719946242800,3.232242919921875,0.6702659902065992,-0.6742766871526837,0.5439611851088703
1772025719956241000,3.242240966796875,0.5977887830168008,-0.6617112200900912,0.47906055065318937
1772025719966237700,3.25223779296875,0.5056394916296005,-0.64918988443017,0.4029720210984349
1772025719976235000,3.262235107421875,0.3632277474701404,-0.662054626700282,0.33122999631538985
1772025719986233000,3.272233154296875,0.2376543253868818,-0.6987374669313431,0.20622575242221355
1772025719996230000,3.28222998046875,0.226391173094511,-0.7276499654218554,0.08314750815555452
1772025720006228000,3.29222802734375,0.2118260566473007,-0.7314797528430819,0.026565789233893154
1772025720016224800,3.302224853515625,0.09877484700679778,-0.7133323939949273,0.022026099977642297
1772025720026222000,3.31222216796875,-0.06274024155139923,-0.7020362162157893,0.0551001020617783
1772025720036220000,3.322219970703125,-0.17498831811547277,-0.7387839383766055,0.07778488514386117
1772025720046217000,3.332217041015625,-0.27435645484030247,-0.7796686142116784,0.12039360829256475
1772025720056213800,3.3422138671875,-0.38512978267669673,-0.8011489168748259,0.1628320894408971
1772025720066211800,3.3522119140625,-0.512500025048852,-0.808448426233232,0.2141435398094356
1772025720076209000,3.362208984375,-0.5926204404681921,-0.774423114773631,0.21738237560018897
1772025720086207000,3.37220703125,-0.6577724193364382,-0.7383563606142998,0.19833529143333434
1772025720096203800,3.382203857421875,-0.6788765821635723,-0.7027823584079742,0.16864757078662515
1772025720106200800,3.392200927734375,-0.7238830141037702,-0.6496791292518377,0.14344642096944152
1772025720116198700,3.40219873046875,-0.758261084523797,-0.6500304269075393,0.12289061274006963
1772025720126196000,3.412196044921875,-0.7376373986899852,-0.7888610977098345,0.148150945398584
1772025720136192800,3.42219287109375,-0.7315332365959882,-0.96074852720052,0.1931814158014953
1772025720146190800,3.43219091796875,-0.8332371227920055,-0.9272428557008504,0.22851795599013566
1772025720156188000,3.44218798828125,-0.9522481176197528,-0.7121750406533479,0.33359767529480155
1772025720166185700,3.452185791015625,-1.0003308882653712,-0.6676987700670958,0.40377113558687266
1772025720176183000,3.46218310546875,-0.9851175370424985,-0.7643582323551178,0.375060589409247
1772025720186179800,3.472179931640625,-1.0056769254684448,-0.7745625232443213,0.3304307356964797
1772025720196178000,3.482177978515625,-0.9864502469509839,-0.7188277765408158,0.30023923024609683
1772025720206175000,3.492175048828125,-0.8934978224873542,-0.6374295962706208,0.2737581601535901
1772025720216172000,3.502172119140625,-0.7967208712995052,-0.5403524930924177,0.24296678911391645
1772025720226169900,3.512169921875,-0.7376163559019565,-0.46468262734115123,0.2557622655401006
1772025720236167000,3.5221669921875,-0.6979021851509809,-0.4039078406438231,0.2668004865027964
1772025720246164000,3.5321640625,-0.7010673711836337,-0.31404286080151794,0.255920451776497
1772025720256162000,3.542162109375,-0.7195306641131639,-0.17493337305784223,0.19858711076993493
1772025720266158800,3.552158935546875,-0.7138549565643072,-0.027722704184055327,0.08329495380222797
1772025720276157000,3.562156982421875,-0.6151081666082143,0.07463672331124543,-0.07447663737870752
1772025720286153700,3.57215380859375,-0.519376340559125,0.15736410635858775,-0.2104373422352597
1772025720296151000,3.582151123046875,-0.4498568141311407,0.24468700050264597,-0.33744835937358436
1772025720306149000,3.592149169921875,-0.3148305040478706,0.312675664101541,-0.4675618360392749
1772025720316146000,3.60214599609375,-0.22941782743930816,0.38423312609791754,-0.5648905028257518
1772025720326144000,3.61214404296875,-0.274148365047574,0.4754819615140557,-0.6463111871886998
1772025720336140800,3.622140869140625,-0.26286650805473327,0.6334881651684642,-0.7066119996987282
1772025720346138000,3.63213818359375,-0.15562252338826654,0.7788523293927312,-0.7390637782312929
1772025720356136000,3.642135986328125,-0.03451367949843406,0.8729778892889618,-0.8370705634750425
1772025720366133000,3.652133056640625,0.0916021788984537,0.9306371743142604,-0.9046187898300587
1772025720376129800,3.6621298828125,0.2774129198014736,0.9875301511421799,-0.9815579448647797
1772025720386128000,3.6721279296875,0.5056511820673942,1.0460790784835814,-1.0294725193366407
1772025720396125000,3.682125,0.6054162091553211,1.0545569839715958,-1.0167976736154407
1772025720406123000,3.692123046875,0.5876683710187673,0.9902575302794575,-0.9152188020385801
1772025720416119800,3.702119873046875,0.5481283877909183,0.9141255999743938,-0.7799577333513646
1772025720426116900,3.712116943359375,0.5339473022252321,0.8513581781551242,-0.6901610695049166
1772025720436118000,3.722117919921875,0.4650403547376394,0.7632830043390393,-0.6080963150847702
1772025720446115300,3.732115234375,0.38905952334105964,0.6137807173967361,-0.5050462384441867
1772025720456112000,3.742112060546875,0.3386749054938555,0.4910869424030184,-0.4533290933515876
1772025720466110200,3.752110107421875,0.2691220613181591,0.4786898176446557,-0.4675220520181581
1772025720476107000,3.76210693359375,0.1810702683776617,0.5520730337634683,-0.47360166419278826
1772025720486104300,3.772104248046875,0.07843523881137371,0.6266229555740952,-0.5190880616696552
1772025720496102100,3.78210205078125,0.0050040918976068495,0.6144920805364846,-0.6054410513356328
1772025720506099200,3.79209912109375,-0.0000011690437793731689,0.5527978409066796,-0.66415897856839
1772025720516097000,3.802096923828125,0.0328565599411726,0.5535334617048502,-0.6889853767890483
1772025720526094000,3.812093994140625,0.21883973480165003,0.552597349898517,-0.7325716397330164
1772025720536091100,3.822091064453125,0.37551732020080086,0.49641076777428383,-0.7803383301667869
1772025720546089200,3.832089111328125,0.36523207302987576,0.4015326359450817,-0.8386962649807334
1772025720556086300,3.842086181640625,0.40862814716398715,0.3020557781487703,-0.8444587740302085
1772025720566084000,3.852083984375,0.5002987151235342,0.18055881172418592,-0.7955988815322518
1772025720576081200,3.8620810546875,0.5435258624315261,-0.014950608633458614,-0.6620598873972893
1772025720586078200,3.872078125,0.5476093323528767,-0.21739041277617216,-0.5334233879489824
1772025720596076300,3.882076171875,0.5975742634832859,-0.38633009837716814,-0.43088411037474866
1772025720606073000,3.892072998046875,0.6917150209486485,-0.4877037297055125,-0.34059706919547167
1772025720616070100,3.902070068359375,0.6910854908734559,-0.52313423178792,-0.21354162839353083
1772025720626068200,3.912068115234375,0.6279483589589595,-0.5534463679432868,-0.15033179656900464
1772025720636065300,3.922065185546875,0.5361532878369093,-0.6048980305001139,-0.15195070300772784
1772025720646062000,3.93206201171875,0.49274961491823194,-0.6637585080087185,-0.1326631611485034
1772025720656060200,3.94206005859375,0.4319178373366594,-0.6850257524430752,-0.10229056351017206
1772025720666057200,3.95205712890625,0.36876667689681053,-0.664936319616437,-0.08609400993622839
1772025720676055300,3.96205517578125,0.32696400943398474,-0.6096186292812228,-0.134557377397269
1772025720686052000,3.972052001953125,0.35030279944539067,-0.5583122204139829,-0.27271774772256613
1772025720696049200,3.982049072265625,0.3526853106677532,-0.5551923348277807,-0.4216454496473074
1772025720706047200,3.992047119140625,0.3655120590150356,-0.5480643826439976,-0.5166936773464084
1772025720716044300,4.002044189453125,0.35839959666132926,-0.5345455603793263,-0.5316545881781727
1772025720726042400,4.01204248046875,0.34413843159675594,-0.4999991476550698,-0.5110181889932602
1772025720736039200,4.0220390625,0.3497375667780638,-0.46970133228600025,-0.516318925749883
1772025720746036200,4.0320361328125,0.3216062817931175,-0.4369458946317434,-0.517277176322788
1772025720756034000,4.042033935546875,0.2838958520799875,-0.42965252275317906,-0.5358921526826917
1772025720766031400,4.05203125,0.3061614599019289,-0.48775604441463943,-0.5630241244319826
1772025720776028200,4.062028076171875,0.2989315086483955,-0.5400272066608071,-0.5414006139058619
1772025720786026200,4.072026123046875,0.16691548629701136,-0.5983885024756193,-0.5172502152506262
1772025720796023000,4.08202294921875,0.06087620124518871,-0.6467088812693953,-0.49913244782313704
1772025720806021000,4.092021240234375,0.00046352585852146145,-0.6786392662763595,-0.4635666289232671
1772025720816018200,4.10201806640625,-0.09415887764394283,-0.6978355496555566,-0.4051930581487715
1772025720826015200,4.11201513671875,-0.1844032121926546,-0.6585457417964935,-0.3318290581870824
1772025720836013000,4.122012939453125,-0.4263537734687328,-0.6012848084390163,-0.41056649481542407
1772025720846010000,4.132010009765625,-0.6474363187611103,-0.6280430515050888,-0.5746298065517097
1772025720856007200,4.142007080078125,-0.7583984471678733,-0.6079539109393954,-0.7128850886188447
1772025720866005200,4.152005126953125,-0.8992664690166712,-0.546515691897273,-0.8292583553541452
1772025720876002000,4.162001953125,-1.0454203223139047,-0.4892942137673497,-0.8668406286429613
1772025720886000000,4.172000244140625,-1.1187760659039019,-0.4293193452760577,-0.9773005796812474
1772025720895997200,4.1819970703125,-1.0700520747452973,-0.3909524974808097,-1.0227939183555543
1772025720905994200,4.191994140625,-1.019848658683896,-0.44837475887984035,-1.0230359834831206
1772025720915992300,4.201992431640625,-1.0746668750643729,-0.4433350111469626,-1.0459531870815901
1772025720925989000,4.211989013671875,-1.1296645396649836,-0.3222317202150822,-0.9705144266724586
1772025720935986200,4.221986083984375,-1.0999959621101618,-0.3290174348324537,-0.8118539238277822
1772025720945984000,4.23198388671875,-1.0105413166344166,-0.524018028885126,-0.626023674506694
1772025720955981300,4.241981201171875,-1.00766254632771,-0.7148918983966112,-0.4172495527759194
1772025720965979100,4.251979248046875,-1.013078726157546,-0.7642176548406481,-0.2773398545652628
1772025720975976200,4.26197607421875,-0.948252910503745,-0.7246677347406745,-0.20996698477715253
1772025720985973000,4.271972900390625,-0.9203694628000259,-0.6835708774596452,-0.12032836103662847
1772025720995971300,4.281971435546875,-1.007968835797906,-0.6483280069038272,-0.010361965668946503
1772025721005968100,4.291968017578125,-1.0848545070797204,-0.4966819859310984,0.07224179099872707
1772025721015965200,4.301965087890625,-1.13032388035655,-0.26262948442846534,0.16693302195370197
1772025721025963000,4.311962890625,-1.1171043332993984,-0.0066124038770794865,0.14337152910232542
1772025721035960300,4.321960205078125,-0.9756529586046934,0.24333470911085603,0.03458528342992067
1772025721045958400,4.33195849609375,-0.8447036887019872,0.4427028507232666,-0.00017944822013378142
1772025721055955200,4.341955078125,-0.6611480332493782,0.6011491993606091,0.010459726954996586
1772025721065952300,4.3519521484375,-0.3952256447553634,0.7858589932844042,-0.09654474986717104
1772025721075950000,4.3619501953125,-0.0784527744680643,1.0378744369789958,-0.2851622187539935
1772025721085947400,4.371947509765625,0.29420740273594853,1.3077601761460302,-0.4273784403413534
1772025721095944200,4.381944091796875,0.6234481249302626,1.5131243433028458,-0.5578698834739625
1772025721105942300,4.3919423828125,0.853626415348053,1.5576500059887766,-0.5272555495016277
1772025721115939000,4.40193896484375,0.9664823946774005,1.4524007022708654,-0.3514135371662676
1772025721125937200,4.411937255859375,1.0154758504271506,1.288870182237029,-0.05801540498659014
1772025721135934200,4.421934326171875,1.0334376235753298,1.1486480570763349,0.23617723857164383
1772025721145931300,4.43193115234375,1.0782616846859454,1.005404246006906,0.39752719969600436
1772025721155929000,4.44192919921875,1.0258329937905073,0.941609819227457,0.44724955424219365
1772025721165926100,4.451926025390625,0.8706868557423353,0.8810936834663152,0.5175901877947151
1772025721175923200,4.461923095703125,0.7218705052375793,0.764478936125338,0.6059278119392693
1772025721185921300,4.47192138671875,0.6094575935006141,0.5782344799801707,0.7340526720710099
1772025721195918000,4.48191796875,0.5178501539051532,0.3802268130660057,0.8311306520320475
1772025721205916200,4.491916259765625,0.4451519974410534,0.24512685322463512,0.8663523336693644
1772025721215913200,4.501913330078125,0.428805842795968,0.16805881111323834,0.881193782839924
1772025721225910300,4.51191015625,0.37267654381692406,0.14375088380873202,0.8676102247759699
1772025721235908400,4.521908447265625,0.3163444157421589,0.15113514884114265,0.83446418036893
1772025721245905200,4.5319052734375,0.3245996183902025,0.21555910569578407,0.7978840698599815
1772025721255902200,4.541902099609375,0.3385755367726087,0.3230746007800102,0.7353112938299775
1772025721265900000,4.551900146484375,0.3067138330876827,0.3593319090753794,0.6727991619460284
1772025721275897300,4.5618974609375,0.31148586979508397,0.35085078871697184,0.5329403171397745
1772025721285895200,4.571895263671875,0.39798166546523567,0.34320465787798166,0.347859936337918
1772025721295892200,4.581892333984375,0.5509224024236202,0.3808393920063972,0.2510227793954313
1772025721305889000,4.591888916015625,0.7336796009749174,0.3700882808893919,0.25234920569360253
1772025721315887000,4.60188720703125,0.8415022623121738,0.28860300685763357,0.28298122145310045
1772025721325884200,4.61188427734375,0.95180563454926,0.19650807600617407,0.30888737773448227
1772025721335881200,4.621881103515625,1.0856301676273346,0.10111644169688225,0.3282091871894896
1772025721345879000,4.631879150390625,1.1439175214231014,0.01082943705022335,0.40629736612886186
1772025721355876000,4.6418759765625,1.1171809056669473,-0.11797522203922271,0.5348908666856587
1772025721365874200,4.651874267578125,1.0789818156540394,-0.2968289834111929,0.70182505768314
1772025721375871200,4.661871337890625,0.9923702846497297,-0.4974439102143049,0.8885003064610063
1772025721385868000,4.671867919921875,0.908821063825488,-0.6731760324344038,1.004070659315586
1772025721395866000,4.6818662109375,0.8979320055425166,-0.7906541186064481,1.0350213856354356
1772025721405863200,4.69186328125,0.8959311871141195,-0.8772343776896595,1.025107894386351
1772025721415861200,4.701861328125,0.8250660912960768,-0.9252540199711918,1.0189053864844142
1772025721425858300,4.7118583984375,0.7572878555774688,-0.9540765020906925,1.0019668189041315
1772025721435855600,4.721855712890625,0.7167331423491239,-0.9162064979016781,0.9839178058639169
1772025721445853400,4.731853515625,0.636519203427434,-0.8452569386705756,0.9708516958028077
1772025721455850500,4.7418505859375,0.5607815331369638,-0.7877005294978618,0.9086568131744861
1772025721465847600,4.75184765625,0.5167319635301828,-0.7476777311891317,0.840471604090184
1772025721475845600,4.761845703125,0.4631371514648199,-0.6690215431034564,0.7911062462881207
1772025721485842400,4.771842529296875,0.4210387159258127,-0.599065963345766,0.7618709455840289
1772025721495840500,4.781840576171875,0.3869195887029171,-0.5463216306298971,0.7473983297258615
1772025721505837600,4.791837646484375,0.317737331405282,-0.4514893837690353,0.7087959196090697
1772025721515834600,4.801834716796875,0.22088205428421495,-0.46199119630008934,0.7363105340003967
1772025721525832400,4.81183251953125,0.04231646220386028,-0.4899713823765516,0.7777773936375976
1772025721535829500,4.82182958984375,-0.18485855474472046,-0.5263847580164671,0.7931735540814697
1772025721545826600,4.83182666015625,-0.3595826689660549,-0.553666148173809,0.7824269730091095
1772025721555824600,4.84182470703125,-0.46017421000599856,-0.5244043978542089,0.7487130655862391
1772025721565821400,4.851821533203125,-0.5020926128029823,-0.47132425731271504,0.6766435624144971
1772025721575819500,4.861819580078125,-0.42935821598172186,-0.4363409144759178,0.6420739149451256
1772025721585816600,4.871816650390625,-0.516287726894021,-0.356137789209187,0.5790224154874682
1772025721595813600,4.881813720703125,-0.5851917517721653,-0.3435670614495873,0.3998080041095614
1772025721605811700,4.891811767578125,-0.48098494284451004,-0.32099954807162284,0.2910403170071542
1772025721615808500,4.90180859375,-0.5073024564057588,-0.2872267500683665,0.28408297214992345
1772025721625805600,4.9118056640625,-0.6404793392300605,-0.41858430851101874,0.3981495693780482
1772025721635803400,4.921803466796875,-0.6378256098508834,-0.7406120305866003,0.6012307401642203
1772025721645800700,4.93180078125,-0.6338385860413313,-0.9037582274779676,0.7140350623715669
1772025721655798500,4.941798583984375,-0.8010007405757904,-0.7328995565131307,0.769825850111246
1772025721665795600,4.951795654296875,-0.952352162516117,-0.5783797336697578,0.7753286122459918
1772025721675792400,4.96179248046875,-0.9116530723810196,-0.6469651941180229,0.6944315864309668
1772025721685790500,4.97179052734375,-0.753262837845087,-0.7360007373988628,0.5683421045843512
1772025721695787500,4.98178759765625,-0.6484855355530977,-0.6434840740039944,0.45255891269668935
1772025721705785600,4.99178564453125,-0.5318430234223603,-0.42098844704329963,0.3648718614153564
1772025721715782400,5.001782470703125,-0.3995236342102289,-0.21565233693718908,0.2895046318724751
1772025721725779500,5.011779541015625,-0.26284955691993234,-0.11701602161824702,0.1840561523206532
1772025721735777500,5.021777587890625,-0.158609430244565,-0.13063070547282696,0.13582776265926658
1772025721745774600,5.031774658203125,-0.25247487789988515,-0.13681407028287648,0.14290668806955217
1772025721755771400,5.041771484375,-0.3986708167731762,-0.08608399999886751,0.11568148507885634
1772025721765769500,5.05176953125,-0.474008089569211,-0.0160360657826066,0.0037643940348178148
1772025721775766500,5.0617666015625,-0.4722849190384149,0.02272065811306238,-0.13363938576951623
1772025721785764400,5.071764404296875,-0.4573135598778724,0.08546323775202036,-0.21574374154768883
1772025721795761700,5.08176171875,-0.5322025043845177,0.2080535523712635,-0.2640393146937713
1772025721805758500,5.091758544921875,-0.5344014757335186,0.31604251018613577,-0.4084966297388077
1772025721815756500,5.101756591796875,-0.3598573942542076,0.4487263487964868,-0.555071484927088
1772025721825753300,5.11175341796875,-0.24895897873342035,0.5888052660942077,-0.660083618888259
1772025721835750700,5.121750732421875,-0.19920681357085704,0.6909642025813459,-0.769680596421659
1772025721845748500,5.13174853515625,-0.10056114590167999,0.7438651871636509,-0.8290318531218915
1772025721855745500,5.14174560546875,-0.05140928471982479,0.7610127213194966,-0.8737764923207462
1772025721865743400,5.151743408203125,0.008937924215197563,0.7767442511975765,-0.9223356483064591
1772025721875740400,5.161740478515625,0.050824762830138204,0.7663920762702823,-0.9219066092394291
1772025721885737500,5.171737548828125,0.1012970589607954,0.7283756493479013,-0.9315619610089808
1772025721895735600,5.181735595703125,0.20915771422088145,0.6987716614618897,-0.9178989810332655
1772025721905732600,5.191732666015625,0.316523279440403,0.7076774369731545,-0.8784940223619341
1772025721915729400,5.2017294921875,0.37723406099081036,0.7513087811678647,-0.8368865852102637
1772025721925727500,5.2117275390625,0.44537586932480333,0.790471455515921,-0.8099541546210646
1772025721935724500,5.221724609375,0.513674914047122,0.8004340466037392,-0.7832294484984129
1772025721945722600,5.23172265625,0.5532265877127647,0.7963494076386094,-0.7631727488975971
1772025721955719400,5.241719482421875,0.6126163497924805,0.7941033822774887,-0.7612545672513544
1772025721965716500,5.251716552734375,0.667968819180131,0.751748341628909,-0.734820733834058
1772025721975714600,5.261714599609375,0.7228326282680034,0.7495809344619512,-0.6972329075872897
1772025721985711600,5.271711669921875,0.7792378215789795,0.763710582101345,-0.6832431068100034
1772025721995709400,5.28170947265625,0.8180185108721256,0.7338824300706386,-0.6764826727643609
1772025722005706500,5.29170654296875,0.8631804256349801,0.7043500461161136,-0.6714291887670755
1772025722015703600,5.30170361328125,0.8379892857551574,0.665932052655518,-0.7135333233945071
1772025722025701600,5.31170166015625,0.7519967634320258,0.5860746720865369,-0.774114633346349
1772025722035698400,5.321698486328125,0.6830635124593972,0.4871177465111017,-0.8207289388746023
1772025722045694500,5.331694580078125,0.677491265285015,0.36661417503803967,-0.9273530380770564
1772025722055692500,5.341692626953125,0.7141513091623782,0.28706688333153724,-0.9635923723243176
1772025722065689600,5.351689697265625,0.7347445998579263,0.18969021268486977,-0.9283975786939263
1772025722075686400,5.361686279296875,0.7006412547260522,0.075905720333755,-0.8291067449890077
1772025722085684500,5.3716845703125,0.6366244173675775,-0.07082476380765437,-0.6921925753325223
1772025722095681500,5.381681640625,0.5635550895035266,-0.22545067737400531,-0.574306200620532
1772025722105678600,5.3916787109375,0.49267538063824173,-0.37535482311546803,-0.4688012416411191
1772025722115676400,5.401676513671875,0.39447161151766774,-0.5038718974351882,-0.3952706894734874
1772025722125673500,5.411673583984375,0.28157646922171115,-0.6212199274867772,-0.32270591359809037
1772025722135671600,5.421671630859375,0.15704057349264622,-0.6958677567139268,-0.2623005082024261
1772025722145668600,5.431668701171875,0.03417991749942303,-0.7354121238559485,-0.2339674901003018
1772025722155665700,5.441665771484375,-0.0899158332467079,-0.7361193953424692,-0.20608009687382728
1772025722165663500,5.45166357421875,-0.21258593510389326,-0.7037678623139858,-0.22383600871898232
1772025722175660500,5.46166064453125,-0.20756255398392676,-0.6541092206537723,-0.2782218250315636
1772025722185657600,5.47165771484375,-0.13924012838602065,-0.5681307268559932,-0.3218586491189897
1772025722195655700,5.48165576171875,-0.10153495936989784,-0.5057885447114706,-0.3594605038911104
1772025722205652500,5.491652587890625,-0.09289338775277137,-0.46032589343637226,-0.397689623716101
1772025722215650600,5.501650634765625,-0.13568214364349843,-0.4140808596119284,-0.4024023314516991
1772025722225647400,5.5116474609375,-0.2904968577802181,-0.40464258465915914,-0.3672166709758341
1772025722235644700,5.521644775390625,-0.3441676576912403,-0.38827714079171416,-0.36807540669701994
1772025722245642500,5.531642578125,-0.3441805171728134,-0.37037118948400016,-0.3502591064341366
1772025722255639600,5.5416396484375,-0.4104910184264183,-0.3661950728431344,-0.34168723905235526
1772025722265636400,5.55163623046875,-0.447263875028491,-0.38635844768881794,-0.3513480707146227
1772025722275634400,5.561634521484375,-0.4065717991560697,-0.3836550339490175,-0.3871628959394991
1772025722285631500,5.571631591796875,-0.4051309526979923,-0.37353023803681135,-0.4432775818713009
1772025722295629600,5.581629638671875,-0.41376960170567034,-0.3808709561884403,-0.45676754336766895
1772025722305626600,5.591626708984375,-0.473735702368617,-0.40490211237818,-0.4356039785034954
1772025722315623400,5.60162353515625,-0.5710159269034862,-0.4241124242827296,-0.4444697873305529
1772025722325621500,5.61162158203125,-0.6509481262743473,-0.4243421413853764,-0.47004283920004963
1772025722335618600,5.62161865234375,-0.7463923675537109,-0.427865931597352,-0.5288140309900045
1772025722345616600,5.63161669921875,-0.8026707196146249,-0.4006327644959092,-0.6231389859158545
1772025722355613400,5.641613525390625,-0.7897387573271989,-0.3368073580563068,-0.6921015360482037
1772025722365610500,5.651610595703125,-0.7707447185218333,-0.313369491584599,-0.6674762864228337
1772025722375608300,5.6616083984375,-0.7685866637051105,-0.3770730252102017,-0.549700678608939
1772025722385605600,5.671605712890625,-0.8224597081899643,-0.3897700096979737,-0.4397567142687738
1772025722395602400,5.6816025390625,-0.9436439554035663,-0.28098113367706534,-0.35723917457982896
1772025722405600500,5.6916005859375,-0.9717658880382776,-0.2351037641212344,-0.3079668288234621
1772025722415597300,5.701597412109375,-0.8666419642657041,-0.3512298511624336,-0.24530754355378448
1772025722425595600,5.711595703125,-0.7863806790709496,-0.4204372429013252,-0.12976290966235102
1772025722435592400,5.721592529296875,-0.7956196320593356,-0.3818070679947734,-0.01284903324432671
1772025722445585700,5.731585693359375,-0.8268979828983545,-0.30745939075797796,0.06581942980103195
1772025722455583500,5.74158349609375,-0.8452905486792326,-0.27563801908344027,0.10808934944942593
1772025722465580800,5.751580810546875,-0.8770587288618087,-0.29862317335158584,0.09136975838206708
1772025722475577600,5.76157763671875,-0.8962497515439987,-0.2815478276491165,0.07065196452401579
1772025722485575700,5.77157568359375,-0.8330892387539148,-0.202903330001235,0.044831586829945445
1772025722495572500,5.781572509765625,-0.7336813545405865,-0.10403466723114252,0.0317669380735606
1772025722505570600,5.791570556640625,-0.6419558415234089,-0.022959143044054508,0.03574146772772074
1772025722515567600,5.801567626953125,-0.5216542223632336,0.04019114061295986,0.039714024620503184
1772025722525564700,5.811564697265625,-0.326523279929161,0.0896808554470539,0.023170447707176207
1772025722535562800,5.821562744140625,-0.1162543895959854,0.15147475605905056,0.06731668262146413
1772025722545559600,5.8315595703125,0.02374853985607624,0.21302812591344117,0.12272658128477633
1772025722555557600,5.8415576171875,0.15738251879811285,0.27383067740052935,0.19210297291502357
1772025722565554700,5.8515546875,0.33722762929499145,0.3112707657396793,0.26630525033175945
1772025722575551700,5.8615517578125,0.521834255105257,0.37896892195940013,0.30343510367795823
1772025722585549600,5.871549560546875,0.7055664361685514,0.5260384287968277,0.31568931283429263
1772025722595546600,5.881546630859375,0.8631114520519971,0.6617340164437889,0.34178112788088616
1772025722605543700,5.891543701171875,1.0769821662694214,0.6994529217243194,0.3486477257147431
1772025722615541800,5.901541748046875,1.3087819204092026,0.6614458471521735,0.36372634464204306
1772025722625538600,5.91153857421875,1.4398212066829204,0.6161468620061874,0.4273307287421077
1772025722635536600,5.92153662109375,1.5079086544811724,0.5670391322270035,0.48990350477211175
1772025722645533400,5.931533447265625,1.4788649308264255,0.5280845476716757,0.5876878063715995
1772025722655530800,5.94153076171875,1.3629670995831489,0.49797436382919547,0.72735697382465
1772025722665528600,5.951528564453125,1.2340776848196982,0.4543924117341637,0.8575555714905262
1772025722675525600,5.961525634765625,1.047775361007452,0.3739958097219467,0.9957491864982991
1772025722685522400,5.9715224609375,0.8108359058916569,0.24767887579500675,1.1622095494389533
1772025722695520500,5.9815205078125,0.5584025290459395,0.11612842512875794,1.2300332317344844
1772025722705517600,5.991517578125,0.38111119468510146,0.01314385147243738,1.2325745867803692
1772025722715515600,6.001515625,0.20150573816299439,0.003991115462779998,1.18085667450279
1772025722725512700,6.0115126953125,-0.018957798448204992,0.023987609308958054,1.095809762466699
1772025722735509800,6.021509765625,-0.23880232637822627,0.0942620457574725,0.9786009216900914
1772025722745507800,6.0315078125,-0.420197004404664,0.1947328830271959,0.8697495748922228
1772025722755504600,6.041504638671875,-0.5323521419882774,0.33054800540059803,0.7171103050984442
1772025722765501700,6.051501708984375,-0.5739262613922357,0.5022673848479986,0.5756788772132247
1772025722775499500,6.06149951171875,-0.44310324821770186,0.6359773516356945,0.4528833223454654
1772025722785496800,6.071496826171875,-0.24519758037328718,0.6807382843822241,0.3288298033058643
1772025722795494700,6.08149462890625,-0.022059856116771696,0.718243546912074,0.17963329437710343
1772025722805491700,6.09149169921875,0.23467501731514928,0.7167389875680208,0.024329627679660914
1772025722815488500,6.101488525390625,0.5427589697122573,0.6817229115054011,-0.12801219353750348
1772025722825486600,6.111486572265625,0.7954518742769956,0.6112494453534484,-0.1897412122197449
1772025722835483600,6.121483642578125,0.9066898970156908,0.49226475401073694,-0.08269625725671649
1772025722845481700,6.131481689453125,0.9068447953164577,0.29530542710572477,0.16251052933633325
1772025722855478500,6.141478515625,0.9230991800248622,0.06596241846829652,0.4167189530305564
1772025722865475600,6.1514755859375,0.9481757536143064,-0.18982465271949767,0.5611001706320792
1772025722875473700,6.1614736328125,0.9447656529098749,-0.43743221684396266,0.5998930618196725
1772025722885470700,6.171470703125,0.964569839054346,-0.6231900585159659,0.6498140807431191
1772025722895467800,6.1814677734375,0.9531202242791652,-0.7670011480793356,0.7015985554508865
1772025722905465600,6.191465576171875,0.873565041527152,-0.8638692846819758,0.728738783571869
1772025722915462700,6.201462646484375,0.7434183201789856,-0.9465516595438123,0.7988253692980856
1772025722925460500,6.21146044921875,0.5895552076786756,-1.001562183625996,0.8080937675766646
1772025722935457800,6.221457763671875,0.4453986656785011,-1.0222980976626277,0.7870998601909727
1772025722945454600,6.23145458984375,0.3244610867023468,-1.0338935506492852,0.7564494319919496
1772025722955452700,6.24145263671875,0.25837621089816093,-1.0167316957071424,0.6501541994176805
1772025722965449500,6.251449462890625,0.23526421537995337,-0.9293658392041921,0.5137071358162909
1772025722975447600,6.261447509765625,0.1844283466339111,-0.801846251489222,0.38918446489498015
1772025722985444600,6.271444580078125,0.03308043182492256,-0.7067971470072865,0.282759614591673
1772025722995441700,6.281441650390625,-0.15799392869472503,-0.6884644947201013,0.20135843864679334
1772025723005439700,6.291439697265625,-0.27879122241735455,-0.718489630627632,0.2089354497723281
1772025723015436500,6.3014365234375,-0.33985563971102234,-0.7007602049306034,0.1998641084358096
1772025723025433600,6.31143359375,-0.412086178663373,-0.6601879560455679,0.18726802703924475
1772025723035431700,6.321431640625,-0.4066863654464483,-0.6216282160267234,0.1547431832704693
1772025723045428700,6.3314287109375,-0.3473042021512985,-0.5711643954634666,0.10415091402195394
1772025723055426600,6.341426513671875,-0.3874316298782825,-0.5271586649984121,0.0941978214148432
1772025723065423600,6.351423583984375,-0.4503536577373743,-0.5197042573392391,0.12709032945223153
1772025723075420700,6.361420654296875,-0.4468775060594082,-0.5148731839209795,0.14525909641459583
1772025723085418800,6.371418701171875,-0.4216606472164392,-0.5198018724948168,0.1915753688443452
1772025723095415600,6.38141552734375,-0.4213163638234138,-0.5098930574208498,0.23645715149156749
1772025723105412600,6.39141259765625,-0.4098796085298061,-0.5146554495170712,0.2606510970275849
1772025723115410700,6.40141064453125,-0.381604531159997,-0.5394993833944202,0.28102102729603645
1772025723125407700,6.41140771484375,-0.3588882569611072,-0.5897063065871596,0.2932598196875304
1772025723135405600,6.421405517578125,-0.34454058265686033,-0.7060851993456483,0.3797751968409866
1772025723145402600,6.431402587890625,-0.3559691546440124,-0.9313537981510162,0.5267544681116938
1772025723155399700,6.441399658203125,-0.4675064525902271,-1.1028721020683645,0.6558744036953896
1772025723165397800,6.451397705078125,-0.6975093864411115,-1.0578002036765217,0.7396552413184195
1772025723175394600,6.46139453125,-0.9202472977250814,-0.9842810862183571,0.7962862792745232
1772025723185391600,6.4713916015625,-1.1124860258489846,-1.0309311937123538,0.754644282266125
1772025723195389700,6.4813896484375,-1.1997703415483236,-1.0661422078251839,0.6542860385254025
1772025723205386800,6.49138671875,-1.2321873410284518,-0.9117536101460456,0.5552002258732914
1772025723215384800,6.501384765625,-1.262368544280529,-0.6443243242204189,0.3947924044372514
1772025723225381600,6.511381591796875,-1.1542267339915036,-0.3852396727919578,0.2485608462613076
1772025723235378700,6.521378662109375,-1.0515677390277385,-0.250308055254817,0.1830571313459426
1772025723245376500,6.53137646484375,-0.9487357255846262,-0.17309855884611605,0.06372516093552112
1772025723255373800,6.541373779296875,-0.7350088037520647,-0.040733869187533855,-0.1109110192740336
1772025723265371600,6.55137158203125,-0.5294441455870866,0.11010668062120675,-0.27676214600885285
1772025723275368700,6.56136865234375,-0.3566121287226677,0.3169713154688477,-0.4108111172262579
1772025723285365500,6.571365478515625,-0.27685762400627134,0.4557882500067353,-0.47640104912035164
1772025723295363600,6.581363525390625,-0.2549386376649141,0.5406608283892274,-0.5615050981711596
1772025723305360600,6.591360595703125,-0.21788637959957122,0.6062430153682827,-0.6253424142442643
1772025723315357700,6.601357666015625,-0.0997808091789484,0.6860775995835662,-0.6568852612383663
1772025723325355500,6.61135546875,-0.020566402688622473,0.7368304662212729,-0.6888431187741458
1772025723335352600,6.6213525390625,0.02483165891766548,0.7662696189343929,-0.7307119833409785
1772025723345350700,6.6313505859375,0.1344581548064947,0.786057146205008,-0.7297882926248014
1772025723355347700,6.64134765625,0.286384746286273,0.8234563180118799,-0.7279767862234264
1772025723365344500,6.651344482421875,0.44906069531738757,0.8380316635921597,-0.7065320663303136
1772025723375342600,6.661342529296875,0.55668578825593,0.83722911503762,-0.6715260002050548
1772025723385339600,6.671339599609375,0.5258499204874039,0.8020303758844732,-0.6323343189582228
1772025723395336700,6.681336669921875,0.47624797745048997,0.7682417957901955,-0.611952186795324
1772025723405334800,6.691334716796875,0.4467319601088762,0.7344058694228529,-0.5808314742034301
1772025723415331600,6.70133154296875,0.4832873745679855,0.7128554241329431,-0.5257646533567458
1772025723425329700,6.71132958984375,0.4837959086120128,0.6757724786683916,-0.4456051480360329
1772025723435326500,6.721326416015625,0.47737727374136446,0.6451444084316492,-0.45720242765359576
1772025723445324000,6.731323974609375,0.4604126949369907,0.642434857212007,-0.47731465683393176
1772025723455321900,6.74132177734375,0.40086277385950086,0.6240767782226204,-0.4860862845715135
1772025723465319000,6.75131884765625,0.2768167074739933,0.628522067193687,-0.4719729304797947
1772025723475317000,6.76131689453125,0.19226970778405666,0.6735676621004939,-0.4612262763421982
1772025723485313800,6.771313720703125,0.14304770397543906,0.715337888598442,-0.4638122742474079
1772025723495310800,6.781310791015625,0.09937748907506465,0.7577522582188249,-0.4582983331315219
1772025723505309000,6.791308837890625,0.08984101444482803,0.747822692617774,-0.44937235508244483
1772025723515306000,6.801305908203125,0.13629179997444152,0.7067927630931139,-0.4408061502564698
1772025723525302800,6.811302734375,0.26302842061817644,0.6678320410579442,-0.44190958145372566
1772025723535300900,6.82130078125,0.4284311642646789,0.6200149356111884,-0.4593148897629231
1772025723545298000,6.8312978515625,0.589440641388297,0.5297375755757093,-0.4445271800735965
1772025723555296000,6.8412958984375,0.7130769579291343,0.4119667900674045,-0.3833411822268739
1772025723565292800,6.851292724609375,0.7525123117387295,0.29342224370762704,-0.24967227810192852
1772025723575289900,6.861289794921875,0.8001251267850399,0.13712167492732405,-0.14025087633114308
1772025723585288000,6.871287841796875,0.7833943567365408,-0.0707094668649137,-0.02122519539091736
1772025723595285000,6.881284912109375,0.6605968291074037,-0.276973943862319,0.02415562281962484
1772025723605281800,6.89128173828125,0.4889069680154323,-0.44743996224775906,-0.001227642098814249
1772025723615279900,6.90127978515625,0.3071872958183288,-0.5834205043159425,-0.016466127762943504
1772025723625277000,6.91127685546875,0.19076339487433433,-0.702791272366792,-0.015661679512262345
1772025723635275000,6.92127490234375,0.13403788356781005,-0.7625657959803939,-0.05938647414408624
1772025723645271800,6.931271728515625,0.10678162785172461,-0.7442989024057984,-0.11364796995725482
1772025723655268900,6.941268798828125,0.10787819091677665,-0.7018611519098281,-0.18513280510883778
1772025723665267000,6.951266845703125,0.13796703971028326,-0.6370705536998807,-0.30171237153857944
1772025723675264000,6.961263916015625,0.17357728227376937,-0.6103535194270312,-0.39730953835733235
1772025723685262000,6.971261962890625,0.18092004625201225,-0.5900656414188444,-0.41097960566096003
1772025723695259000,6.9812587890625,0.16920856567025183,-0.5261528489567339,-0.3818421393081546
1772025723705256000,6.991255859375,0.12550970919728277,-0.47322556088939305,-0.36603421972561623
1772025723715253800,7.001253662109375,0.09431845211982727,-0.4598078609116375,-0.38062279011365024
1772025723725251000,7.0112509765625,0.055180035430192946,-0.44688013640791174,-0.42593207745794204
1772025723735248000,7.021247802734375,0.03824877437353134,-0.44979514707177876,-0.4694358497502282
1772025723745246000,7.031245849609375,-0.015613164195418357,-0.45765930457562204,-0.46131760788746173
1772025723755242800,7.04124267578125,-0.0968394950300455,-0.4581083635173738,-0.4368083127919584
1772025723765240800,7.05124072265625,-0.17122341262400148,-0.4630335449598729,-0.4726746124757453
1772025723775238000,7.06123779296875,-0.2532218968749046,-0.4284260496981442,-0.5203569125616923
1772025723785235000,7.07123486328125,-0.28531390218436714,-0.4125210629492998,-0.5671395238615572
1772025723795233000,7.08123291015625,-0.2535948218405247,-0.3926850203618407,-0.594264225619845
1772025723805229800,7.091229736328125,-0.2731868265390396,-0.37570027555227276,-0.579418100274168
1772025723815228000,7.101227783203125,-0.3525549622863531,-0.367683119443804,-0.5798323801634833
1772025723825225000,7.111224853515625,-0.384745167273283,-0.3610673545658588,-0.5962821413135155
1772025723835222000,7.121221923828125,-0.37426293622553347,-0.3534153785079717,-0.6251764100275934
1772025723845219800,7.1312197265625,-0.4000555491298437,-0.3248682061985135,-0.6545548455294221
1772025723855217000,7.141216796875,-0.36272681221067904,-0.2650951438896358,-0.6375025153763592
1772025723865214000,7.1512138671875,-0.46184828069806094,-0.12824775585904716,-0.629687603841722
1772025723875212000,7.1612119140625,-0.6349865870326757,-0.19624182628542183,-0.6873433817356824
1772025723885208800,7.171208740234375,-0.583677840077877,-0.3922203254595399,-0.603466353729181
1772025723895207000,7.18120703125,-0.5721171661436557,-0.44886005817875263,-0.5078865764366463
1772025723905203700,7.19120361328125,-0.7212251930713653,-0.21919176310971378,-0.4450199320266023
1772025723915201000,7.201200927734375,-0.8113701588988304,-0.02738017435669899,-0.3722669401027262
1772025723925198800,7.21119873046875,-0.8049252205431461,-0.07566343601047992,-0.35336014118939635
1772025723935196000,7.22119580078125,-0.7920195617407559,-0.17523264826536178,-0.32563685248345137
1772025723945192700,7.231192626953125,-0.8488198918491602,-0.14354600888639688,-0.29481990861110385
1772025723955190800,7.241190673828125,-0.8850731084913015,-0.04229775750339031,-0.22546046811565756
1772025723965187800,7.251187744140625,-0.9151794929414987,-0.026736761886626482,-0.18039236911609768
1772025723975186000,7.26118603515625,-0.9308072701841592,-0.11181918362751603,-0.133548857941851
1772025723985183000,7.271182861328125,-1.0151683919131755,-0.1706543805643916,-0.043160219551622865
1772025723995179800,7.2811796875,-1.18866150303483,-0.1366590258516371,0.024272198403999207
1772025724005177900,7.291177734375,-1.3253075232744216,-0.03361030091792345,0.03680478611029684
1772025724015175000,7.3011748046875,-1.3677619326442478,0.0797732094168663,-0.0017514467772096393
1772025724025173000,7.311173095703125,-1.3228782503008842,0.17129969273060558,-0.07707951335348188
1772025724035169800,7.321169677734375,-1.1578788267582654,0.2985178132809698,-0.15092793583124875
1772025724045166800,7.331166748046875,-0.9634200844973325,0.445283222605288,-0.15882731077894569
1772025724055165000,7.3411650390625,-0.7512590968072413,0.586757101392746,-0.15263985431566834
1772025724065162000,7.351161865234375,-0.4464484669923782,0.743751205395162,-0.18994601407684383
1772025724075158800,7.36115869140625,-0.06909750162363051,0.9029910424977541,-0.20535700676366686
1772025724085156900,7.371156982421875,0.3278039673894644,1.0604146239586174,-0.20150259635783732
1772025724095154000,7.38115380859375,0.6812947492212057,1.1372488573141395,-0.14365304945744573
1772025724105152000,7.391152099609375,1.0008160414338112,1.127347202633321,-0.037262905141338704
1772025724115148800,7.401148681640625,1.2456763526767491,1.0829453124575317,0.12961071477532385
1772025724125145900,7.411145751953125,1.4283955573052167,1.0301926503047347,0.31252186177931723
1772025724135144000,7.42114404296875,1.516975173512101,1.05296357730031,0.4389355340790003
1772025724145141000,7.43114111328125,1.5032260496228933,0.941561303910613,0.5687541925165802
1772025724155139000,7.44113916015625,1.3273393213629723,0.6944403542593122,0.733847212626785
1772025724165136000,7.451135986328125,1.1163187358796596,0.5267027379244565,0.9342042191460728
1772025724175133000,7.4611328125,0.9917278950929641,0.446639021128416,1.0710048454254866
1772025724185130800,7.471130859375,0.9241437206417321,0.4178051408320665,1.0836047992795705
1772025724195128000,7.481128173828125,0.8884376164883374,0.3530696338102221,1.039249378594011
1772025724205126000,7.4911259765625,0.764900668668747,0.21272242096513508,1.0103015165291727
1772025724215123000,7.501123046875,0.5608914232522249,0.12096212889552116,0.9982426107492297
1772025724225119700,7.51111962890625,0.33644846161603925,0.12229600784778594,0.9862186301521957
1772025724235117800,7.521117919921875,0.120624859765172,0.17486323043107985,0.9511263470482081
1772025724245115000,7.531114990234375,-0.13690028726160525,0.2371370235145092,0.8895713697586208
1772025724255112000,7.54111181640625,-0.37655718464255333,0.300540112888813,0.7894092331118882
1772025724265109800,7.55110986328125,-0.4999509245991707,0.3459060257911682,0.6021474896829575
1772025724275106800,7.56110693359375,-0.5100993936479091,0.4046028371706605,0.4164728693149984
1772025724285105000,7.57110498046875,-0.4709878649652004,0.45725627673268315,0.2949706421934068
1772025724295102000,7.58110205078125,-0.37864568135440346,0.4778057282865047,0.22138576602265236
1772025724305099000,7.59109912109375,-0.20141221466064452,0.46300051947310567,0.2311248505529016
1772025724315096800,7.601096923828125,0.07091127304732799,0.3964855816885829,0.19575864587835967
1772025724325094000,7.611093994140625,0.30324411115050315,0.3100653354726732,0.15212474440038204
1772025724335091000,7.621091064453125,0.43079146365523335,0.2375564179703593,0.17248225357867777
1772025724345089000,7.631089111328125,0.4660018932461738,0.10730930498763919,0.3207947462145239
1772025724355085800,7.6410859375,0.5348287612348794,-0.08786167719587683,0.5061367005620151
1772025724365084000,7.651083984375,0.6276321326166391,-0.27412147704064843,0.6353104852247983
1772025724375080700,7.661080810546875,0.6139502287447453,-0.4241366819411516,0.7483856602627783
1772025724385078000,7.671078125,0.629046091067791,-0.5472036741614341,0.8137298737674951
1772025724395075800,7.681075927734375,0.659488575604558,-0.6567606119453907,0.9022693040944635
1772025724405073000,7.691072998046875,0.6201204418122768,-0.7448530291572213,0.9799339238595217
1772025724415071000,7.701071044921875,0.5763584569752216,-0.821317990808934,1.0392323543939739
1772025724425067800,7.71106787109375,0.5915735617637634,-0.8756767729841172,1.0383713536504655
1772025724435064800,7.72106494140625,0.5443471156865358,-0.9121106068901718,1.0581254170428962
1772025724445063700,7.731063720703125,0.4665840770483017,-0.8862634873196482,1.054528342399001
1772025724455060500,7.741060546875,0.47557753084301946,-0.8138048386998474,0.9929971843764185
1772025724465057500,7.7510576171875,0.5266308417320251,-0.7237719549447298,0.8807114061504602
1772025724475055400,7.761055419921875,0.5201175143152476,-0.6365761943116783,0.76291102922149
1772025724485052700,7.771052734375,0.4390758923977613,-0.5575586255677044,0.674577642860636
1772025724495050800,7.78105078125,0.35985505616664887,-0.48672450940981504,0.6459062596496195
1772025724505047600,7.791047607421875,0.3248082927048206,-0.44559740312099455,0.6384308092024177
1772025724515044400,7.80104443359375,0.2809545379310846,-0.4153998332560062,0.6180064453329891
1772025724525042400,7.81104248046875,0.22848434598147868,-0.40205972855910654,0.5913168835889547
1772025724535039700,7.821039794921875,0.10769815817475319,-0.40151539254933594,0.5979502571888268
1772025724545037600,7.83103759765625,-0.06855038913488387,-0.3873369373321533,0.6175466458015143
1772025724555034600,7.84103466796875,-0.19625088637471197,-0.36764483326002956,0.6092430739670992
1772025724565031400,7.851031494140625,-0.24981822591125963,-0.37089711305424566,0.5976763356182724
1772025724575029500,7.861029541015625,-0.376988561797142,-0.4241942573472857,0.6237753110580146
1772025724585026600,7.871026611328125,-0.4865718030661344,-0.4754775775998831,0.6355158716037869
1772025724595023600,7.881023681640625,-0.486520365139842,-0.43737128043696283,0.5916315024960785
1772025724605021400,7.891021484375,-0.45948622774183745,-0.37824031542390585,0.5294602930042892
1772025724615018500,7.9010185546875,-0.5087088160723447,-0.3432192709252238,0.501863407156989
1772025724625016600,7.9110166015625,-0.5089554843097925,-0.3434070485822856,0.49319041748829184
1772025724635013600,7.921013671875,-0.5033791454821824,-0.3830892167598009,0.45704146493822334
1772025724645010400,7.931010498046875,-0.5119324542939663,-0.44113720884174107,0.46043410305120047
1772025724655008500,7.941008544921875,-0.49976563116014,-0.5364147152520716,0.4881372257519513
1772025724665005600,7.951005615234375,-0.4776584287703037,-0.7086908517993986,0.5465641706814989
1772025724675003600,7.961003662109375,-0.5166220734149217,-0.8953818826682866,0.6343271002106368
1772025724685000700,7.971000732421875,-0.6211918704360723,-0.8721893692597746,0.639388840579614
1772025724694997500,7.98099755859375,-0.6811626472741366,-0.534127481097728,0.6045738765796647
1772025724704995600,7.99099560546875,-0.6425105527967214,-0.3144806676968932,0.516852301974222
1772025724714992600,8.00099267578125,-0.5869757125794888,-0.4308132370956242,0.3836759671391919
1772025724724990700,8.01099072265625,-0.5611532890588045,-0.5649959359616041,0.34992304288018494
1772025724734987500,8.020987548828124,-0.5132230786263943,-0.5213811045102775,0.3654013286495581
1772025724744984600,8.030984619140625,-0.42460137684345245,-0.31956045517921444,0.3319864041732624
1772025724754982400,8.040982421875,-0.3519967438817024,-0.12432342202216386,0.2641742661850527
1772025724764979700,8.050979736328125,-0.28815058691501616,-0.06299333952963351,0.1387214017415419
1772025724774976500,8.0609765625,-0.2803156555056572,-0.04807882512286305,0.04098269284944981
1772025724784974600,8.070974609375,-0.3444692709863186,0.0013540449574589728,-0.02306395512539893
1772025724794971400,8.080971435546875,-0.41151217816770075,0.08597542505785823,-0.07099157174192369
1772025724804969500,8.090969482421874,-0.41761750930547714,0.15954612657278774,-0.15522128564361481
1772025724814966500,8.100966552734375,-0.38289047931730746,0.2604122467704117,-0.24088486827332525
1772025724824963600,8.110963623046874,-0.3576701133430004,0.39289062593653795,-0.3269577988889068
1772025724834961700,8.120961669921876,-0.3703916477501392,0.5272904746845364,-0.38704230176713317
1772025724844958500,8.13095849609375,-0.3655179042339325,0.6802770966112613,-0.5070588203756138
1772025724854956500,8.14095654296875,-0.28395079713761806,0.7950495770864188,-0.6354414181280881
1772025724864953600,8.15095361328125,-0.16206278556883333,0.9047535221256315,-0.7614175027281046
1772025724874950700,8.16095068359375,-0.041025253349542615,0.9850628842458128,-0.8354075986988841
1772025724884948500,8.170948486328125,0.11364566840231417,0.9422869878366589,-0.8938956626985222
1772025724894945500,8.180945556640625,0.26357787119448184,0.8910779018640518,-0.9390276207145303
1772025724904942600,8.190942626953126,0.33067104725837704,0.8682862243413925,-0.9329250660557299
1772025724914940700,8.200940673828125,0.3261164526939392,0.8065919847115873,-0.8816760864641517
1772025724924937500,8.2109375,0.3472229536086321,0.7073243857517838,-0.8642984698794781
1772025724934935600,8.220935546875,0.35279636982679363,0.6200894621521235,-0.8461394936587661
1772025724944932400,8.230932373046874,0.30918168450593947,0.5498416214495897,-0.7995646433580667
1772025724954929700,8.2409296875,0.3096814507216215,0.5098685075014829,-0.7886084381230175
1772025724964927700,8.250927734375,0.4081412404298782,0.4898901338338852,-0.8234053915422409
1772025724974924500,8.260924560546876,0.49857788268029685,0.44728374877274035,-0.8585705206867307
1772025724984922600,8.270922607421875,0.5653665228396654,0.3633084114909172,-0.8492075759924947
1772025724994919400,8.28091943359375,0.5662672710716724,0.2509115741059184,-0.7774241232205182
1772025725004916700,8.290916748046875,0.5196043040961027,0.16535510511249302,-0.7248271630860865
1772025725014914600,8.30091455078125,0.40602936284244057,0.19304682963639497,-0.6883386763833462
1772025725024911600,8.31091162109375,0.285573429903388,0.24256401699930427,-0.6091684012956917
1772025725034908400,8.320908447265625,0.18037877898216245,0.21324995197057722,-0.6133912796877324
1772025725044906500,8.330906494140624,0.12260229731798171,0.17005597627982497,-0.6683581838238984
1772025725054903600,8.340903564453125,0.09944061743915081,0.19697773934453724,-0.7635974771156907
1772025725064901600,8.350901611328124,0.015028057783842086,0.30619200117066503,-0.8316600827336311
1772025725074898400,8.3608984375,-0.025374679753184318,0.39309301664084195,-0.8437493105866014
1772025725084895500,8.3708955078125,0.04051087408661842,0.37326150409802794,-0.861027485384792
1772025725094893600,8.3808935546875,0.12906827846169472,0.30051950849220155,-0.8817895567759871
1772025725104890600,8.390890625,0.24325989030897616,0.24418752654790876,-0.8979346358910203
1772025725114888700,8.400888671875,0.37593291526436806,0.1977976774252951,-0.9283983093462884
1772025725124885500,8.410885498046875,0.43451720618009565,0.11442001377567648,-0.9224834592793136
1772025725134882600,8.420882568359374,0.41365152828395363,0.016966770761460064,-0.868950095077604
1772025725144880600,8.430880615234376,0.30972645890712736,-0.10566080712825059,-0.7302680389657616
1772025725154877700,8.440877685546875,0.17865443940758705,-0.2504020171485841,-0.6007733517855406
1772025725164875500,8.45087548828125,0.08860884230136871,-0.4052700689077377,-0.5437336599633097
1772025725174872600,8.46087255859375,0.06239888076782226,-0.5023303670816123,-0.5275976044049486
1772025725184869600,8.47086962890625,0.08246610176265239,-0.5167652812778949,-0.4942736461477354
1772025725194867700,8.48086767578125,0.093929160541296,-0.5177081150859594,-0.44665644718725234
1772025725204864500,8.490864501953125,0.1257826809197664,-0.5273059645146131,-0.43968894626218824
1772025725214861600,8.500861572265626,0.158570267277956,-0.5277044623129069,-0.48560668436102566
1772025725224859400,8.510859375,0.18055530459284783,-0.5046190625406801,-0.5615146331844851
1772025725234856700,8.520856689453124,0.20126783775389193,-0.4413599116817116,-0.6016523631097749
1772025725244854500,8.5308544921875,0.21545769114792346,-0.37338659178242084,-0.6098840387517586
1772025725254851600,8.5408515625,0.2701841375917196,-0.34588907465636726,-0.619910817649588
1772025725264848400,8.550848388671875,0.36969197504818435,-0.3434593632914126,-0.6078001086171716
1772025725274846500,8.560846435546875,0.3846849615186453,-0.3353726490780711,-0.5865806853799149
1772025725284843500,8.570843505859376,0.37820962802469726,-0.36830519686490293,-0.558845304377377
1772025725294841600,8.580841552734375,0.40656653845906254,-0.4194590455189347,-0.5071845291145145
1772025725304838700,8.590838623046874,0.4355751908004284,-0.4748359186954796,-0.5016575823865831
1772025725314835500,8.60083544921875,0.4475421074479818,-0.5156156728513539,-0.505593898922205
1772025725324833500,8.61083349609375,0.4008119204550981,-0.5705383725196123,-0.43770949941538273
1772025725334830600,8.62083056640625,0.2403571546047926,-0.6100540980890393,-0.41808717264384027
1772025725344827600,8.63082763671875,0.08823241020441054,-0.6597694383725523,-0.4999398186832666
1772025725354825500,8.640825439453126,0.009319032487273216,-0.7497301336742938,-0.5979330868583173
1772025725364822500,8.650822509765625,0.02368190436065197,-0.7748192744843662,-0.6665946082174777
1772025725374820400,8.6608203125,0.03531681257486343,-0.7292240828707813,-0.6586033902678639
1772025725384817700,8.670817626953125,-0.011588146463036537,-0.6949471347376703,-0.632886107622087
1772025725394814500,8.680814453125,-0.0843044231057167,-0.7020508292630314,-0.5943004294443875
1772025725404812500,8.6908125,-0.10226678077578544,-0.6787852506183087,-0.605139949497208
1772025725414809300,8.700809326171875,-0.17033552387356757,-0.6125451842524111,-0.6103924631979316
1772025725424807400,8.710807373046874,-0.2547305478721857,-0.5451606240265071,-0.6551427284199745
1772025725434804700,8.7208046875,-0.2859533691316843,-0.51844373588413,-0.7046318587321788
1772025725444800300,8.73080029296875,-0.28292379217743874,-0.4850099605768919,-0.7215812399674206
1772025725454798300,8.74079833984375,-0.36555005293786524,-0.39809900823459027,-0.7082098633494228
1772025725464795400,8.75079541015625,-0.4476420606911182,-0.2985295037187636,-0.716918581918627
1772025725474793500,8.76079345703125,-0.5179553678452968,-0.27270181950107214,-0.7031364325426519
1772025725484790300,8.770790283203125,-0.5976666179418564,-0.3503380168892443,-0.651432548790425
1772025725494787300,8.780787353515626,-0.728672586467862,-0.37057840249389407,-0.6216719090379774
1772025725504785400,8.790785400390625,-0.8343278406381607,-0.27042832161113617,-0.6056760291352867
1772025725514782500,8.800782470703124,-0.9376555286437273,-0.17661416575163602,-0.5898469571668654
1772025725524779300,8.810779296875,-1.0731044480532408,-0.21907968103736639,-0.5927465510658919
1772025725534777300,8.82077734375,-1.2392483654558657,-0.320269041839987,-0.5703760215647519
1772025725544774400,8.8307744140625,-1.344656366866827,-0.27322496659234163,-0.5320432952348143
1772025725554772500,8.8407724609375,-1.4416501756757496,-0.028348288736492394,-0.5203051458418368
1772025725564769500,8.85076953125,-1.4210229827105998,0.17769275476858018,-0.5565514943517744
1772025725574766300,8.860766357421875,-1.2749340113431213,0.2855760602518916,-0.5668548617012799
1772025725584764400,8.870764404296875,-1.1005798994779585,0.41351518855318425,-0.4315405284568667
1772025725594761500,8.880761474609375,-0.9316308615267276,0.535924447517097,-0.2917903316568583
1772025725604759600,8.890759521484375,-0.7359598208665847,0.6317800460763275,-0.22817436671685426
1772025725614756400,8.90075634765625,-0.4750877014994621,0.6278244403183459,-0.07638269019573926
1772025725624753400,8.91075341796875,-0.25566519837379453,0.5902887826502323,0.04104863422513008
1772025725634751200,8.920751220703124,-0.12990882093906403,0.5527551708087325,0.1382757768658921
1772025725644748500,8.93074853515625,-0.09093056324720382,0.48008638656958935,0.18246121127940712
1772025725654745300,8.940745361328124,-0.04048515512347221,0.36305662868693467,0.18433759961053728
1772025725664743400,8.950743408203126,0.05304828409850597,0.2106507292576134,0.20752072413619607
1772025725674740200,8.960740234375,0.09082067313194274,0.10005465768426657,0.25044348167013375
1772025725684738300,8.97073828125,0.15351356841027736,0.02078632904961705,0.3062210080694407
1772025725694735400,8.9807353515625,0.23639877236783502,-0.0150612294010818,0.3432560227390378
1772025725704732400,8.990732421875,0.3238753957688808,0.002656798119097948,0.40020325050484384
1772025725714730500,9.00073046875,0.43458734880685806,0.031029344514012337,0.4960398521026596
1772025725724727300,9.010727294921875,0.5634107125967741,0.08031316151246427,0.6010150150543079
1772025725734725400,9.020725341796876,0.6364297715783119,0.12120441321879624,0.7081023113217204
1772025725744722400,9.030722412109375,0.7188450199365616,0.147046418222785,0.8273106553524732
1772025725754719500,9.040719482421874,0.8197878586322068,0.16271832686811685,0.9021978462934493
1772025725764717300,9.05071728515625,0.9167255533397197,0.1600540760949254,0.9710868197329342
1772025725774714400,9.06071435546875,0.9352379461079835,0.13873510147333146,1.051821567658335
1772025725784712200,9.070712158203126,0.9190887753397226,0.13884732967615127,1.0853453593365847
1772025725794709500,9.08070947265625,0.8728869961351156,0.14629559985548257,1.1187965972352771
1772025725804706300,9.090706298828126,0.7514028891921043,0.07761851560100913,1.1208813676200806
1772025725814704400,9.100704345703125,0.6058353113502264,-0.018975187974423168,1.0923162212625146
1772025725824701200,9.110701171875,0.4988678055375814,-0.11681626126244664,1.0694621460281313
1772025725834698500,9.120698486328125,0.3884510360538959,-0.20093246831968425,1.1010665139511226
1772025725844696300,9.1306962890625,0.270968565967679,-0.258814310054481,1.1118138256758452
1772025725854693400,9.140693359375,0.18969547338187692,-0.2857705599106848,1.1012181973814963
1772025725864691500,9.15069140625,0.11851707383096217,-0.21052827192172407,1.0747341681469231
1772025725874688500,9.1606884765625,-0.028354572346806526,-0.07428717922121286,1.007252504222095
1772025725884685300,9.170685302734375,-0.16753975567519663,0.030217151348292826,0.9216879980526864
1772025725894683400,9.180683349609374,-0.26067630453407764,0.12793562116995452,0.7720597466431558
1772025725904680400,9.190680419921875,-0.3247697142601013,0.2534609663277864,0.5872740379389375
1772025725914678300,9.20067822265625,-0.35493747350871563,0.36113384393081066,0.4544731853527948
1772025725924675600,9.210675537109376,-0.30503157908916473,0.4096862779147923,0.35110034303124993
1772025725934672400,9.22067236328125,-0.1597644454985857,0.4331052935555577,0.31492782694250343
1772025725944670500,9.23067041015625,-0.0429781409829855,0.43187355980351566,0.21639318189974874
1772025725954667300,9.240667236328125,0.074178750410676,0.4193133534379303,0.12347758231516927
1772025725964665300,9.250665283203125,0.1762257509559393,0.3688905955374241,0.14866375375892965
1772025725974662400,9.260662353515626,0.2513198626458645,0.2702164324261248,0.2329718301264569
1772025725984659500,9.270659423828125,0.36701837192475795,0.14978008097037673,0.4264474431015551
1772025725994657300,9.2806572265625,0.46095688481628894,-0.0015722177527844904,0.6149338329546153
1772025726004654300,9.290654296875,0.5007452898472547,-0.12226561270952224,0.7147321777902543
1772025726014651400,9.3006513671875,0.5325514639526605,-0.21664441671445964,0.7653688707023859
1772025726024649500,9.3106494140625,0.5294383003681897,-0.3326601752489805,0.835115045493096
1772025726034646500,9.320646484375,0.5035977566689253,-0.4464633723005652,0.8954175385035574
1772025726044644400,9.330644287109376,0.4835135845392942,-0.5124629079088568,0.9405442358225583
1772025726054641400,9.340641357421875,0.42456630553007124,-0.5395940759405493,1.0001740902684628
1772025726064638500,9.350638427734374,0.3828361187815666,-0.5591385882355272,0.9770340376995503
1772025726074636500,9.360636474609375,0.34656069030761716,-0.5618173059254884,0.8342999297179281
1772025726084633300,9.37063330078125,0.3121083856076002,-0.5436543111167847,0.6755311441931873
1772025726094631400,9.38063134765625,0.25576105996370313,-0.49263782510682935,0.514376048053801
1772025726104628200,9.390628173828125,0.16904606858491897,-0.4348543291799724,0.3967097093006596
1772025726114625500,9.40062548828125,0.12130115159153937,-0.4105060698650777,0.34647677488382905
1772025726124623400,9.410623291015625,0.09278525120317935,-0.39505335692837834,0.31537257503531874
1772025726134620400,9.420620361328124,0.09028875821232796,-0.3727992934137583,0.3089098818272352
1772025726144618500,9.430618408203125,0.05929273144602775,-0.37185266021341085,0.33618838590774686
1772025726154615300,9.440615234375,-0.007938391783833503,-0.37154227908998727,0.342710554218106
1772025726164612400,9.4506123046875,-0.07260930913686751,-0.3474833581104874,0.36946554588116703
1772025726174610400,9.4606103515625,-0.15356325277090072,-0.3248809195496142,0.4022058590315282
1772025726184607500,9.470607421875,-0.2605675834625959,-0.2780367507882416,0.423596510649845
1772025726194604300,9.480604248046875,-0.35152328115105624,-0.24726152716577052,0.4227346331235021
1772025726204602400,9.490602294921874,-0.41931086921989913,-0.2510635497972369,0.3966564082108438
1772025726214599400,9.500599365234375,-0.46038580693006514,-0.21877631417661905,0.3856249457824975
1772025726224597500,9.510597412109375,-0.4887988314658403,-0.1676521300084889,0.36634032653272147
1772025726234594300,9.52059423828125,-0.47122401180863377,-0.11710033890083431,0.34180670071355995
1772025726244591400,9.53059130859375,-0.4592658629894256,-0.09692395844310521,0.33746794085688886
1772025726254589400,9.54058935546875,-0.43115211366116996,-0.12248524680957197,0.3290083382105455
1772025726264586500,9.55058642578125,-0.3678115681290626,-0.19032602637037635,0.3694793186781928
1772025726274584300,9.560584228515625,-0.3395090182304382,-0.40013212149739263,0.47840877221357075
1772025726284581400,9.570581298828126,-0.3759077808231115,-0.7064369353927672,0.6216130184575915
1772025726294578400,9.580578369140625,-0.47686815517544745,-0.8169185868062079,0.7287021778885274
1772025726304576500,9.590576416015624,-0.60277007856071,-0.7574943379350007,0.7878564507119357
1772025726314573300,9.6005732421875,-0.7229167994201183,-0.7506051629431545,0.7926262954622506
1772025726324571400,9.6105712890625,-0.8493389472872018,-0.8314234974987804,0.8383841302916407
1772025726334568400,9.620568359375,-0.9141238464087247,-0.8484574882775545,0.6965133611410855
1772025726344565500,9.6305654296875,-0.8831564612150192,-0.714616296325624,0.5105499869596213
1772025726354563600,9.6405634765625,-0.7800508915275335,-0.4835094928860664,0.3353548942256719
1772025726364560400,9.650560302734375,-0.6158867497652769,-0.24806188376322388,0.18897315045669674
1772025726374558500,9.660558349609374,-0.3982558062314987,-0.10668737369701266,0.12610617725308984
1772025726384555300,9.67055517578125,-0.20479133570492267,0.049089463470131156,0.05939180790632963
1772025726394552600,9.680552490234374,-0.029817630636692044,0.19449834361895918,-0.09877601605057716
1772025726404550400,9.69055029296875,0.11828618768453597,0.2749858387850225,-0.21296141735278068
1772025726414547500,9.70054736328125,0.15651567283570766,0.3134716367848217,-0.26396413056571033
1772025726424544300,9.710544189453126,0.1910644236475229,0.29672903016805646,-0.25573618125077335
1772025726434542300,9.720542236328125,0.21664485510587692,0.27158479816988107,-0.22485048299115148
1772025726444540000,9.730539794921874,0.21568390111923216,0.33033202456235883,-0.23091321709621696
1772025726454538000,9.7405380859375,0.19479601139128208,0.4053019253507256,-0.277013106828928
1772025726464535000,9.75053515625,0.1670832440793514,0.4025527727730572,-0.30653701521605253
1772025726474531800,9.76053173828125,0.17203940518200397,0.3549083935447037,-0.28218663700930774
1772025726484530000,9.770530029296875,0.13759820639789103,0.45011546506732697,-0.2508333943031728
1772025726494527000,9.78052685546875,0.10029226583242416,0.6049364628143609,-0.256234084302932
1772025726504525000,9.790525146484375,0.049560441982746124,0.6110045306816697,-0.2375622631892562
1772025726514521900,9.80052197265625,-0.03939151466786861,0.5966764378607273,-0.2315622190568596
1772025726524519000,9.810518798828125,-0.11727087316215037,0.6615615824863315,-0.21529767828062177
1772025726534516700,9.820516845703125,-0.12769348297715186,0.7524304786741733,-0.18319807418659328
1772025726544514000,9.83051416015625,-0.0814981335133314,0.8299231759384273,-0.19524390128925442
1772025726554512000,9.840511962890625,-0.07049684702754021,0.8539474639959633,-0.18857786752879618
1772025726564509000,9.850509033203124,-0.08261340127885342,0.82728873578161,-0.17496990567594767
1772025726574505700,9.860505615234375,-0.06287351254224777,0.7837064914256334,-0.17861461885385213
1772025726584503800,9.87050390625,-0.04929682261049747,0.7574281408309936,-0.16187266982421278
1772025726594500900,9.8805009765625,-0.142370827627182,0.7265282679155468,-0.11889620934166013
1772025726604498000,9.890497802734375,-0.24116730194389818,0.7223609191030264,-0.13114318503960967
1772025726614496000,9.90049609375,-0.1817366233319044,0.7592807829603553,-0.14702234322745353
1772025726624492800,9.910492919921875,-0.16738661094009874,0.7777481675431132,-0.1285536434704438
1772025726634491000,9.920490966796875,-0.15863807181715964,0.7921138158954679,-0.05194828696735203
1772025726644488000,9.930488037109376,-0.04747779048979282,0.7770289133578538,0.021491481644287703
1772025726654486000,9.940486083984375,0.21947043392062185,0.7271935999564826,0.001533821971155703
1772025726664483800,9.95048388671875,0.5925637418448925,0.5952158637888729,0.01897931616026908
1772025726674481000,9.96048095703125,0.8214888173311948,0.48782019569203255,-0.009638254504278302
1772025726684477700,9.970477783203124,1.0514356370806694,0.37943200942650435,0.0321187106532976
1772025726694475800,9.980475830078126,1.335952251407504,0.2482645667284727,0.1722988598357886
1772025726704472800,9.990472900390625,1.3612766622781753,0.12776157977730035,0.2452795413020067
1772025726714470000,10.000469970703126,1.1760475206553935,-0.0169433898858726,0.265311490054056
1772025726724468000,10.010468017578125,0.9262544291853905,-0.16329086605906484,0.26698499449053775
1772025726734464800,10.02046484375,0.7521580914735794,-0.23922668927013874,0.21036869744583964
1772025726744462800,10.030462890625,0.6760796449214219,-0.3082989103220403,0.1311366457009688
1772025726754460000,10.0404599609375,0.5720996304869651,-0.45331981406658883,0.09032695306455715
1772025726764457000,10.05045703125,0.44614217752218244,-0.561661530841887,0.024528657383099197
1772025726774454800,10.060454833984375,0.29584523307085037,-0.6429217639461159,-0.05786805523803923
1772025726784451800,10.070451904296876,0.11714403191208839,-0.6401886857204139,-0.019919428288284687
1772025726794450000,10.080449951171875,-0.03683072426915168,-0.615035247502476,0.06089059509672224
1772025726804447000,10.090447021484374,0.01136836623251438,-0.6102832306697964,0.09003644568538292
1772025726814443800,10.10044384765625,0.14207330598533152,-0.6241602187223733,0.08082633519899099
1772025726824441900,10.11044189453125,0.11985972061157225,-0.6105640934377908,0.1879069825299084
1772025726834439000,10.12043896484375,0.0627852497369051,-0.5782016006238758,0.33615411831196396
1772025726844437000,10.13043701171875,0.0773766696691513,-0.5748065513581038,0.47044415000993756
1772025726854433800,10.140433837890624,-0.040005847173929215,-0.607701105222106,0.594341820900701
1772025726864430800,10.150430908203125,-0.21919278602302072,-0.6626967239961028,0.6215056125603616
1772025726874429000,10.160428955078125,-0.378083371296525,-0.7009189026236534,0.5991912336932494
1772025726884426000,10.170426025390626,-0.44506548820137976,-0.687181030780822,0.5109164821844547
1772025726894424000,10.180424072265625,-0.4739852932155132,-0.6045392801903188,0.4451456042328849
1772025726904420900,10.1904208984375,-0.4520136999040842,-0.4852614511199295,0.3767239560442045
1772025726914418000,10.20041796875,-0.4774760579407215,-0.3651191141746938,0.2876957192869857
1772025726924415700,10.210415771484374,-0.5701251155436039,-0.3256453280508518,0.2179187474992126
1772025726934413000,10.2204130859375,-0.6648211688041686,-0.327426073987782,0.12787289466466753
1772025726944409900,10.230409912109375,-0.7316723528057336,-0.2579623694002628,0.014986995121091603
1772025726954408000,10.240407958984376,-0.7874924397051334,-0.1355085406422615,-0.08927421087492257
1772025726964404700,10.25040478515625,-0.8252326800346375,-0.054513534345477815,-0.1676832557991147
1772025726974402800,10.26040283203125,-0.8039823867350816,0.03405278398841619,-0.25637360237147655
1772025726984400000,10.27039990234375,-0.7798907325297594,0.10293722738325595,-0.37288974817618725
1772025726994397000,10.28039697265625,-0.770821875411272,0.07950505999997258,-0.4599022611968219
1772025727004395000,10.29039501953125,-0.7496177593410015,-0.06041881286650896,-0.44531179111264646
1772025727014391800,10.300391845703125,-0.7304355044871568,-0.06950082172751426,-0.3495335686385631
1772025727024390000,10.310389892578126,-0.6893517989486455,0.15051058720201252,-0.2632502101426944
1772025727034387000,10.320386962890625,-0.6591355243831872,0.33165465146824713,-0.12596490561887622
1772025727044384000,10.330384033203124,-0.6232903040200471,0.3670836922459304,-0.10711034834943711
1772025727054381800,10.3403818359375,-0.5413298136919736,0.3489408634424209,-0.10145444147959351
1772025727064379000,10.35037890625,-0.3952046019673347,0.34448256885930895,-0.09671579558514058
1772025727074376700,10.360376708984376,-0.25018764374554153,0.3617760873571038,-0.07373626734018325
1772025727084374000,10.3703740234375,-0.15826631589531898,0.42112332546934483,0.02638078805580735
1772025727094370800,10.380370849609376,-0.00916062705516815,0.445437097992748,0.2336651096202433
1772025727104369000,10.390368896484375,0.10307166741788387,0.4290174397200346,0.47737186691388483
1772025727114365700,10.40036572265625,0.0734381611764431,0.3919017610296607,0.649240153312683
1772025727124363800,10.41036376953125,-0.07267243750095367,0.3021130612939596,0.6718066437773406
1772025727134360800,10.42036083984375,-0.04084522060751915,0.09555267008990048,0.7727207678351551
1772025727144358000,10.43035791015625,-0.06403437301516532,0.020864801113307473,0.9148072986282407
1772025727154356000,10.44035595703125,-0.15693711311817168,0.06531915212869643,1.0015196596585214
1772025727164352800,10.450352783203124,-0.12746259683072567,0.08558481830507517,1.0112587441887706
1772025727174349800,10.460349853515625,-0.03507189790308475,0.11270108102858066,0.9498382069338113
1772025727184348000,10.470347900390625,-0.03930792803764343,0.15071838473379612,0.8338590540826321
1772025727194345000,10.480344970703126,-0.05236205540001392,0.2118997064054012,0.7090946833599359
1772025727204342800,10.4903427734375,0.03237199129462242,0.28961656781435013,0.5782027696676552
1772025727214340000,10.500340087890624,0.1644213313937187,0.4253483958184719,0.45296183094177395
1772025727224337000,10.5103369140625,0.2650958745419979,0.629497341966629,0.39867735611181704
1772025727234335000,10.5203349609375,0.35181904922723767,0.7949363259702921,0.34907398830279707
1772025727244331800,10.530331787109375,0.5133236163914203,0.8944353955984115,0.3208696015490219
1772025727254329900,10.540329833984375,0.6232791981041431,0.8879282056614756,0.320282193582505
1772025727264327000,10.550326904296876,0.7104284892469644,0.7847837652683257,0.34064616903420536
1772025727274324000,10.560323974609375,0.8790507794618606,0.6640276803389191,0.42069435946755107
1772025727284321800,10.57032177734375,1.043278634110093,0.6261769653722643,0.5419876565461978
1772025727294318800,10.58031884765625,1.1125795493513344,0.5857324345201254,0.7102029368627816
1772025727304317000,10.59031689453125,1.104579782769084,0.45799861953258514,0.9426331709258258
1772025727314314000,10.60031396484375,1.004348891735077,0.3260480636328459,1.1273667110513894
1772025727324310800,10.610310791015625,0.8765203842014074,0.10227379503846168,1.3168828092783689
1772025727334308900,10.620308837890626,0.6541869620651006,-0.1267255147278309,1.6064149136796593
1772025727344306000,10.630305908203125,0.3711111941963434,-0.3004761077418923,1.8388208170190452
1772025727354303700,10.6403037109375,0.10853168638944626,-0.4329471803843975,1.9821734952904282
1772025727364301000,10.650301025390625,0.06166472127437591,-0.49126405253559347,2.064031402026862
1772025727374297900,10.6602978515625,0.04268237290680408,-0.41292496757507324,2.019602039322257
1772025727384296000,10.6702958984375,0.025395722541213035,-0.3375248586758971,1.8843600406616925
1772025727394292700,10.680292724609375,0.006294131708145141,-0.2766534797362983,1.6953601483285425
1772025727404290000,10.6902900390625,-0.0773725780159235,-0.19486074719056487,1.4847490204289555
1772025727414288000,10.700287841796875,-0.1687175672829151,-0.04867313775420189,1.2837806040130555
1772025727424285000,10.710284912109374,-0.13875088356435297,0.05997106909900903,1.044710274348408
1772025727434282800,10.72028271484375,-0.0945440775692463,0.07116042550280689,0.8558414610490203
1772025727444280000,10.730280029296875,-0.05090367328524589,0.02490340897962451,0.804854493394494
1772025727454277000,10.740277099609376,-0.07273556586503982,-0.04550605202540755,0.8241632972374558
1772025727464275200,10.750275146484375,-0.1872182696133852,-0.09486746430471539,0.8481850280117244
1772025727474272000,10.76027197265625,-0.2116518691241741,-0.13292480775937437,0.8963130991037934
1772025727484270000,10.77027001953125,-0.08305471530556678,-0.12988091001883148,0.90002159823291
1772025727494267000,10.780266845703125,-0.03388356490135193,-0.1315565881460905,0.8869811340697109
1772025727504264200,10.79026416015625,-0.04530161549448967,-0.197576874281466,0.9405012734636664
1772025727514262000,10.800261962890625,0.03973988971412182,-0.2474605568692088,0.980496526178345
1772025727524259000,10.810259033203126,0.09775485630929469,-0.22956161982417106,0.8977611059550196
1772025727534257200,10.820257080078125,-0.0017436287969350814,-0.1902959234930575,0.8046576556481421
1772025727544254000,10.83025390625,-0.09608195466101169,-0.2168108593225479,0.8795617977239191
1772025727554251000,10.8402509765625,0.04532382732629776,-0.1696823206618428,1.0453609933421015
1772025727564249000,10.8502490234375,0.3012660890758037,-0.0729926093660295,1.1227324023142455
1772025727574246100,10.86024609375,0.3966132997214794,-0.0954703986339271,1.165923966852203
1772025727584244000,10.870243896484375,0.3246171540468931,-0.13580372419655323,1.2617382835529745
1772025727594241000,10.880240966796874,0.16316870098412037,-0.1389541510514915,1.31420423771888
1772025727604238000,10.890238037109375,0.05713058497607708,-0.17847031501233576,1.2229936884865165
1772025727614236200,10.900236083984375,-0.015276479586958885,-0.26933979572206734,1.0339058256089686
1772025727624233000,10.91023291015625,-0.07968260852396487,-0.3390842169471085,0.9109757576413452
1772025727634231000,10.92023095703125,-0.003202595433592796,-0.3624593934461474,0.9295887612398713
1772025727644228000,10.93022802734375,0.10909458096921443,-0.2819124231778085,1.0417528127823024
1772025727654225200,10.94022509765625,0.3487339426934719,-0.17924436812475322,1.0261412560220806
1772025727664223000,10.950222900390624,0.8217185344338417,-0.09497998476848006,1.168330224276334
1772025727674220000,10.960219970703125,0.30244799233675,-0.09912424496635794,1.2284773805946112
1772025727684217000,10.970217041015625,0.01730827767550945,-0.16019363069608808,1.0006476991295814
1772025727694215200,10.980215087890626,-0.2130547216594219,-0.2868181692674756,0.8540058431196957
1772025727704212000,10.9902119140625,-0.22187281888723373,-0.34309652132838964,0.9249706729851662
1772025727714210000,11.0002099609375,-0.23153496572375296,-0.3361342811003327,0.9065898707073181
1772025727724207000,11.01020703125,-0.25397476106882094,-0.3657078738480806,0.806346120191738
1772025727734204200,11.0202041015625,-0.08682078984081745,-0.3986325305894017,0.90504549080953
1772025727744202200,11.0302021484375,0.244526549243927,-0.4051227693915367,0.8099697175163775
1772025727754199000,11.040198974609375,0.2709954539746046,-0.352683849363029,0.7631623736340553
1772025727764197000,11.050197021484376,-0.09425707732141017,-0.37127486032545565,0.833558244505152
