time,seconds_elapsed,z,y,x
1772025763309313500,0.0803134765625,0.33777758479118347,-0.0652819350361824,0.3659878075122833
1772025763319310600,0.090310546875,0.33880263566970825,-0.07325650006532669,0.32095322012901306
1772025763329307600,0.1003076171875,0.3260726034641266,-0.08190492540597916,0.24387846887111664
1772025763339305700,0.1103056640625,0.3039824664592743,-0.0948399007320404,0.1693056970834732
1772025763349302500,0.120302490234375,0.2737479507923126,-0.09255460649728775,0.09339825809001923
1772025763359299600,0.130299560546875,0.2366809993982315,-0.06312480568885803,0.04209592193365097
1772025763369297400,0.14029736328125,0.2029307633638382,-0.029643278568983078,0.013562014326453209
1772025763379294700,0.150294677734375,0.19864653050899506,-0.00795742403715849,0.0033615753054618835
1772025763389291500,0.16029150390625,0.22224442660808563,-0.02174331620335579,0.004974181763827801
1772025763399289600,0.17028955078125,0.24322640895843506,-0.07174097001552582,-0.001816878910176456
1772025763409286400,0.180286376953125,0.24758854508399963,-0.14560921490192413,-0.013794253580272198
1772025763419284500,0.190284423828125,0.24141214787960052,-0.2108345627784729,-0.03447343036532402
1772025763429281500,0.200281494140625,0.2358003854751587,-0.24710986018180847,-0.04404540732502937
1772025763439278600,0.210278564453125,0.24064947664737701,-0.24204079806804657,-0.03771134465932846
1772025763449276400,0.2202763671875,0.2512097656726837,-0.21452844142913818,-0.013210983946919441
1772025763459273500,0.2302734375,0.2626807987689972,-0.17650756239891052,0.020642852410674095
1772025763469270500,0.2402705078125,0.2670464515686035,-0.1433146893978119,0.059228651225566864
1772025763479273000,0.25027294921875,0.2625616788864136,-0.10384903103113174,0.0989728718996048
1772025763489270000,0.26027001953125,0.2528478801250458,-0.04811070114374161,0.13237500190734863
1772025763499266800,0.270266845703125,0.2442634552717209,-0.0033312467858195305,0.16355076432228088
1772025763509265000,0.280264892578125,0.23740509152412415,0.02397075667977333,0.19403551518917084
1772025763519262000,0.290261962890625,0.22671249508857727,0.05508260428905487,0.22153106331825256
1772025763529260000,0.300260009765625,0.19777747988700867,0.1010727733373642,0.2357945740222931
1772025763539256800,0.3102568359375,0.161813884973526,0.13508319854736328,0.23834188282489777
1772025763549254000,0.32025390625,0.10771560668945312,0.13458888232707977,0.22271575033664703
1772025763559252000,0.330251953125,0.05243077501654625,0.13152916729450226,0.20028607547283173
1772025763569249000,0.3402490234375,0.010312298312783241,0.1579098105430603,0.1811632663011551
1772025763579246000,0.35024609375,-0.006413951516151428,0.18382316827774048,0.1638266146183014
1772025763589244000,0.360243896484375,-0.010225648060441017,0.18398264050483704,0.13330328464508057
1772025763599241000,0.370240966796875,-0.017912063747644424,0.1575441062450409,0.08488354831933975
1772025763609238000,0.380238037109375,-0.030577516183257103,0.1141459196805954,0.013244646601378918
1772025763619236000,0.390236083984375,-0.06563270092010498,0.08218851685523987,-0.07991965115070343
1772025763629233000,0.40023291015625,-0.11356388032436371,0.042418014258146286,-0.18880200386047363
1772025763639230000,0.41022998046875,-0.15637072920799255,0.0014897570945322514,-0.3144896328449249
1772025763649227800,0.420227783203125,-0.18318751454353333,-0.025258192792534828,-0.4223225712776184
1772025763659225000,0.43022509765625,-0.18345116078853607,-0.006634708493947983,-0.4986442029476166
1772025763669223000,0.440222900390625,-0.15444080531597137,0.024352192878723145,-0.545006275177002
1772025763679220000,0.450219970703125,-0.10103189200162888,0.041745562106370926,-0.5552538633346558
1772025763689216800,0.460216796875,-0.049097079783678055,0.05429084599018097,-0.535358190536499
1772025763699214800,0.47021484375,-0.0018763028783723712,0.05904192477464676,-0.4891270101070404
1772025763709212000,0.4802119140625,0.033140216022729874,0.04896653816103935,-0.4146309196949005
1772025763719209000,0.490208984375,0.06024720147252083,0.021138368174433708,-0.3202444911003113
1772025763729207000,0.50020703125,0.06798622757196426,0.014160316437482834,-0.22133225202560425
1772025763739203800,0.510203857421875,0.05942949652671814,0.03196754306554794,-0.13365966081619263
1772025763749201000,0.520200927734375,0.04089108109474182,0.0256633460521698,-0.07775703072547913
1772025763759199000,0.530198974609375,0.02278744801878929,0.00022776145488023758,-0.04961008206009865
1772025763769196000,0.540196044921875,-0.004464809782803059,-0.010994190350174904,-0.043862514197826385
1772025763779193900,0.55019384765625,-0.03428342565894127,0.0012081473832949996,-0.05226984992623329
1772025763789191000,0.56019091796875,-0.0839264988899231,0.04381674528121948,-0.07460518181324005
1772025763799188000,0.57018798828125,-0.14753183722496033,0.07356718182563782,-0.10725313425064087
1772025763809186000,0.58018603515625,-0.20320747792720795,0.09600812196731567,-0.13961246609687805
1772025763819182800,0.590182861328125,-0.2357739359140396,0.1154358759522438,-0.16817912459373474
1772025763829180000,0.600179931640625,-0.23457081615924835,0.14450711011886597,-0.19694188237190247
1772025763839177700,0.610177734375,-0.22151067852973938,0.17238374054431915,-0.2171105295419693
1772025763849175000,0.620175048828125,-0.19639597833156586,0.19296589493751526,-0.23618797957897186
1772025763859171800,0.630171875,-0.1590917557477951,0.20256952941417694,-0.24576549232006073
1772025763869170000,0.640169921875,-0.11886683851480484,0.20029012858867645,-0.23653365671634674
1772025763879166700,0.650166748046875,-0.07543733716011047,0.19353261590003967,-0.21673597395420074
1772025763889164000,0.6601640625,-0.028187045827507973,0.19613350927829742,-0.17819109559059143
1772025763899161900,0.670161865234375,0.01647629588842392,0.18603479862213135,-0.13704392313957214
1772025763909159000,0.680158935546875,0.053146157413721085,0.16171348094940186,-0.09453454613685608
1772025763919157000,0.690156982421875,0.08393070846796036,0.12857283651828766,-0.04562852531671524
1772025763929153800,0.70015380859375,0.09691507369279861,0.09971687942743301,0.005663489922881126
1772025763939150800,0.71015087890625,0.10439509898424149,0.07505281269550323,0.05730857700109482
1772025763949149000,0.72014892578125,0.10024041682481766,0.052567511796951294,0.112874835729599
1772025763959146000,0.73014599609375,0.08973744511604309,0.032842010259628296,0.1586790680885315
1772025763969143000,0.74014306640625,0.0692988708615303,0.03662027418613434,0.1914588063955307
1772025763979141000,0.75014111328125,0.04542123153805733,0.0565018355846405,0.20902714133262634
1772025763989138000,0.760137939453125,0.02075841836631298,0.07684778422117233,0.21966266632080078
1772025763999135000,0.770135009765625,-0.003909111022949219,0.11980057507753372,0.22073271870613098
1772025764009132800,0.7801328125,-0.010937502607703209,0.18910539150238037,0.23779013752937317
1772025764019130000,0.790130126953125,-0.00024757394567131996,0.27167588472366333,0.26638317108154297
1772025764029127000,0.800126953125,0.03918760269880295,0.322208434343338,0.306976854801178
1772025764039125000,0.810125,0.06519763171672821,0.3319854438304901,0.3267737329006195
1772025764049121800,0.820121826171875,0.04378441721200943,0.315681129693985,0.301147997379303
1772025764059119900,0.830119873046875,-0.004777258262038231,0.2932932674884796,0.2454538643360138
1772025764069117000,0.840116943359375,-0.07385051995515823,0.269339919090271,0.17087680101394653
1772025764079114000,0.850114013671875,-0.14338698983192444,0.224787637591362,0.10655534267425537
1772025764089112000,0.860112060546875,-0.19984370470046997,0.18216358125209808,0.08053698390722275
1772025764099108900,0.87010888671875,-0.2345859706401825,0.1604047566652298,0.094619520008564
1772025764109106000,0.88010595703125,-0.2693338990211487,0.16303691267967224,0.12492842972278595
1772025764119104000,0.89010400390625,-0.28509312868118286,0.17485682666301727,0.15691699087619781
1772025764129101000,0.90010107421875,-0.2609533667564392,0.17835275828838348,0.17376463115215302
1772025764139097900,0.910097900390625,-0.22134895622730255,0.18964135646820068,0.1775476485490799
1772025764149096000,0.920095947265625,-0.18037639558315277,0.1833554208278656,0.15257781744003296
1772025764159093000,0.930093017578125,-0.15029387176036835,0.15340764820575714,0.11102984845638275
1772025764169091000,0.940091064453125,-0.1255657970905304,0.12351644784212112,0.059958215802907944
1772025764179088000,0.950087890625,-0.09043363481760025,0.10734999179840088,0.023995421826839447
1772025764189085000,0.9600849609375,-0.050513677299022675,0.11145292967557907,0.007094609085470438
1772025764199082800,0.970082763671875,-0.020318221300840378,0.1345185786485672,0.002308642491698265
1772025764209080000,0.980080078125,-0.000903175154235214,0.16880959272384644,0.005968339741230011
1772025764219076900,0.990076904296875,0.010140687227249146,0.207753524184227,0.013225186616182327
1772025764229075000,1.000074951171875,0.022698892280459404,0.23708364367485046,0.02610977739095688
1772025764239071700,1.01007177734375,0.04979415982961655,0.273363322019577,0.048175398260354996
1772025764249069000,1.020069091796875,0.10299951583147049,0.30253368616104126,0.08939465880393982
1772025764259067000,1.03006689453125,0.1852501779794693,0.3287234902381897,0.13786551356315613
1772025764269064000,1.04006396484375,0.2860373854637146,0.31611695885658264,0.19306719303131104
1772025764279060700,1.050060791015625,0.3802213966846466,0.2577972114086151,0.24257375299930573
1772025764289058800,1.060058837890625,0.448491632938385,0.16461226344108582,0.2787816524505615
1772025764299055900,1.070055908203125,0.47597041726112366,0.05624449998140335,0.2981095314025879
1772025764309054000,1.080053955078125,0.4713360071182251,-0.03830498084425926,0.3118435740470886
1772025764319051000,1.090051025390625,0.4583376348018646,-0.095273457467556,0.3226514756679535
1772025764329047800,1.1000478515625,0.42031946778297424,-0.11403907835483551,0.33758434653282166
1772025764339046000,1.1100458984375,0.35832294821739197,-0.11591953784227371,0.35075128078460693
1772025764349043000,1.12004296875,0.2875175178050995,-0.11001116037368774,0.3564240336418152
1772025764359040000,1.1300400390625,0.21772699058055878,-0.1147870123386383,0.34354153275489807
1772025764369037800,1.140037841796875,0.1513499617576599,-0.1505787968635559,0.3034382462501526
1772025764379035000,1.150034912109375,0.06736982613801956,-0.20749400556087494,0.2156601995229721
1772025764389032000,1.160031982421875,-0.03639942780137062,-0.2728535532951355,0.08410696685314178
1772025764399030000,1.170030029296875,-0.15587309002876282,-0.34365901350975037,-0.08855162560939789
1772025764409026800,1.18002685546875,-0.2603110671043396,-0.36955544352531433,-0.26234593987464905
1772025764419024000,1.19002392578125,-0.31826677918434143,-0.35020196437835693,-0.4139074981212616
1772025764429022000,1.20002197265625,-0.33598756790161133,-0.2652435600757599,-0.5139628052711487
1772025764439019000,1.21001904296875,-0.32548993825912476,-0.13183410465717316,-0.5642353296279907
1772025764449016800,1.220016845703125,-0.2747865319252014,0.026209183037281036,-0.5684288144111633
1772025764459014000,1.230013916015625,-0.19674234092235565,0.17886503040790558,-0.5274009704589844
1772025764469011000,1.240010986328125,-0.09795894473791122,0.3341679275035858,-0.47812122106552124
1772025764479005400,1.25000537109375,-0.01905107870697975,0.44428136944770813,-0.4405016601085663
1772025764489002500,1.26000244140625,0.042486771941185,0.48825061321258545,-0.4182625114917755
1772025764498999300,1.269999267578125,0.09095070511102676,0.4861200749874115,-0.40307316184043884
1772025764508997400,1.279997314453125,0.12590155005455017,0.45349210500717163,-0.3895378112792969
1772025764518994400,1.289994384765625,0.14997465908527374,0.3942412734031677,-0.3783208429813385
1772025764528991500,1.299991455078125,0.16473855078220367,0.3021027445793152,-0.36301928758621216
1772025764538989600,1.309989501953125,0.17098765075206757,0.19629721343517303,-0.3416026830673218
1772025764548986400,1.319986328125,0.16767042875289917,0.08020857721567154,-0.31674835085868835
1772025764558983400,1.3299833984375,0.1544654220342636,-0.02689044363796711,-0.27569493651390076
1772025764568981500,1.3399814453125,0.14257194101810455,-0.12314826995134354,-0.22526514530181885
1772025764578978600,1.349978515625,0.1374080777168274,-0.20686739683151245,-0.17630772292613983
1772025764588976400,1.359976318359375,0.13764892518520355,-0.2790650427341461,-0.12933747470378876
1772025764598973400,1.369973388671875,0.13031910359859467,-0.33558663725852966,-0.09230488538742065
1772025764608970500,1.379970458984375,0.11192881315946579,-0.36578699946403503,-0.05564255639910698
1772025764618968600,1.389968505859375,0.09085442125797272,-0.36850741505622864,-0.01442481018602848
1772025764628965400,1.39996533203125,0.07533589005470276,-0.3656788170337677,0.01871117763221264
1772025764638962400,1.40996240234375,0.0510377436876297,-0.3705923557281494,0.03679164499044418
1772025764648960300,1.419960205078125,0.019714253023266792,-0.3697928190231323,0.03794011101126671
1772025764658957600,1.42995751953125,-0.014780073426663876,-0.3508593440055847,0.03824184462428093
1772025764668954400,1.439954345703125,-0.03168601915240288,-0.3221127390861511,0.031046470627188683
1772025764678952400,1.449952392578125,-0.03957110643386841,-0.3024306297302246,0.0221810732036829
1772025764688949200,1.45994921875,-0.039728548377752304,-0.2860741913318634,0.0031549581326544285
1772025764698946600,1.469946533203125,-0.03484644368290901,-0.2617611289024353,-0.011518793180584908
1772025764708944400,1.4799443359375,-0.02044188603758812,-0.20978964865207672,-0.015324490144848824
1772025764718941400,1.48994140625,-0.009653686545789242,-0.1640075147151947,-0.010600841604173183
1772025764728938200,1.499938232421875,0.0075640385039150715,-0.14744451642036438,0.007870268076658249
1772025764738936300,1.509936279296875,0.027254387736320496,-0.11939611285924911,0.04105192422866821
1772025764748933400,1.519933349609375,0.04787537455558777,-0.09989899396896362,0.06669115275144577
1772025764758931500,1.529931396484375,0.06304740905761719,-0.11359456181526184,0.08694182336330414
1772025764768928500,1.539928466796875,0.07164911180734634,-0.12683872878551483,0.10491541028022766
1772025764778925300,1.54992529296875,0.07682017236948013,-0.12519769370555878,0.12035614997148514
1772025764788923400,1.55992333984375,0.0853157788515091,-0.11146996915340424,0.14305166900157928
1772025764798920400,1.56992041015625,0.0977114662528038,-0.11588495969772339,0.15983225405216217
1772025764808917500,1.57991748046875,0.11106891930103302,-0.13074885308742523,0.17716725170612335
1772025764818915300,1.589915283203125,0.13539449870586395,-0.14869137108325958,0.19602268934249878
1772025764828912400,1.599912353515625,0.1622706800699234,-0.15816903114318848,0.22306890785694122
1772025764838909400,1.609909423828125,0.19677512347698212,-0.15509095788002014,0.2560289800167084
1772025764848907500,1.619907470703125,0.23302264511585236,-0.14056548476219177,0.29193025827407837
1772025764858904300,1.629904296875,0.2667321264743805,-0.14271172881126404,0.31546568870544434
1772025764868901400,1.6399013671875,0.26576563715934753,-0.14810197055339813,0.31565865874290466
1772025764878899500,1.6498994140625,0.2543095052242279,-0.15348102152347565,0.291578084230423
1772025764888896500,1.659896484375,0.25265932083129883,-0.14982248842716217,0.26189011335372925
1772025764898893300,1.669893310546875,0.24884484708309174,-0.1259927898645401,0.2321612536907196
1772025764908891400,1.679891357421875,0.24340103566646576,-0.09434204548597336,0.20051759481430054
1772025764918888400,1.689888427734375,0.23784515261650085,-0.06485366076231003,0.17097727954387665
1772025764928886500,1.699886474609375,0.248623788356781,-0.03562203794717789,0.13971136510372162
1772025764938883600,1.709883544921875,0.27323272824287415,-0.009653553366661072,0.11649632453918457
1772025764948880400,1.71988037109375,0.303362637758255,-0.0011958896648138762,0.08754178136587143
1772025764958878500,1.72987841796875,0.317337304353714,-0.006511825602501631,0.06636273115873337
1772025764968875500,1.73987548828125,0.3111284375190735,-0.013137806206941605,0.043472982943058014
1772025764978872600,1.74987255859375,0.29986006021499634,-0.012786002829670906,0.03483714908361435
1772025764988870400,1.759870361328125,0.2934434711933136,-0.008528102189302444,0.047130029648542404
1772025764998867500,1.769867431640625,0.2861679792404175,-0.003826557658612728,0.07465460151433945
1772025765008864500,1.779864501953125,0.27105170488357544,-0.012221716344356537,0.11143069714307785
1772025765018862600,1.789862548828125,0.24824732542037964,-0.023651471361517906,0.15257999300956726
1772025765028859400,1.799859375,0.22498497366905212,-0.03735107555985451,0.19934985041618347
1772025765038856400,1.8098564453125,0.2060222029685974,-0.04126725345849991,0.24440467357635498
1772025765048854300,1.819854248046875,0.194799542427063,-0.055089402943849564,0.28695178031921387
1772025765058851600,1.8298515625,0.1921619474887848,-0.06409221887588501,0.33241328597068787
1772025765068848400,1.839848388671875,0.18851181864738464,-0.042396776378154755,0.38392361998558044
1772025765078846500,1.849846435546875,0.17590788006782532,-0.007107495330274105,0.42459753155708313
1772025765088843300,1.85984326171875,0.15733005106449127,0.03247126191854477,0.44369858503341675
1772025765098841300,1.86984130859375,0.14198890328407288,0.08423591405153275,0.44785016775131226
1772025765108838400,1.87983837890625,0.11489211022853851,0.13731485605239868,0.42558279633522034
1772025765118835500,1.88983544921875,0.08426123112440109,0.1807459592819214,0.39047595858573914
1772025765128833500,1.89983349609375,0.03606991842389107,0.225742906332016,0.3354323208332062
1772025765138830300,1.909830322265625,-0.011864050291478634,0.2670208513736725,0.2667677700519562
1772025765148827400,1.919827392578125,-0.046583957970142365,0.2970776855945587,0.19833476841449738
1772025765158825500,1.929825439453125,-0.06929672509431839,0.33004894852638245,0.13162152469158173
1772025765168822500,1.939822509765625,-0.08578166365623474,0.3606155514717102,0.057029176503419876
1772025765178819300,1.9498193359375,-0.08533505350351334,0.384134978055954,-0.016201892867684364
1772025765188817400,1.9598173828125,-0.08398456126451492,0.3595127463340759,-0.09566635638475418
1772025765198814500,1.969814453125,-0.09472961723804474,0.32263222336769104,-0.17533642053604126
1772025765208811500,1.9798115234375,-0.11898533254861832,0.28328198194503784,-0.2627236843109131
1772025765218809300,1.989809326171875,-0.14151515066623688,0.2249784767627716,-0.3545742630958557
1772025765228806400,1.999806396484375,-0.14663085341453552,0.16878516972064972,-0.4345915913581848
1772025765238803500,2.009803466796875,-0.13770632445812225,0.13647036254405975,-0.5003341436386108
1772025765248801500,2.019801513671875,-0.10921940207481384,0.11026231199502945,-0.54378741979599
1772025765258798300,2.02979833984375,-0.06257546693086624,0.07919547706842422,-0.5560715198516846
1772025765268796400,2.03979638671875,0.0017851053271442652,0.07674540579319,-0.5350360870361328
1772025765278793200,2.049793212890625,0.08945796638727188,0.09835482388734818,-0.4738025963306427
1772025765288790500,2.05979052734375,0.1948041319847107,0.11091558635234833,-0.4016585052013397
1772025765298788400,2.069788330078125,0.29043614864349365,0.07939548045396805,-0.32734352350234985
1772025765308785400,2.079785400390625,0.36601191759109497,0.038253482431173325,-0.25233548879623413
1772025765318782200,2.0897822265625,0.415321409702301,0.008501442149281502,-0.1882324069738388
1772025765328780300,2.0997802734375,0.44022515416145325,-0.014153800904750824,-0.1383371204137802
1772025765338777600,2.109777587890625,0.4498050808906555,-0.036362431943416595,-0.1143103539943695
1772025765348774400,2.1197744140625,0.4296197295188904,-0.05181900039315224,-0.11244659125804901
1772025765358772500,2.1297724609375,0.399167537689209,-0.054631032049655914,-0.12400977313518524
1772025765368769300,2.139769287109375,0.3597087264060974,-0.023846223950386047,-0.15347546339035034
1772025765378766600,2.1497666015625,0.2974328398704529,0.00920893158763647,-0.19107982516288757
1772025765388764400,2.159764404296875,0.24089035391807556,0.020519185811281204,-0.2390327900648117
1772025765398761500,2.169761474609375,0.2003229409456253,0.029026919975876808,-0.2914328873157501
1772025765408758500,2.179758544921875,0.1835535615682602,0.05864793062210083,-0.328504353761673
1772025765418756600,2.189756591796875,0.19166554510593414,0.08911848813295364,-0.3521108627319336
1772025765428753400,2.19975341796875,0.20983342826366425,0.10613696277141571,-0.35802459716796875
1772025765438750500,2.20975048828125,0.23751778900623322,0.11204411834478378,-0.34371328353881836
1772025765448748300,2.219748291015625,0.2755192816257477,0.1125374510884285,-0.3175280690193176
1772025765458745600,2.22974560546875,0.3137255311012268,0.10479430854320526,-0.2932901084423065
1772025765468743400,2.239743408203125,0.34663739800453186,0.09199542552232742,-0.2672385275363922
1772025765478740500,2.249740478515625,0.3663139045238495,0.09375790506601334,-0.24672764539718628
1772025765488740000,2.259739990234375,0.35966408252716064,0.10006944090127945,-0.23167085647583008
1772025765498738200,2.26973828125,0.34797415137290955,0.107143335044384,-0.21509800851345062
1772025765508735500,2.279735595703125,0.3419704735279083,0.13638366758823395,-0.19137544929981232
1772025765518732300,2.289732177734375,0.3459306061267853,0.14823207259178162,-0.15992723405361176
1772025765528730400,2.29973046875,0.3502403497695923,0.1657692939043045,-0.11144797503948212
1772025765538727200,2.30972705078125,0.3661668300628662,0.2032540738582611,-0.06084099039435387
1772025765548724500,2.319724365234375,0.3806874752044678,0.20992594957351685,-0.008243687450885773
1772025765558722300,2.329722412109375,0.37171420454978943,0.2137470543384552,0.03323584422469139
1772025765568719400,2.33971923828125,0.3527368903160095,0.23610953986644745,0.06601239740848541
1772025765578716200,2.349716064453125,0.3238128423690796,0.2512759566307068,0.09672530740499496
1772025765588714200,2.35971435546875,0.3030792474746704,0.2688492238521576,0.12346134334802628
1772025765598711300,2.369711181640625,0.29635530710220337,0.3004412353038788,0.15424321591854095
1772025765608708400,2.379708251953125,0.3242643177509308,0.32769331336021423,0.18917196989059448
1772025765618706200,2.3897060546875,0.36887651681900024,0.33901920914649963,0.21059177815914154
1772025765628703200,2.399703125,0.3861754536628723,0.3118927776813507,0.20364806056022644
1772025765638700300,2.4097001953125,0.36366215348243713,0.304887592792511,0.1775221824645996
1772025765648698400,2.419698486328125,0.3300032615661621,0.329446941614151,0.14854338765144348
1772025765658695200,2.429695068359375,0.3112492859363556,0.37527647614479065,0.1429470181465149
1772025765668693200,2.439693359375,0.2891179025173187,0.4281829595565796,0.1538694053888321
1772025765678690300,2.449690185546875,0.2763003706932068,0.46492019295692444,0.16694791615009308
1772025765688687400,2.459687255859375,0.28477469086647034,0.4694844186306,0.18821896612644196
1772025765698685400,2.469685546875,0.3128662407398224,0.4409632980823517,0.2099442332983017
1772025765708682200,2.47968212890625,0.36219868063926697,0.3882134258747101,0.23347800970077515
1772025765718679300,2.48967919921875,0.4092410206794739,0.33504822850227356,0.24673601984977722
1772025765728677400,2.499677490234375,0.4388400614261627,0.2754031717777252,0.24623888731002808
1772025765738674400,2.50967431640625,0.4540855884552002,0.2129826694726944,0.2188860923051834
1772025765748671200,2.519671142578125,0.4541448652744293,0.1653604805469513,0.1805318295955658
1772025765758669300,2.52966943359375,0.4414610266685486,0.14265677332878113,0.13985949754714966
1772025765768666400,2.539666259765625,0.42905282974243164,0.15406928956508636,0.09918361157178879
1772025765778663400,2.549663330078125,0.41696953773498535,0.1684921681880951,0.05810488387942314
1772025765788661200,2.5596611328125,0.41211241483688354,0.17182014882564545,0.009838427416980267
1772025765798658300,2.569658203125,0.41644003987312317,0.16870105266571045,-0.03928464278578758
1772025765808655400,2.5796552734375,0.4408140182495117,0.1635328084230423,-0.09056602418422699
1772025765818653400,2.5896533203125,0.4735858142375946,0.15901954472064972,-0.14101934432983398
1772025765828650200,2.599650146484375,0.5127230286598206,0.1399826556444168,-0.18464192748069763
1772025765838647300,2.609647216796875,0.5461161136627197,0.13284724950790405,-0.2086484730243683
1772025765848645000,2.61964501953125,0.5818800926208496,0.14264193177223206,-0.21340610086917877
1772025765858642400,2.629642333984375,0.6054394841194153,0.15051664412021637,-0.19691473245620728
1772025765868639200,2.63963916015625,0.6226674914360046,0.1606687605381012,-0.17963334918022156
1772025765878637300,2.64963720703125,0.6339555978775024,0.16290554404258728,-0.16721875965595245
1772025765888634000,2.659634033203125,0.6484135389328003,0.16417716443538666,-0.15135280787944794
1772025765898632200,2.669632080078125,0.6685366630554199,0.16724060475826263,-0.13462123274803162
1772025765908629500,2.67962939453125,0.6912587285041809,0.16780416667461395,-0.11451022326946259
1772025765918626300,2.689626220703125,0.7109634876251221,0.16459213197231293,-0.09149838238954544
1772025765928624400,2.699624267578125,0.7322655916213989,0.15253779292106628,-0.07024303823709488
1772025765938621200,2.70962109375,0.748784601688385,0.13653512299060822,-0.041993822902441025
1772025765948618500,2.719618408203125,0.7609186768531799,0.11780612915754318,-0.012352945283055305
1772025765958616300,2.7296162109375,0.7517853379249573,0.08436135947704315,0.015614506788551807
1772025765968613400,2.73961328125,0.7281544804573059,0.055547017604112625,0.03140220046043396
1772025765978610200,2.749610107421875,0.6919251084327698,0.029421944171190262,0.04060634970664978
1772025765988608300,2.759608154296875,0.6495277881622314,0.012238923460245132,0.027066217735409737
1772025765998605300,2.769605224609375,0.588077187538147,0.003938383888453245,-0.005505307111889124
1772025766008602400,2.779602294921875,0.5091392993927002,0.00519577506929636,-0.061642102897167206
1772025766018600200,2.78960009765625,0.413968026638031,0.017938468605279922,-0.138682022690773
1772025766028597200,2.79959716796875,0.31163454055786133,0.03846246004104614,-0.23875074088573456
1772025766038594300,2.80959423828125,0.21831896901130676,0.04772626608610153,-0.34708842635154724
1772025766048592400,2.81959228515625,0.1481010466814041,0.06846324354410172,-0.4633856415748596
1772025766058589200,2.829589111328125,0.0864400714635849,0.0978781208395958,-0.5657662749290466
1772025766068586200,2.839586181640625,0.03422171249985695,0.13034440577030182,-0.6536757349967957
1772025766078584300,2.849584228515625,0.009487604722380638,0.1763760894536972,-0.7126711010932922
1772025766088581400,2.859581298828125,0.003481195541098714,0.23192426562309265,-0.7357873916625977
1772025766098578200,2.869578125,0.040245335549116135,0.29399803280830383,-0.712228536605835
1772025766108576300,2.879576171875,0.12471088021993637,0.35562098026275635,-0.6566962599754333
1772025766118573300,2.8895732421875,0.22774912416934967,0.41933709383010864,-0.5843402743339539
1772025766128571400,2.8995712890625,0.3362351059913635,0.46542641520500183,-0.5103748440742493
1772025766138568400,2.909568359375,0.42743292450904846,0.4880598187446594,-0.4446328580379486
1772025766148565200,2.919565185546875,0.49588727951049805,0.46615520119667053,-0.39223864674568176
1772025766158563300,2.929563232421875,0.5342554450035095,0.41583025455474854,-0.34758460521698
1772025766168560400,2.939560302734375,0.5679649114608765,0.3565342426300049,-0.30720454454421997
1772025766178557400,2.949557373046875,0.6089709401130676,0.3091752529144287,-0.25493600964546204
1772025766188555300,2.95955517578125,0.6529897451400757,0.25073331594467163,-0.2069855034351349
1772025766198552300,2.96955224609375,0.6779073476791382,0.1705189198255539,-0.16508466005325317
1772025766208549400,2.97954931640625,0.6834070682525635,0.09730412811040878,-0.1270350068807602
1772025766218547500,2.98954736328125,0.6713205575942993,0.04919279366731644,-0.08921093493700027
1772025766228544300,2.999544189453125,0.6553639769554138,0.00787004642188549,-0.05003853887319565
1772025766238541300,3.009541259765625,0.6335353851318359,-0.04036911949515343,-0.01892775669693947
1772025766248539100,3.0195390625,0.6045645475387573,-0.09289278835058212,0.007238444406539202
1772025766258536400,3.029536376953125,0.5617281198501587,-0.1394704133272171,0.029673445969820023
1772025766268533200,3.039533203125,0.5083014965057373,-0.1643821895122528,0.049655258655548096
1772025766278531300,3.04953125,0.452407568693161,-0.1627776324748993,0.06262591481208801
1772025766288528100,3.059528076171875,0.4030326306819916,-0.1734876036643982,0.05861515551805496
1772025766298525400,3.069525390625,0.3656170666217804,-0.18627983331680298,0.05010955408215523
1772025766308523500,3.0795234375,0.3346264362335205,-0.19494439661502838,0.04403780400753021
1772025766318520300,3.089520263671875,0.3137704133987427,-0.20611342787742615,0.04296641796827316
1772025766328517000,3.09951708984375,0.2980630695819855,-0.21410256624221802,0.04311463236808777
1772025766338515200,3.10951513671875,0.29556581377983093,-0.20104189217090607,0.06302175670862198
1772025766348512500,3.119512451171875,0.3105243146419525,-0.16920140385627747,0.09287084639072418
1772025766358510300,3.12951025390625,0.34869539737701416,-0.11832410842180252,0.13540419936180115
1772025766368507400,3.13950732421875,0.3997690677642822,-0.05472809076309204,0.1872982382774353
1772025766378504200,3.149504150390625,0.4519640803337097,-0.0023426436819136143,0.23790068924427032
1772025766388502300,3.159502197265625,0.5220691561698914,0.032861072570085526,0.2882255017757416
1772025766398499300,3.169499267578125,0.6040931940078735,0.05409152805805206,0.3444717228412628
1772025766408496400,3.179496337890625,0.6911936402320862,0.063276007771492,0.39123305678367615
1772025766418494200,3.189494140625,0.7680106163024902,0.025027422234416008,0.42264610528945923
1772025766428491300,3.1994912109375,0.7999166250228882,-0.055930692702531815,0.414032518863678
1772025766438488300,3.20948828125,0.7785687446594238,-0.1316654086112976,0.365688681602478
1772025766448486400,3.219486328125,0.7319362163543701,-0.15739785134792328,0.3078092634677887
1772025766458483200,3.229483154296875,0.6915429830551147,-0.13863934576511383,0.2587301433086395
1772025766468480300,3.239480224609375,0.6721248626708984,-0.09103389829397202,0.23328335583209991
1772025766478478000,3.24947802734375,0.6764721870422363,-0.020194077864289284,0.229728564620018
1772025766488472000,3.25947216796875,0.7075393795967102,0.06249832734465599,0.2431577742099762
1772025766498469000,3.26946923828125,0.7688515186309814,0.11179237812757492,0.2722160518169403
1772025766508467200,3.27946728515625,0.8365001678466797,0.11523176729679108,0.2941160798072815
1772025766518464000,3.289464111328125,0.8819536566734314,0.09079167246818542,0.2988216280937195
1772025766528461000,3.2994609375,0.9049209356307983,0.05346880480647087,0.2893323004245758
1772025766538459100,3.309459228515625,0.9106989502906799,0.01281485240906477,0.27648308873176575
1772025766548456200,3.319456298828125,0.9046357870101929,-0.015977229923009872,0.2640150487422943
1772025766558453000,3.329452880859375,0.8667579293251038,-0.014419279992580414,0.26329413056373596
1772025766568451000,3.339451171875,0.8247606158256531,-0.00317427353002131,0.2792872488498688
1772025766578448100,3.3494482421875,0.7840259671211243,0.004089231602847576,0.30608129501342773
1772025766588445200,3.359445068359375,0.7542127966880798,0.010530278086662292,0.3314923048019409
1772025766598443000,3.369443115234375,0.7367997169494629,0.01989927887916565,0.3570309579372406
1772025766608440000,3.379440185546875,0.7375636100769043,0.02802838757634163,0.3777711093425751
1772025766618438000,3.38943798828125,0.7476068735122681,0.044742386788129807,0.39090263843536377
1772025766628435200,3.399435302734375,0.7723164558410645,0.08253040164709091,0.3943342864513397
1772025766638432000,3.409431884765625,0.8061891794204712,0.1385798156261444,0.38806334137916565
1772025766648430000,3.41943017578125,0.8292063474655151,0.20691530406475067,0.3812295198440552
1772025766658427000,3.429427001953125,0.843350887298584,0.2882154881954193,0.36631500720977783
1772025766668424200,3.439424072265625,0.8443416357040405,0.3720160126686096,0.3495546579360962
1772025766678422300,3.44942236328125,0.8357836008071899,0.45681077241897583,0.33720239996910095
1772025766688419000,3.459419189453125,0.8075255155563354,0.5387489795684814,0.32086876034736633
1772025766698415900,3.469415771484375,0.7740418314933777,0.6021644473075867,0.3051561117172241
1772025766708414000,3.4794140625,0.7425373792648315,0.6372218132019043,0.28744783997535706
1772025766718411300,3.489411376953125,0.7061798572540283,0.6568668484687805,0.27255651354789734
1772025766728408000,3.499407958984375,0.6972557902336121,0.655378520488739,0.2558797299861908
1772025766738406100,3.50940625,0.7101561427116394,0.6344828009605408,0.2319943904876709
1772025766748403200,3.5194033203125,0.734624981880188,0.6071513891220093,0.1924644261598587
1772025766758400300,3.529400146484375,0.7539307475090027,0.5746967792510986,0.13003405928611755
1772025766768398000,3.539398193359375,0.7656313180923462,0.5418999791145325,0.04060404747724533
1772025766778395100,3.54939501953125,0.7711653709411621,0.5032846927642822,-0.061476778239011765
1772025766788392200,3.55939208984375,0.7758010625839233,0.4602237343788147,-0.17322242259979248
1772025766798390300,3.569390380859375,0.7865698337554932,0.4287395775318146,-0.2765733301639557
1772025766808387000,3.579386962890625,0.8030996322631836,0.40747520327568054,-0.36165937781333923
1772025766818384100,3.589384033203125,0.8257508873939514,0.3877768814563751,-0.411966472864151
1772025766828382000,3.5993818359375,0.8442927598953247,0.37170857191085815,-0.4375085234642029
1772025766838379300,3.609379150390625,0.8632872104644775,0.3448375463485718,-0.4306285083293915
1772025766848377000,3.619377197265625,0.8841835260391235,0.31021738052368164,-0.40108466148376465
1772025766858374100,3.6293740234375,0.9012432098388672,0.2668653726577759,-0.35145291686058044
1772025766868371000,3.639370849609375,0.9095253348350525,0.22565773129463196,-0.29760897159576416
1772025766878369000,3.649369140625,0.9089460968971252,0.19267767667770386,-0.2478368729352951
1772025766888366000,3.659365966796875,0.9040600061416626,0.17789405584335327,-0.2012648731470108
1772025766898363100,3.669363037109375,0.8923196792602539,0.1790485382080078,-0.16610050201416016
1772025766908361200,3.679361328125,0.8773905634880066,0.18472373485565186,-0.1435280740261078
1772025766918358000,3.68935791015625,0.8530420660972595,0.1928093582391739,-0.14648818969726562
1772025766928355000,3.69935498046875,0.834077775478363,0.2038508504629135,-0.1672840118408203
1772025766938353200,3.709353271484375,0.8189682960510254,0.22956793010234833,-0.19605013728141785
1772025766948350200,3.71935009765625,0.8059773445129395,0.27581819891929626,-0.23588250577449799
1772025766958347000,3.729346923828125,0.7926852703094482,0.33363649249076843,-0.2833064794540405
1772025766968345000,3.739344970703125,0.7872268557548523,0.3999110460281372,-0.3286542296409607
1772025766978342100,3.749342041015625,0.785301923751831,0.46473345160484314,-0.3649962544441223
1772025766988339200,3.759339111328125,0.7873066663742065,0.5018832683563232,-0.38947200775146484
1772025766998337000,3.7693369140625,0.7991787195205688,0.5145716667175293,-0.40050333738327026
1772025767008334000,3.779333984375,0.8136058449745178,0.5041753053665161,-0.3955216109752655
1772025767018331100,3.7893310546875,0.8292276859283447,0.479755699634552,-0.37351617217063904
1772025767028329200,3.7993291015625,0.8397138714790344,0.4554966390132904,-0.34152695536613464
1772025767038326000,3.809325927734375,0.8424276113510132,0.42759788036346436,-0.3028847575187683
1772025767048323000,3.819322998046875,0.8509546518325806,0.3991759419441223,-0.2593798041343689
1772025767058321000,3.82932080078125,0.8638821840286255,0.3668329119682312,-0.21201549470424652
1772025767068318200,3.839318115234375,0.8853439092636108,0.35418272018432617,-0.16099923849105835
1772025767078315000,3.84931494140625,0.9108354449272156,0.342764675617218,-0.11903448402881622
1772025767088313000,3.85931298828125,0.9348722100257874,0.35538551211357117,-0.08464383333921432
1772025767098310000,3.869309814453125,0.9559942483901978,0.3723655641078949,-0.054972223937511444
1772025767108308000,3.879307861328125,0.9661049842834473,0.3915809392929077,-0.033146850764751434
1772025767118305300,3.88930517578125,0.9661383032798767,0.39837148785591125,-0.009420747868716717
1772025767128302000,3.899302001953125,0.9577125906944275,0.40384986996650696,0.010865881107747555
1772025767138300200,3.909300048828125,0.9403287768363953,0.4078499376773834,0.034187979996204376
1772025767148297000,3.919296875,0.9195842742919922,0.4177238345146179,0.07126510143280029
1772025767158294300,3.929294189453125,0.8941606879234314,0.4338229298591614,0.11899347603321075
1772025767168292000,3.9392919921875,0.8622363209724426,0.4477347433567047,0.16493433713912964
1772025767178289200,3.9492890625,0.8318533897399902,0.4462779760360718,0.201796755194664
1772025767188286000,3.959285888671875,0.8037108182907104,0.43674135208129883,0.22490400075912476
1772025767198284000,3.969283935546875,0.7846609354019165,0.41868218779563904,0.23539020121097565
1772025767208281000,3.979281005859375,0.7745113372802734,0.4150228798389435,0.24111400544643402
1772025767218278100,3.989278076171875,0.7935143113136292,0.41693130135536194,0.24045540392398834
1772025767228276000,3.99927587890625,0.8267505764961243,0.4086189866065979,0.236472487449646
1772025767238273000,4.00927294921875,0.8577689528465271,0.34697774052619934,0.2135021984577179
1772025767248270000,4.01927001953125,0.8493627309799194,0.2692767381668091,0.16228750348091125
1772025767258268200,4.02926806640625,0.8084400296211243,0.21127361059188843,0.10156290233135223
1772025767268265000,4.039264892578125,0.7585728168487549,0.1860504299402237,0.051718391478061676
1772025767278262000,4.049261962890625,0.7249227166175842,0.17414557933807373,0.012737702578306198
1772025767288260000,4.059260009765625,0.6655108332633972,0.19883623719215393,-0.02545137330889702
1772025767298257200,4.069257080078125,0.5906150341033936,0.2075599581003189,-0.0588037371635437
1772025767308254000,4.07925390625,0.5452495813369751,0.22880497574806213,-0.0724615827202797
1772025767318252000,4.089251953125,0.5254703164100647,0.2727513909339905,-0.06708652526140213
1772025767328249000,4.0992490234375,0.52944415807724,0.3277118504047394,-0.0392020083963871
1772025767338247200,4.1092470703125,0.5360395312309265,0.37599629163742065,0.002016004640609026
1772025767348244200,4.119244140625,0.5403599143028259,0.4023915231227875,0.04448653385043144
1772025767358241000,4.129240966796875,0.546714186668396,0.4074709713459015,0.08660043030977249
1772025767368239000,4.139239013671875,0.5612726807594299,0.4071408808231354,0.1175583153963089
1772025767378236200,4.149236083984375,0.5722305178642273,0.40045902132987976,0.1374923437833786
1772025767388233200,4.159233154296875,0.5573895573616028,0.39328205585479736,0.1331777572631836
1772025767398231000,4.16923095703125,0.5189883708953857,0.38304299116134644,0.10594000667333603
1772025767408228000,4.17922802734375,0.4698234796524048,0.37623536586761475,0.05611052364110947
1772025767418225200,4.18922509765625,0.42702755331993103,0.38511142134666443,0.0008837525965645909
1772025767428223200,4.19922314453125,0.3968946635723114,0.40301671624183655,-0.05016038194298744
1772025767438220000,4.209219970703125,0.38078466057777405,0.4203328490257263,-0.09905468672513962
1772025767448217000,4.219217041015625,0.3760242760181427,0.43011823296546936,-0.14828653633594513
1772025767458215000,4.22921484375,0.3822281062602997,0.4316878914833069,-0.19612383842468262
1772025767468212200,4.239212158203125,0.3973068594932556,0.42545124888420105,-0.22674521803855896
1772025767478209000,4.249208984375,0.4218481481075287,0.4388813078403473,-0.24337932467460632
1772025767488206800,4.259206787109375,0.4410974681377411,0.4671141505241394,-0.2525479197502136
1772025767498204000,4.269203857421875,0.45888686180114746,0.48565801978111267,-0.2439882606267929
1772025767508201000,4.279200927734375,0.47507283091545105,0.49430981278419495,-0.23491759598255157
1772025767518199000,4.289198974609375,0.4942276179790497,0.4981018900871277,-0.2116849720478058
1772025767528195800,4.29919580078125,0.5270856618881226,0.5085367560386658,-0.16795624792575836
1772025767538193000,4.30919287109375,0.581667959690094,0.5078560709953308,-0.11462326347827911
1772025767548190700,4.319190673828125,0.6353943943977356,0.5028925538063049,-0.0665188580751419
1772025767558188000,4.32918798828125,0.6795588731765747,0.4846690595149994,-0.032822947949171066
1772025767568184800,4.339184814453125,0.7144595384597778,0.4370271861553192,-0.027364907786250114
1772025767578183000,4.349182861328125,0.7491046190261841,0.35954785346984863,-0.04497266188263893
1772025767588179700,4.3591796875,0.775642991065979,0.2708643674850464,-0.07755041867494583
1772025767598177800,4.369177734375,0.7852644920349121,0.20342032611370087,-0.10647208243608475
1772025767608175000,4.379175048828125,0.7858980894088745,0.17398986220359802,-0.12792935967445374
1772025767618172000,4.389171875,0.7772223353385925,0.14931488037109375,-0.15779617428779602
1772025767628170000,4.399169921875,0.7369381785392761,0.14770640432834625,-0.20277489721775055
1772025767638166800,4.409166748046875,0.6686794757843018,0.15179674327373505,-0.2685651183128357
1772025767648164000,4.4191640625,0.5831372737884521,0.1280377358198166,-0.3660144805908203
1772025767658162000,4.429161865234375,0.4900190532207489,0.09263366460800171,-0.48928049206733704
1772025767668159000,4.439158935546875,0.39741024374961853,0.05067385360598564,-0.6210808157920837
1772025767678155800,4.44915576171875,0.3251885175704956,0.02244994044303894,-0.7478238940238953
1772025767688153900,4.45915380859375,0.27536541223526,0.023775700479745865,-0.8405917882919312
1772025767698151000,4.46915087890625,0.25582578778266907,0.060599759221076965,-0.8877263069152832
1772025767708148000,4.47914794921875,0.2644321024417877,0.11968415975570679,-0.8917994499206543
1772025767718145800,4.489145751953125,0.2933731973171234,0.19122599065303802,-0.8610157370567322
1772025767728143000,4.49914306640625,0.36485621333122253,0.2550787627696991,-0.8024070262908936
1772025767738140000,4.509139892578125,0.4622805118560791,0.30745354294776917,-0.7211268544197083
1772025767748138000,4.519137939453125,0.5809172987937927,0.3536973297595978,-0.6090067625045776
1772025767758134800,4.529134765625,0.7003811001777649,0.39302343130111694,-0.4935787320137024
1772025767768132000,4.539132080078125,0.7906266450881958,0.41450443863868713,-0.38132691383361816
1772025767778130000,4.5491298828125,0.8534972071647644,0.404578298330307,-0.2992493510246277
1772025767788127000,4.559126953125,0.8883427381515503,0.37961143255233765,-0.24310308694839478
1772025767798125000,4.569125,0.9110315442085266,0.3292800784111023,-0.21089348196983337
1772025767808121900,4.579121826171875,0.9182132482528687,0.28212517499923706,-0.1924637258052826
1772025767818119000,4.589118896484375,0.9177117347717285,0.22005729377269745,-0.1764908879995346
1772025767828117000,4.599116943359375,0.9056236743927002,0.1659163236618042,-0.1595226675271988
1772025767838114000,4.609114013671875,0.881592333316803,0.12079652398824692,-0.1532202959060669
1772025767848110800,4.61911083984375,0.8542304635047913,0.07420570403337479,-0.14270292222499847
1772025767858109000,4.62910888671875,0.8267698287963867,0.054331324994564056,-0.12619797885417938
1772025767868106000,4.63910595703125,0.788785994052887,0.04907405748963356,-0.09686129540205002
1772025767878103000,4.64910302734375,0.7447426319122314,0.04689985141158104,-0.06054936721920967
1772025767888100900,4.659100830078125,0.6978567242622375,0.04311329126358032,-0.018695425242185593
1772025767898098000,4.669097900390625,0.6547537446022034,0.0311833955347538,0.01773022674024105
1772025767908095000,4.679094970703125,0.6233819127082825,0.004841119050979614,0.04705629497766495
1772025767918093000,4.689093017578125,0.5925952792167664,-0.029865728691220284,0.0761803537607193
1772025767928089900,4.69908984375,0.5639376640319824,-0.06255728751420975,0.08891366422176361
1772025767938087000,4.7090869140625,0.5365744829177856,-0.09253036230802536,0.09069478511810303
1772025767948084700,4.719084716796875,0.512378454208374,-0.11321090906858444,0.09102203696966171
1772025767958082000,4.72908203125,0.48895618319511414,-0.13039016723632812,0.08496548235416412
1772025767968078800,4.739078857421875,0.4804491102695465,-0.13124385476112366,0.08890794962644577
1772025767978077000,4.749076904296875,0.4862617254257202,-0.10422209650278091,0.10442831367254257
1772025767988073700,4.75907373046875,0.5134479403495789,-0.0312546044588089,0.14686986804008484
1772025767998071000,4.769071044921875,0.5617336630821228,0.046516623347997665,0.19419904053211212
1772025768008069000,4.779069091796875,0.6159718632698059,0.0979253277182579,0.2474091351032257
1772025768018066000,4.78906591796875,0.6868436336517334,0.1364295780658722,0.3145141303539276
1772025768028064000,4.79906396484375,0.7504578232765198,0.13463973999023438,0.37249699234962463
1772025768038060800,4.809060791015625,0.7728259563446045,0.07941403985023499,0.3938632905483246
1772025768048058000,4.81905810546875,0.739591121673584,-0.013557329773902893,0.36305323243141174
1772025768058056000,4.829055908203125,0.6824913620948792,-0.08509276807308197,0.3104475438594818
1772025768068053000,4.839052978515625,0.6466568112373352,-0.10234890878200531,0.27563080191612244
1772025768078049800,4.8490498046875,0.6516126394271851,-0.0718221589922905,0.27163368463516235
1772025768088047900,4.8590478515625,0.6742204427719116,-0.018653705716133118,0.291342556476593
1772025768098045000,4.869044921875,0.7149659991264343,0.01707819290459156,0.3240711987018585
1772025768108042000,4.8790419921875,0.7715257406234741,0.022849831730127335,0.37005814909935
1772025768118039800,4.889039794921875,0.8289536237716675,-0.00975924264639616,0.4167470633983612
1772025768128036900,4.899036865234375,0.8608291745185852,-0.06458890438079834,0.4541665017604828
1772025768138034000,4.909033935546875,0.8676489591598511,-0.12790527939796448,0.4686216115951538
1772025768148032000,4.919031982421875,0.8602390289306641,-0.17784546315670013,0.47633492946624756
1772025768158028800,4.92902880859375,0.8226133584976196,-0.21072590351104736,0.46564286947250366
1772025768168025900,4.93902587890625,0.7566313147544861,-0.22375693917274475,0.4369441270828247
1772025768178024000,4.94902392578125,0.6794566512107849,-0.2271660566329956,0.39279985427856445
1772025768188021000,4.95902099609375,0.6088007688522339,-0.21035367250442505,0.342283695936203
1772025768198017800,4.969017822265625,0.5557018518447876,-0.18851707875728607,0.2879416346549988
1772025768208016000,4.979015869140625,0.526187002658844,-0.15280166268348694,0.24239444732666016
1772025768218013000,4.989012939453125,0.5179653167724609,-0.09857303649187088,0.2071043699979782
1772025768228010000,4.999010009765625,0.5075523257255554,-0.02360471338033676,0.18826663494110107
1772025768238008000,5.009008056640625,0.5101358294487,0.07050687074661255,0.17599931359291077
1772025768248004900,5.0190048828125,0.5187166333198547,0.16949135065078735,0.19543105363845825
1772025768258003000,5.0290029296875,0.5347089171409607,0.2787347733974457,0.23456381261348724
1772025768268000000,5.039,0.5430868864059448,0.38614243268966675,0.2886887192726135
1772025768277997000,5.0489970703125,0.5355592370033264,0.46573421359062195,0.33436140418052673
1772025768287995000,5.058994873046875,0.5098714828491211,0.5224636197090149,0.3651833236217499
1772025768297992000,5.068991943359375,0.4939021170139313,0.5594255924224854,0.38362759351730347
1772025768307989000,5.078989013671875,0.453772634267807,0.570708155632019,0.37383735179901123
1772025768317987000,5.088987060546875,0.39320358633995056,0.557693600654602,0.33284303545951843
1772025768327983900,5.09898388671875,0.33317962288856506,0.5191234946250916,0.2744833528995514
1772025768337981000,5.10898095703125,0.2875623404979706,0.4851325750350952,0.20958423614501953
1772025768347978800,5.118978759765625,0.26531463861465454,0.4603351950645447,0.13925448060035706
1772025768357976000,5.12897607421875,0.27733510732650757,0.4430651068687439,0.07424966245889664
1772025768367972900,5.138972900390625,0.305463045835495,0.4313766360282898,0.010183516889810562
1772025768377971000,5.148970947265625,0.33723828196525574,0.41101783514022827,-0.07053636014461517
1772025768387967700,5.1589677734375,0.35541829466819763,0.36561933159828186,-0.1747407764196396
1772025768397965000,5.168965087890625,0.37599682807922363,0.315328449010849,-0.28571656346321106
1772025768407963100,5.178963134765625,0.39853647351264954,0.2679363191127777,-0.3981153964996338
1772025768417960000,5.1889599609375,0.43300843238830566,0.24589014053344727,-0.4900783598423004
1772025768427958000,5.1989580078125,0.47348731756210327,0.23618334531784058,-0.5555077195167542
1772025768437954800,5.208954833984375,0.5146195888519287,0.23145648837089539,-0.597571849822998
1772025768447952100,5.2189521484375,0.5691766142845154,0.24147191643714905,-0.5997626185417175
1772025768457950000,5.228949951171875,0.6221892237663269,0.251565545797348,-0.5721192955970764
1772025768467947000,5.238947021484375,0.6645326018333435,0.25831839442253113,-0.5247541069984436
1772025768477943800,5.24894384765625,0.69730544090271,0.2559306025505066,-0.4596787095069885
1772025768487945200,5.2589453125,0.7104365825653076,0.2505916357040405,-0.38719215989112854
1772025768497942500,5.268942626953125,0.7079132199287415,0.24429140985012054,-0.3201340436935425
1772025768507939300,5.278939208984375,0.6921474933624268,0.22928355634212494,-0.262152761220932
1772025768517937400,5.2889375,0.673812210559845,0.2226717174053192,-0.21007435023784637
1772025768527934200,5.298934326171875,0.6596885919570923,0.2352691888809204,-0.17019201815128326
1772025768537931500,5.308931640625,0.6522703170776367,0.2618560492992401,-0.14081628620624542
1772025768547928300,5.31892822265625,0.6498141288757324,0.28980499505996704,-0.12818947434425354
1772025768557925400,5.32892529296875,0.6477504968643188,0.31950321793556213,-0.1368279606103897
1772025768567923200,5.338923095703125,0.6467954516410828,0.3530445694923401,-0.16046391427516937
1772025768577920500,5.34892041015625,0.6427074670791626,0.3898462653160095,-0.1923145204782486
1772025768587917300,5.358917236328125,0.6385354995727539,0.4322272837162018,-0.22974450886249542
1772025768597915400,5.368915283203125,0.6394468545913696,0.4736884534358978,-0.2651483118534088
1772025768607912200,5.378912109375,0.6344437003135681,0.5071020126342773,-0.29991260170936584
1772025768617909500,5.388909423828125,0.635430097579956,0.5244247913360596,-0.3283621072769165
1772025768627907300,5.3989072265625,0.6404882669448853,0.5312494039535522,-0.3506365120410919
1772025768637904400,5.408904296875,0.6520106792449951,0.5181416273117065,-0.3652316927909851
1772025768647902200,5.418902099609375,0.65996915102005,0.49467721581459045,-0.3631170988082886
1772025768657899300,5.428899169921875,0.6732210516929626,0.46146172285079956,-0.3453897535800934
1772025768667896300,5.438896240234375,0.6900458335876465,0.4326134920120239,-0.3071120083332062
1772025768677894400,5.448894287109375,0.7133671641349792,0.3996667265892029,-0.2586701810359955
1772025768687891200,5.45889111328125,0.73430335521698,0.3614446818828583,-0.19260475039482117
1772025768697888300,5.46888818359375,0.7638463377952576,0.33564555644989014,-0.12008287757635117
1772025768707886300,5.47888623046875,0.7892425060272217,0.3208412528038025,-0.0509505532681942
1772025768717883400,5.48888330078125,0.8059424161911011,0.3320648670196533,0.00969548337161541
1772025768727880200,5.498880126953125,0.8123568892478943,0.34701433777809143,0.04922199621796608
1772025768737878300,5.508878173828125,0.8020434975624084,0.36015358567237854,0.07141997665166855
1772025768747875300,5.518875244140625,0.7805821299552917,0.37733224034309387,0.06898238509893417
1772025768757872400,5.528872314453125,0.7482255101203918,0.39968281984329224,0.06081181392073631
1772025768767870500,5.538870361328125,0.7223705053329468,0.4166485369205475,0.05030404031276703
1772025768777867300,5.5488671875,0.7034429311752319,0.4261869192123413,0.04682355374097824
1772025768787864300,5.5588642578125,0.6936581134796143,0.4436263144016266,0.05515259504318237
1772025768797862400,5.5688623046875,0.6945856809616089,0.46316537261009216,0.08019109815359116
1772025768807859500,5.578859375,0.7005465030670166,0.47103792428970337,0.10628297924995422
1772025768817856300,5.588856201171875,0.6994367241859436,0.4585415720939636,0.12812623381614685
1772025768827854300,5.598854248046875,0.6838294267654419,0.4517615735530853,0.13624748587608337
1772025768837851400,5.608851318359375,0.6591193079948425,0.45900028944015503,0.14258182048797607
1772025768847849500,5.618849365234375,0.6329463720321655,0.4708499312400818,0.14731113612651825
1772025768857846300,5.62884619140625,0.609889030456543,0.48757272958755493,0.1471116691827774
1772025768867843300,5.63884326171875,0.6014329791069031,0.5074251890182495,0.1546061784029007
1772025768877841200,5.648841064453125,0.6147932410240173,0.5237733125686646,0.16747483611106873
1772025768887838500,5.65883837890625,0.6498211026191711,0.5314842462539673,0.18376736342906952
1772025768897835300,5.668835205078125,0.6964452862739563,0.5242021083831787,0.1921190321445465
1772025768907833300,5.678833251953125,0.7252163290977478,0.49906158447265625,0.18042157590389252
1772025768917830100,5.688830078125,0.7412176728248596,0.46161141991615295,0.1488463282585144
1772025768927827500,5.698827392578125,0.7440418601036072,0.4224552512168884,0.10773836076259613
1772025768937825500,5.708825439453125,0.7283427715301514,0.3816763758659363,0.05013898387551308
1772025768947822300,5.718822265625,0.7004286646842957,0.33922675251960754,-0.009759684093296528
1772025768957819400,5.7288193359375,0.6642552018165588,0.309270441532135,-0.07147285342216492
1772025768967817200,5.738817138671875,0.6304875016212463,0.2901018559932709,-0.1257447600364685
1772025768977814500,5.748814453125,0.6183142066001892,0.29183876514434814,-0.1642458140850067
1772025768987811300,5.758811279296875,0.6336214542388916,0.30404791235923767,-0.18886858224868774
1772025768997809400,5.768809326171875,0.6645894646644592,0.32247406244277954,-0.19865357875823975
1772025769007806200,5.77880615234375,0.7026277780532837,0.3469906151294708,-0.19546754658222198
1772025769017803500,5.788803466796875,0.7442618012428284,0.37750566005706787,-0.197074756026268
1772025769027801300,5.79880126953125,0.7900910377502441,0.3824203312397003,-0.1885136067867279
1772025769037798400,5.80879833984375,0.8337200284004211,0.3546198606491089,-0.18579238653182983
1772025769047795200,5.818795166015625,0.8544915914535522,0.34802502393722534,-0.1684654802083969
1772025769057793300,5.828793212890625,0.8594176769256592,0.3509012460708618,-0.13750676810741425
1772025769067790300,5.838790283203125,0.8620439767837524,0.375680148601532,-0.082550548017025
1772025769077788400,5.848788330078125,0.8782588839530945,0.4082317054271698,-0.010439067147672176
1772025769087785200,5.85878515625,0.916178822517395,0.44185012578964233,0.07136019319295883
1772025769097782300,5.8687822265625,0.9701632261276245,0.4475724697113037,0.15364840626716614
1772025769107780400,5.8787802734375,1.0193251371383667,0.4204842448234558,0.21419018507003784
1772025769117777400,5.88877734375,1.043433666229248,0.3693901598453522,0.2452215999364853
1772025769127774200,5.898774169921875,1.0489658117294312,0.30771639943122864,0.25088220834732056
1772025769137772300,5.908772216796875,1.0397456884384155,0.23188583552837372,0.2271326780319214
1772025769147769300,5.918769287109375,1.0006122589111328,0.16543829441070557,0.19289103150367737
1772025769157766400,5.928766357421875,0.9545515179634094,0.12768718600273132,0.15854956209659576
1772025769167764500,5.938764404296875,0.8988525867462158,0.12727561593055725,0.1312582641839981
1772025769177761300,5.94876123046875,0.8464109897613525,0.14562904834747314,0.11010637879371643
1772025769187758300,5.95875830078125,0.7881220579147339,0.13614381849765778,0.07932095229625702
1772025769197756400,5.96875634765625,0.7103620171546936,0.1146547794342041,0.039824411273002625
1772025769207753500,5.97875341796875,0.620789647102356,0.10424474626779556,-0.021535031497478485
1772025769217750300,5.988750244140625,0.5033442974090576,0.08132531493902206,-0.1270657181739807
1772025769227748400,5.998748291015625,0.3729930520057678,0.021271072328090668,-0.2785510718822479
1772025769237745400,6.008745361328125,0.2658444941043854,-0.02431851625442505,-0.4307533800601959
1772025769247742500,6.018742431640625,0.2016715258359909,-0.03378205746412277,-0.5531567335128784
1772025769257740300,6.028740234375,0.17165423929691315,-0.0002539262641221285,-0.6315122842788696
1772025769267737300,6.0387373046875,0.17768573760986328,0.09610962867736816,-0.664788007736206
1772025769277734400,6.048734375,0.23211435973644257,0.22037138044834137,-0.6511579751968384
1772025769287732500,6.058732421875,0.33330321311950684,0.32623738050460815,-0.6091352701187134
1772025769297729300,6.068729248046875,0.465577095746994,0.3990412652492523,-0.5474572777748108
1772025769307726300,6.078726318359375,0.5918108224868774,0.43779876828193665,-0.4836598336696625
1772025769317724200,6.08872412109375,0.6710199117660522,0.43732792139053345,-0.44439074397087097
1772025769327721500,6.098721435546875,0.7050220370292664,0.39365124702453613,-0.42477521300315857
1772025769337719600,6.108719482421875,0.7174022793769836,0.331345796585083,-0.4074265956878662
1772025769347716400,6.11871630859375,0.7132923603057861,0.28142890334129333,-0.37595272064208984
1772025769357713400,6.12871337890625,0.6922496557235718,0.25596320629119873,-0.31509947776794434
1772025769367711200,6.138711181640625,0.6425159573554993,0.22379454970359802,-0.2383301854133606
1772025769377708500,6.14870849609375,0.5827354192733765,0.16761143505573273,-0.14908446371555328
1772025769387705300,6.158705322265625,0.5091110467910767,0.10849925875663757,-0.06193441525101662
1772025769397703400,6.168703369140625,0.4402657151222229,0.044737059623003006,0.014272205531597137
1772025769407700200,6.1787001953125,0.38397204875946045,-0.011863786727190018,0.07611829787492752
1772025769417697500,6.188697509765625,0.3430373966693878,-0.05737614631652832,0.1180921122431755
1772025769427695400,6.1986953125,0.3034778833389282,-0.08015686273574829,0.13932380080223083
1772025769437692400,6.2086923828125,0.2711268961429596,-0.09176983684301376,0.13231836259365082
1772025769447689200,6.218689208984375,0.2477359026670456,-0.09173636138439178,0.10878156870603561
1772025769457687300,6.228687255859375,0.22915369272232056,-0.08138971775770187,0.06976998597383499
1772025769467684400,6.238684326171875,0.2231159657239914,-0.06269904226064682,0.02873336896300316
1772025769477681400,6.248681396484375,0.2252883017063141,-0.04183078184723854,-0.005673340056091547
1772025769487676400,6.258676513671875,0.22438929975032806,-0.030319875106215477,-0.036005713045597076
1772025769497673200,6.268673095703125,0.21669968962669373,-0.027353113517165184,-0.05341373011469841
1772025769507670500,6.27867041015625,0.21014030277729034,-0.030947087332606316,-0.06191267445683479
1772025769517668400,6.28866845703125,0.20095159113407135,-0.03958078846335411,-0.055117081850767136
1772025769527665400,6.29866552734375,0.19889278709888458,-0.050164226442575455,-0.036215610802173615
1772025769537662200,6.308662109375,0.2045874297618866,-0.07174382358789444,-0.009727277792990208
1772025769547660300,6.318660400390625,0.2110549360513687,-0.09226210415363312,0.022784318774938583
1772025769557657300,6.3286572265625,0.22140957415103912,-0.11052073538303375,0.06054847687482834
1772025769567654400,6.338654296875,0.24189238250255585,-0.11763416230678558,0.10046917200088501
1772025769577652200,6.34865234375,0.28139692544937134,-0.11214672029018402,0.14182806015014648
1772025769587649300,6.358649169921875,0.32657355070114136,-0.11843683570623398,0.1717105358839035
1772025769597646300,6.368646240234375,0.35119715332984924,-0.16028015315532684,0.1682220697402954
1772025769607644400,6.37864453125,0.3396669328212738,-0.21096022427082062,0.1262727826833725
1772025769617641200,6.38864111328125,0.3252507150173187,-0.24949456751346588,0.06525549292564392
1772025769627639300,6.398639404296875,0.32415705919265747,-0.27149665355682373,0.012738831341266632
1772025769637636000,6.408635986328125,0.31967893242836,-0.27368417382240295,-0.042288731783628464
1772025769647633400,6.41863330078125,0.30518752336502075,-0.27514874935150146,-0.08683044463396072
1772025769657631500,6.428631591796875,0.2902567684650421,-0.28116244077682495,-0.12273038923740387
1772025769667628300,6.438628173828125,0.2667027413845062,-0.29638200998306274,-0.14277108013629913
1772025769677625300,6.448625244140625,0.24161627888679504,-0.3154377043247223,-0.15243622660636902
1772025769687623200,6.458623046875,0.20892854034900665,-0.3208608627319336,-0.1609344482421875
1772025769697620500,6.468620361328125,0.17186692357063293,-0.3251951336860657,-0.1682477593421936
1772025769707617300,6.4786171875,0.1354689747095108,-0.3034440577030182,-0.16345512866973877
1772025769717615400,6.488615478515625,0.10144601762294769,-0.25197872519493103,-0.14222866296768188
1772025769727612200,6.498612060546875,0.06606925278902054,-0.18697397410869598,-0.12251774966716766
1772025769737609500,6.508609375,0.028937065973877907,-0.14906519651412964,-0.09472420066595078
1772025769747607300,6.518607177734375,-0.005293773952871561,-0.09159871935844421,-0.058452799916267395
1772025769757604400,6.528604248046875,-0.03417389094829559,-0.028874613344669342,-0.003903007134795189
1772025769767601200,6.53860107421875,-0.0645478144288063,0.018167195841670036,0.0622042715549469
1772025769777599200,6.54859912109375,-0.07430589944124222,0.06813874840736389,0.1440458744764328
1772025769787596300,6.55859619140625,-0.06034126877784729,0.13806267082691193,0.2412072718143463
1772025769797593300,6.56859326171875,-0.020598916336894035,0.20902100205421448,0.34724849462509155
1772025769807591200,6.578591064453125,0.028954623267054558,0.269426554441452,0.43770694732666016
1772025769817588200,6.588588134765625,0.06172242760658264,0.32125377655029297,0.496671199798584
1772025769827585300,6.598585205078125,0.07517505437135696,0.36066243052482605,0.5190021991729736
1772025769837583400,6.608583251953125,0.07052171975374222,0.37585681676864624,0.5042887926101685
1772025769847580200,6.618580078125,0.04869280755519867,0.3628779351711273,0.4648858904838562
1772025769857577200,6.6285771484375,0.01897113025188446,0.35116270184516907,0.401424378156662
1772025769867575300,6.6385751953125,-0.004411810077726841,0.324764609336853,0.33003148436546326
1772025769877572400,6.648572265625,-0.021212361752986908,0.29298990964889526,0.2530152499675751
1772025769887570400,6.6585703125,-0.036933645606040955,0.24541103839874268,0.1737363338470459
1772025769897567200,6.668567138671875,-0.04845554754137993,0.2077033370733261,0.09346066415309906
1772025769907564300,6.678564208984375,-0.0493801012635231,0.1723417341709137,0.008243056945502758
1772025769917562400,6.688562255859375,-0.03588080406188965,0.1274099498987198,-0.0776555985212326
1772025769927559400,6.698559326171875,0.00016971002332866192,0.07955960929393768,-0.1454666703939438
1772025769937556200,6.70855615234375,0.04156135767698288,0.052955158054828644,-0.19204242527484894
1772025769947554300,6.71855419921875,0.09134065359830856,0.05038246884942055,-0.21314679086208344
1772025769957551400,6.72855126953125,0.15564028918743134,0.05954161286354065,-0.21586640179157257
1772025769967548400,6.73854833984375,0.22014611959457397,0.06627723574638367,-0.1981913298368454
1772025769977546200,6.748546142578125,0.2848180830478668,0.08036056160926819,-0.16861025989055634
1772025769987543300,6.758543212890625,0.3336311876773834,0.09527114778757095,-0.12809133529663086
1772025769997540400,6.768540283203125,0.36257174611091614,0.10841571539640427,-0.09158260375261307
1772025770007538400,6.778538330078125,0.3797414302825928,0.12077103555202484,-0.05371364578604698
1772025770017535200,6.78853515625,0.41486531496047974,0.1325232833623886,-0.01843022182583809
1772025770027532300,6.7985322265625,0.43887922167778015,0.14366695284843445,0.014172905124723911
1772025770037530000,6.808530029296875,0.44573527574539185,0.18040846288204193,0.026748618111014366
1772025770047527400,6.81852734375,0.4273627996444702,0.2084421068429947,0.015455125831067562
1772025770057524200,6.828524169921875,0.38073617219924927,0.22778543829917908,-0.011880358681082726
1772025770067522300,6.838522216796875,0.31836891174316406,0.24547073245048523,-0.056294266134500504
1772025770077519400,6.848519287109375,0.24202726781368256,0.2575143575668335,-0.11230800300836563
1772025770087516400,6.858516357421875,0.16948717832565308,0.25162002444267273,-0.17851868271827698
1772025770097514500,6.868514404296875,0.10974396020174026,0.24234049022197723,-0.23601552844047546
1772025770107511300,6.87851123046875,0.07298968732357025,0.24118483066558838,-0.27582138776779175
1772025770117508400,6.88850830078125,0.05258800461888313,0.23595944046974182,-0.31355705857276917
1772025770127506200,6.898506103515625,0.045339785516262054,0.2210742086172104,-0.3499806225299835
1772025770137503500,6.90850341796875,0.05324191600084305,0.19837820529937744,-0.37697359919548035
1772025770147500300,6.918500244140625,0.07507386058568954,0.19112823903560638,-0.38216644525527954
1772025770157498400,6.928498291015625,0.1149834543466568,0.20025835931301117,-0.36799123883247375
1772025770167495200,6.9384951171875,0.1776866614818573,0.21105800569057465,-0.33746790885925293
1772025770177492500,6.948492431640625,0.2446899265050888,0.22362066805362701,-0.2951585352420807
1772025770187490300,6.958490234375,0.3013405501842499,0.23100319504737854,-0.25601693987846375
1772025770197487400,6.9684873046875,0.3488002121448517,0.22981701791286469,-0.2211148887872696
1772025770207485200,6.978485107421875,0.38405048847198486,0.22035689651966095,-0.192824587225914
1772025770217482200,6.988482177734375,0.4088757038116455,0.19333113729953766,-0.17746800184249878
1772025770227479300,6.998479248046875,0.41594651341438293,0.14242130517959595,-0.17412737011909485
1772025770237477400,7.008477294921875,0.41171127557754517,0.10028371214866638,-0.17907339334487915
1772025770247474200,7.01847412109375,0.3989581763744354,0.0542200431227684,-0.1798105537891388
1772025770257471200,7.02847119140625,0.37089964747428894,0.0335584431886673,-0.18663117289543152
1772025770267469300,7.03846923828125,0.3431047201156616,0.021126044914126396,-0.1817007064819336
1772025770277466400,7.04846630859375,0.3168019950389862,0.024726105853915215,-0.16139863431453705
1772025770287463200,7.058463134765625,0.2834007441997528,0.05900251120328903,-0.13074515759944916
1772025770297461200,7.068461181640625,0.2778858542442322,0.09806176275014877,-0.08880703151226044
1772025770307458300,7.078458251953125,0.2870701253414154,0.1585782915353775,-0.02327066846191883
1772025770317455400,7.088455322265625,0.3156690001487732,0.2365255504846573,0.05064723268151283
1772025770327453400,7.098453369140625,0.35283127427101135,0.3135034143924713,0.12635797262191772
1772025770337450200,7.1084501953125,0.4103472828865051,0.3846910297870636,0.20284636318683624
1772025770347447300,7.118447265625,0.47261306643486023,0.42491450905799866,0.26376470923423767
1772025770357445000,7.128445068359375,0.5065209269523621,0.40491682291030884,0.2851927876472473
1772025770367442400,7.1384423828125,0.4959527850151062,0.37010911107063293,0.2639378011226654
1772025770377439200,7.148439208984375,0.4687501788139343,0.33945000171661377,0.2328493744134903
1772025770387437300,7.158437255859375,0.4392010569572449,0.3133614957332611,0.1955663412809372
1772025770397434000,7.16843408203125,0.4095347821712494,0.29463067650794983,0.16706199944019318
1772025770407431400,7.178431396484375,0.37844082713127136,0.28116342425346375,0.1405283659696579
1772025770417429200,7.18842919921875,0.3640033006668091,0.2788930833339691,0.12462502717971802
1772025770427426300,7.19842626953125,0.3575408458709717,0.27400562167167664,0.11807871609926224
1772025770437423000,7.208423095703125,0.35547634959220886,0.254553884267807,0.10751928389072418
1772025770447421400,7.21842138671875,0.3498867154121399,0.21849744021892548,0.08098657429218292
1772025770457418200,7.228418212890625,0.34183597564697266,0.18110398948192596,0.04046284407377243
1772025770467415300,7.238415283203125,0.3278212249279022,0.15237027406692505,-0.00813391525298357
1772025770477413400,7.248413330078125,0.31751078367233276,0.14539971947669983,-0.05376797914505005
1772025770487410000,7.258409912109375,0.3373280465602875,0.15598878264427185,-0.07791359722614288
1772025770497406700,7.26840673828125,0.3639756441116333,0.17756599187850952,-0.09190265089273453
1772025770507404800,7.27840478515625,0.4011352062225342,0.20294705033302307,-0.09230928868055344
1772025770517401600,7.288401611328125,0.44457533955574036,0.2184234857559204,-0.0921793282032013
1772025770527399700,7.298399658203125,0.4988710284233093,0.2219858020544052,-0.087333545088768
1772025770537396700,7.308396728515625,0.5572280883789062,0.20331251621246338,-0.08147725462913513
1772025770547393800,7.318393798828125,0.6035478711128235,0.16836045682430267,-0.07644011825323105
1772025770557391600,7.3283916015625,0.6301387548446655,0.12788254022598267,-0.0747990757226944
1772025770567388700,7.338388671875,0.6439469456672668,0.08849789202213287,-0.07056652009487152
1772025770577385700,7.3483857421875,0.6578702330589294,0.07607477903366089,-0.049282006919384
1772025770587383800,7.3583837890625,0.6842330098152161,0.08744677901268005,-0.011737890541553497
1772025770597380600,7.368380615234375,0.7146157026290894,0.09340560436248779,0.02224484458565712
1772025770607377700,7.378377685546875,0.7535261511802673,0.10253411531448364,0.05767335742712021
1772025770617375500,7.38837548828125,0.7908714413642883,0.1046673133969307,0.09661569446325302
1772025770627372800,7.398372802734375,0.7968655824661255,0.11256533861160278,0.11246152967214584
1772025770637369600,7.40836962890625,0.7807915806770325,0.119554802775383,0.10838716477155685
1772025770647367700,7.41836767578125,0.7578548192977905,0.09794092923402786,0.0911254957318306
1772025770657364500,7.428364501953125,0.7265996932983398,0.06141488254070282,0.0626794695854187
1772025770667361800,7.43836181640625,0.6917689442634583,0.02895726077258587,0.0271941926330328
1772025770677359900,7.44835986328125,0.6523842215538025,-0.00666065514087677,-0.01606273278594017
1772025770687356700,7.458356689453125,0.6000102162361145,-0.031973354518413544,-0.06525713950395584
1772025770697353700,7.468353759765625,0.5380144715309143,-0.049920931458473206,-0.1211204081773758
1772025770707351800,7.478351806640625,0.45831167697906494,-0.06663762778043747,-0.20006172358989716
1772025770717348900,7.488348876953125,0.36394497752189636,-0.10372108221054077,-0.3003670275211334
1772025770727345700,7.498345703125,0.2638862729072571,-0.14025507867336273,-0.4196004867553711
1772025770737343700,7.50834375,0.1693427413702011,-0.16702784597873688,-0.5465677380561829
1772025770747340800,7.5183408203125,0.10252521187067032,-0.16458994150161743,-0.6575012803077698
1772025770757337900,7.528337890625,0.06628038734197617,-0.1078939139842987,-0.7219939827919006
1772025770767335700,7.538335693359375,0.05282837525010109,0.013134469278156757,-0.748224139213562
1772025770777332700,7.548332763671875,0.07833267003297806,0.14581768214702606,-0.7541595101356506
1772025770787329800,7.558329833984375,0.16960278153419495,0.23535458743572235,-0.7197913527488708
1772025770797328000,7.568327880859375,0.3123103976249695,0.3268030285835266,-0.6484825611114502
1772025770807324700,7.57832470703125,0.4773246645927429,0.4159771502017975,-0.5501245856285095
1772025770817321700,7.58832177734375,0.6376101970672607,0.47935906052589417,-0.44285860657691956
1772025770827319600,7.598319580078125,0.7539251446723938,0.49591755867004395,-0.34197673201560974
1772025770837316900,7.60831689453125,0.8158646821975708,0.4863176643848419,-0.2551765739917755
1772025770847313700,7.618313720703125,0.860693097114563,0.4673665165901184,-0.17625775933265686
1772025770857311700,7.628311767578125,0.8920294046401978,0.42643240094184875,-0.1013137549161911
1772025770867308500,7.63830859375,0.9289590120315552,0.3771803081035614,-0.03673814237117767
1772025770877306600,7.648306640625,0.9492826461791992,0.3300894796848297,0.019557885825634003
1772025770887304000,7.658303955078125,0.9299523830413818,0.2829284965991974,0.06425545364618301
1772025770897300700,7.66830078125,0.8845625519752502,0.22015243768692017,0.08851312100887299
1772025770907298800,7.678298828125,0.8026756644248962,0.1463499367237091,0.08940383046865463
1772025770917295600,7.688295654296875,0.6934365034103394,0.06617360562086105,0.07136809825897217
1772025770927293000,7.69829296875,0.5750165581703186,-0.020368212834000587,0.0446007214486599
1772025770937290800,7.708290771484375,0.4645390212535858,-0.09887207299470901,0.017895609140396118
1772025770947287800,7.718287841796875,0.3728107213973999,-0.15623827278614044,0.00006188009865581989
1772025770957284600,7.72828466796875,0.31548193097114563,-0.18700630962848663,-0.004055899567902088
1772025770967282700,7.73828271484375,0.2851075828075409,-0.19686269760131836,-0.005459166131913662
1772025770977279700,7.74827978515625,0.27031397819519043,-0.19472631812095642,-0.004668473731726408
1772025770987276800,7.75827685546875,0.27025502920150757,-0.18676204979419708,-0.002309247385710478
1772025770997274600,7.768274658203125,0.28089380264282227,-0.1673838347196579,-0.001988336443901062
1772025771007271700,7.778271728515625,0.302601158618927,-0.15309815108776093,-0.008313176222145557
1772025771017268700,7.788268798828125,0.32770225405693054,-0.13570983707904816,-0.007727280259132385
1772025771027266800,7.798266845703125,0.3570021688938141,-0.10988619178533554,-0.0009486385388299823
1772025771037263600,7.808263671875,0.3855251371860504,-0.08514675498008728,0.01584738679230213
1772025771047260700,7.8182607421875,0.4107838571071625,-0.051796671003103256,0.034018538892269135
1772025771057258500,7.828258544921875,0.43023160099983215,-0.02089761011302471,0.056154731661081314
1772025771067255800,7.838255859375,0.45491012930870056,0.0030765836127102375,0.0803961232304573
1772025771077252600,7.848252685546875,0.47099775075912476,0.00393598573282361,0.0982813760638237
1772025771087250700,7.858250732421875,0.48217472434043884,-0.014684949070215225,0.11134421080350876
1772025771097247500,7.86824755859375,0.4843723773956299,-0.05411118268966675,0.1292707473039627
1772025771107244800,7.878244873046875,0.48594754934310913,-0.10442864894866943,0.1532008945941925
1772025771117243000,7.888242919921875,0.4908429682254791,-0.15261322259902954,0.19152723252773285
1772025771127239700,7.89823974609375,0.5011377930641174,-0.16883189976215363,0.2396840751171112
1772025771137236700,7.90823681640625,0.5350094437599182,-0.16795599460601807,0.297455757856369
1772025771147234600,7.918234619140625,0.5595778822898865,-0.1862562894821167,0.3343491852283478
1772025771157231900,7.92823193359375,0.5373596549034119,-0.22078683972358704,0.3286827802658081
1772025771167228700,7.938228759765625,0.472456693649292,-0.24286893010139465,0.27615028619766235
1772025771177226800,7.948226806640625,0.41021037101745605,-0.25831687450408936,0.2002459168434143
1772025771187223600,7.9582236328125,0.3607378602027893,-0.27812471985816956,0.11487803608179092
1772025771197220900,7.968220947265625,0.30576568841934204,-0.2947534918785095,0.021552087739109993
1772025771207218700,7.97821875,0.26766619086265564,-0.3017301857471466,-0.0630720928311348
1772025771217215700,7.9882158203125,0.26482275128364563,-0.29449835419654846,-0.11636993288993835
1772025771227212500,7.998212646484375,0.28132525086402893,-0.28004586696624756,-0.1310294270515442
1772025771237210600,8.008210693359375,0.309146523475647,-0.25730541348457336,-0.11797300726175308
1772025771247207700,8.018207763671874,0.3392406702041626,-0.21998107433319092,-0.10075628012418747
1772025771257205800,8.028205810546876,0.37513288855552673,-0.195077583193779,-0.07267910242080688
1772025771267202600,8.03820263671875,0.4074574410915375,-0.16986417770385742,-0.030753323808312416
1772025771277200000,8.048199951171876,0.44547486305236816,-0.13181133568286896,0.043919049203395844
1772025771287198000,8.058197998046875,0.4578568935394287,-0.07139745354652405,0.14511334896087646
1772025771297194800,8.06819482421875,0.46768102049827576,0.030006660148501396,0.28160861134529114
1772025771307191600,8.078191650390625,0.47258299589157104,0.1332368701696396,0.4292508363723755
1772025771317189600,8.088189697265625,0.4825751781463623,0.21952170133590698,0.5646981596946716
1772025771327187000,8.09818701171875,0.4936412274837494,0.2679101526737213,0.6641042232513428
1772025771337183700,8.108183837890625,0.5132269263267517,0.2818954586982727,0.7253673076629639
1772025771347181800,8.118181884765624,0.524604082107544,0.27990853786468506,0.7514970898628235
1772025771357178600,8.1281787109375,0.5153706669807434,0.2764051556587219,0.7380436062812805
1772025771367176000,8.138176025390624,0.48778679966926575,0.2891954481601715,0.6980128884315491
1772025771377173800,8.148173828125,0.437487930059433,0.30949193239212036,0.636972188949585
1772025771387170800,8.1581708984375,0.3866908550262451,0.32718658447265625,0.5633818507194519
1772025771397167600,8.168167724609376,0.3436989188194275,0.34737253189086914,0.503748893737793
1772025771407165700,8.178165771484375,0.30593040585517883,0.3748399317264557,0.4570769965648651
1772025771417162800,8.188162841796874,0.28305649757385254,0.389717161655426,0.41882121562957764
1772025771427159800,8.198159912109375,0.26694455742836,0.4127589762210846,0.3833851218223572
1772025771437157600,8.20815771484375,0.2538425922393799,0.43124744296073914,0.31970682740211487
1772025771447154700,8.21815478515625,0.24547576904296875,0.42707106471061707,0.22380582988262177
1772025771457151700,8.22815185546875,0.23899948596954346,0.39841678738594055,0.07891017198562622
1772025771467149800,8.23814990234375,0.23774200677871704,0.3635842502117157,-0.10424675792455673
1772025771477146600,8.248146728515625,0.2488093078136444,0.3228655755519867,-0.3010474145412445
1772025771487143700,8.258143798828126,0.29001811146736145,0.2978920042514801,-0.4795665144920349
1772025771497141800,8.268141845703125,0.3589511215686798,0.287331223487854,-0.6075356602668762
1772025771507138800,8.278138916015624,0.44492727518081665,0.2813839316368103,-0.683295488357544
1772025771517136000,8.288135986328125,0.527463972568512,0.2914283275604248,-0.7003083229064941
1772025771527133700,8.2981337890625,0.6008683443069458,0.2985851466655731,-0.6662160158157349
1772025771537130800,8.308130859375,0.6589401960372925,0.293966680765152,-0.5981522798538208
1772025771547127800,8.3181279296875,0.6981926560401917,0.2691730558872223,-0.5051089525222778
1772025771557126000,8.3281259765625,0.7114067673683167,0.24011103808879852,-0.39985841512680054
1772025771567122700,8.338122802734375,0.6973952054977417,0.19929444789886475,-0.2914128303527832
1772025771577119700,8.34811962890625,0.6771940588951111,0.1574292927980423,-0.19526179134845734
1772025771587117800,8.358117919921876,0.6349962949752808,0.11672937870025635,-0.12181343883275986
1772025771597115000,8.368114990234375,0.5733925700187683,0.09035076946020126,-0.06867218762636185
1772025771607113000,8.378113037109374,0.5157894492149353,0.07960818707942963,-0.0372731052339077
1772025771617109800,8.38810986328125,0.4732198715209961,0.09219028800725937,-0.029191741719841957
1772025771627106800,8.39810693359375,0.4497217535972595,0.09086262434720993,-0.048383958637714386
1772025771637104600,8.408104736328125,0.43503549695014954,0.10143058001995087,-0.0816044956445694
1772025771647102000,8.41810205078125,0.4234657287597656,0.09483694285154343,-0.12342215329408646
1772025771657098800,8.4280986328125,0.4088502824306488,0.08217334747314453,-0.16125716269016266
1772025771667096800,8.438096923828125,0.39705145359039307,0.09001292288303375,-0.18409989774227142
1772025771677093600,8.44809375,0.39340052008628845,0.12196313589811325,-0.18921396136283875
1772025771687091000,8.458091064453125,0.4167497754096985,0.1515287458896637,-0.18913885951042175
1772025771697088800,8.4680888671875,0.4506409168243408,0.19188815355300903,-0.18537528812885284
1772025771707085800,8.4780859375,0.5048113465309143,0.24635916948318481,-0.17981891334056854
1772025771717082600,8.48808251953125,0.5672339797019958,0.2903639078140259,-0.1762034147977829
1772025771727080700,8.498080810546876,0.6261466145515442,0.3124573826789856,-0.17888647317886353
1772025771737077800,8.508077880859375,0.6717609763145447,0.3120642900466919,-0.1821531057357788
1772025771747074800,8.51807470703125,0.689487099647522,0.3029327392578125,-0.17438949644565582
1772025771757072600,8.52807275390625,0.6861027479171753,0.3029087483882904,-0.15867231786251068
1772025771767069700,8.538069580078124,0.6703031063079834,0.29916146397590637,-0.12275885045528412
1772025771777066800,8.548066650390625,0.6495120525360107,0.30346858501434326,-0.0778835192322731
1772025771787064800,8.55806494140625,0.6190977096557617,0.3192274570465088,-0.024990878999233246
1772025771797062000,8.568061767578126,0.5844638347625732,0.32414311170578003,0.03179703652858734
1772025771807058700,8.57805859375,0.5581316947937012,0.3183862268924713,0.09699541330337524
1772025771817056800,8.588056884765624,0.5378711223602295,0.3168434500694275,0.15383313596248627
1772025771827053800,8.5980537109375,0.5246374011039734,0.31631457805633545,0.2042371779680252
1772025771837051000,8.60805078125,0.5228216648101807,0.32549023628234863,0.23335297405719757
1772025771847048700,8.618048583984375,0.5238874554634094,0.334344744682312,0.24625997245311737
1772025771857046000,8.6280458984375,0.5525164604187012,0.3920450806617737,0.2625443935394287
1772025771867042800,8.638042724609376,0.6131635904312134,0.47459742426872253,0.28340789675712585
1772025771877041000,8.648041015625,0.6761528849601746,0.44949474930763245,0.2846129834651947
1772025771887037700,8.65803759765625,0.6852422952651978,0.3781505227088928,0.22762542963027954
1772025771897035000,8.668034912109375,0.6538739800453186,0.32582125067710876,0.15818031132221222
1772025771907032800,8.67803271484375,0.6304484605789185,0.33279743790626526,0.11924830079078674
1772025771917030000,8.68802978515625,0.5991579294204712,0.3568739891052246,0.09948471933603287
1772025771927027700,8.69802783203125,0.5639556646347046,0.38021624088287354,0.11295393854379654
1772025771937024800,8.708024658203126,0.5288450717926025,0.44429776072502136,0.17217572033405304
1772025771947021800,8.718021728515625,0.5104815363883972,0.542697548866272,0.26766160130500793
1772025771957020000,8.72802001953125,0.5231262445449829,0.6191763281822205,0.3666797876358032
1772025771967016700,8.7380166015625,0.5441997647285461,0.6221913695335388,0.42289048433303833
1772025771977013800,8.748013671875,0.5421438217163086,0.5712482929229736,0.43617138266563416
1772025771987011800,8.75801171875,0.5096325278282166,0.48307645320892334,0.40065571665763855
1772025771997009000,8.7680087890625,0.4494940936565399,0.38381457328796387,0.31991827487945557
1772025772007005700,8.778005615234376,0.3788762092590332,0.30133652687072754,0.21528305113315582
1772025772017003800,8.788003662109375,0.2959722578525543,0.27748605608940125,0.11480997502803802
1772025772027000800,8.798000732421874,0.22305256128311157,0.2917235195636749,0.029157498851418495
1772025772036998000,8.807997802734375,0.17033687233924866,0.3240002393722534,-0.03397832438349724
1772025772046996000,8.817995849609375,0.16140487790107727,0.3559277653694153,-0.06916320323944092
1772025772056992800,8.82799267578125,0.18941333889961243,0.3734167516231537,-0.0802701786160469
1772025772066989800,8.83798974609375,0.2445402294397354,0.388528972864151,-0.06866798549890518
1772025772076987600,8.847987548828126,0.32585078477859497,0.3910731077194214,-0.03186629340052605
1772025772086985000,8.85798486328125,0.4312058687210083,0.39091071486473083,0.018462855368852615
1772025772096981800,8.867981689453124,0.5541110038757324,0.39072027802467346,0.07920689880847931
1772025772106979800,8.877979736328125,0.6773681640625,0.3780021071434021,0.1408347338438034
1772025772116976600,8.8879765625,0.7772084474563599,0.3523359000682831,0.20543982088565826
1772025772126974000,8.897973876953126,0.8349712491035461,0.3266155421733856,0.2786560654640198
1772025772136971800,8.9079716796875,0.8639336228370667,0.3145466148853302,0.35276463627815247
1772025772146968800,8.91796875,0.8707019686698914,0.2867649495601654,0.4203401207923889
1772025772156965600,8.927965576171875,0.8519288301467896,0.2511052191257477,0.46691080927848816
1772025772166963700,8.937963623046874,0.8322178721427917,0.21349351108074188,0.4890512228012085
1772025772176960800,8.947960693359375,0.7998415231704712,0.1858038306236267,0.48031285405158997
1772025772186957800,8.957957763671875,0.7460745573043823,0.14205938577651978,0.4334668517112732
1772025772196956000,8.967955810546876,0.6694682240486145,0.0815047025680542,0.3421896696090698
1772025772206952700,8.97795263671875,0.5689061880111694,0.01754896342754364,0.21757811307907104
1772025772216949800,8.98794970703125,0.4619527757167816,-0.06164465844631195,0.07346568256616592
1772025772226947800,8.99794775390625,0.3373594880104065,-0.1463598906993866,-0.07658467441797256
1772025772236945000,9.00794482421875,0.20643316209316254,-0.24461854994297028,-0.22045741975307465
1772025772246941700,9.017941650390625,0.08755726367235184,-0.2942879796028137,-0.3270598351955414
1772025772256939800,9.027939697265625,-0.007019311189651489,-0.30716222524642944,-0.4059216380119324
1772025772266936800,9.037936767578126,-0.07484174519777298,-0.2689771056175232,-0.45189088582992554
1772025772276934000,9.047933837890625,-0.11275184154510498,-0.20498082041740417,-0.45975014567375183
1772025772286931700,9.057931640625,-0.10027184337377548,-0.11393944174051285,-0.43326160311698914
1772025772296928800,9.0679287109375,-0.02807515114545822,-0.015669597312808037,-0.38734471797943115
1772025772306925800,9.07792578125,0.0879649743437767,0.09124049544334412,-0.3202298879623413
1772025772316924000,9.087923828125,0.23195570707321167,0.19757705926895142,-0.243626207113266
1772025772326920700,9.097920654296875,0.36717188358306885,0.28801292181015015,-0.17673467099666595
1772025772336918800,9.107918701171876,0.4405161440372467,0.35026273131370544,-0.13251687586307526
1772025772346915800,9.117915771484375,0.46305564045906067,0.40096914768218994,-0.11249994486570358
1772025772356913000,9.127912841796874,0.4719460904598236,0.43862733244895935,-0.097963348031044
1772025772366910700,9.13791064453125,0.47737768292427063,0.4711460769176483,-0.09696897864341736
1772025772376907800,9.14790771484375,0.4875509738922119,0.5031607151031494,-0.10417895019054413
1772025772386904800,9.15790478515625,0.48160427808761597,0.5291843414306641,-0.12797343730926514
1772025772396903000,9.16790283203125,0.4701998233795166,0.5185583233833313,-0.1517307013273239
1772025772406899700,9.177899658203126,0.45346003770828247,0.4877626895904541,-0.1739494651556015
1772025772416896800,9.187896728515625,0.42032766342163086,0.45137643814086914,-0.18235866725444794
1772025772426894800,9.197894775390624,0.3703564405441284,0.4031732976436615,-0.1734798550605774
1772025772436892000,9.207891845703125,0.30572310090065,0.340072900056839,-0.14213605225086212
1772025772446888700,9.217888671875,0.21780341863632202,0.2650035321712494,-0.08089854568243027
1772025772456886800,9.22788671875,0.12513206899166107,0.18484584987163544,-0.007625129539519548
1772025772466883800,9.2378837890625,0.028931543231010437,0.09951812773942947,0.07667122781276703
1772025772476881000,9.247880859375,-0.05149618536233902,0.026011688634753227,0.16140662133693695
1772025772486879000,9.25787890625,-0.11860082298517227,-0.024968937039375305,0.23071452975273132
1772025772496876000,9.2678759765625,-0.16531479358673096,-0.051744889467954636,0.282522588968277
1772025772506872800,9.277872802734375,-0.20290617644786835,-0.05104493722319603,0.3015248477458954
1772025772516871000,9.287870849609375,-0.21856103837490082,-0.03551045060157776,0.2948592007160187
1772025772526868000,9.297867919921876,-0.21274591982364655,-0.020737819373607635,0.26858893036842346
1772025772536865000,9.307864990234375,-0.19804686307907104,0.0022607063874602318,0.22501240670681
1772025772546862800,9.31786279296875,-0.17051124572753906,0.013318795710802078,0.17009411752223969
1772025772556860000,9.32785986328125,-0.13819245994091034,0.01097974181175232,0.11952361464500427
1772025772566857000,9.33785693359375,-0.11335147172212601,-0.009458038955926895,0.07402332872152328
1772025772576855000,9.34785498046875,-0.09711204469203949,-0.037976767867803574,0.04744497686624527
1772025772586851800,9.357851806640625,-0.09648389369249344,-0.07062336057424545,0.04232349991798401
1772025772596849000,9.367848876953126,-0.09875157475471497,-0.1178172379732132,0.05189516767859459
1772025772606846700,9.3778466796875,-0.10505720227956772,-0.16467848420143127,0.08403168618679047
1772025772616844000,9.387843994140624,-0.10662180930376053,-0.20380724966526031,0.12082991749048233
1772025772626840800,9.3978408203125,-0.10170083492994308,-0.22980612516403198,0.1572052389383316
1772025772636839000,9.4078388671875,-0.09664242714643478,-0.25208666920661926,0.18220512568950653
1772025772646836000,9.4178359375,-0.09883543103933334,-0.2729969620704651,0.19231602549552917
1772025772656833000,9.4278330078125,-0.09688785672187805,-0.2837372124195099,0.19296610355377197
1772025772666831000,9.4378310546875,-0.09704598039388657,-0.2944958806037903,0.17076024413108826
1772025772676828000,9.447827880859375,-0.11061505228281021,-0.3292466700077057,0.1404161900281906
1772025772686825000,9.457824951171874,-0.11574968695640564,-0.3818516433238983,0.09341807663440704
1772025772696822800,9.46782275390625,-0.12301745265722275,-0.42692750692367554,0.050699375569820404
1772025772706820000,9.477820068359375,-0.14025257527828217,-0.456897109746933,0.021463017910718918
1772025772716818000,9.48781787109375,-0.15752051770687103,-0.47824928164482117,0.0010328441858291626
1772025772726815000,9.49781494140625,-0.17000365257263184,-0.49156221747398376,0.0024563809856772423
1772025772736811800,9.507811767578126,-0.17746156454086304,-0.47937318682670593,0.026310579851269722
1772025772746809900,9.517809814453125,-0.16911521553993225,-0.4300197660923004,0.07068230956792831
1772025772756807000,9.527806884765624,-0.15068374574184418,-0.3652442395687103,0.12424326688051224
1772025772766804000,9.537803955078125,-0.15121819078922272,-0.32958483695983887,0.14722205698490143
1772025772776801800,9.5478017578125,-0.19112911820411682,-0.30710962414741516,0.1217888668179512
1772025772786798800,9.557798828125,-0.2305990606546402,-0.2689496874809265,0.07515067607164383
1772025772796796000,9.5677958984375,-0.2317226380109787,-0.20806849002838135,0.030646851286292076
1772025772806794000,9.5777939453125,-0.2158774584531784,-0.15577538311481476,-0.013218033127486706
1772025772816790800,9.587790771484375,-0.21365664899349213,-0.10888510197401047,-0.06482343375682831
1772025772826787800,9.597787841796874,-0.21137182414531708,-0.0610056146979332,-0.11009416729211807
1772025772836786000,9.607785888671875,-0.19245459139347076,-0.011803713627159595,-0.14265237748622894
1772025772846783000,9.617782958984375,-0.15081578493118286,0.03807786479592323,-0.14333973824977875
1772025772856779800,9.62777978515625,-0.08906719833612442,0.07012847810983658,-0.12276149541139603
1772025772866777900,9.63777783203125,-0.03007875755429268,0.07906315475702286,-0.08649016171693802
1772025772876775000,9.64777490234375,0.013379238545894623,0.06342826783657074,-0.05116332694888115
1772025772886772000,9.65777197265625,0.04562254995107651,0.02730526402592659,-0.017269350588321686
1772025772896770000,9.66777001953125,0.05941399931907654,-0.018466219305992126,0.019491327926516533
1772025772906766800,9.677766845703125,0.0577092207968235,-0.05972440540790558,0.04829053208231926
1772025772916764000,9.687763916015625,0.03437060862779617,-0.09222535789012909,0.07738290727138519
1772025772926762000,9.697761962890626,0.005533378571271896,-0.12101797759532928,0.09859670698642731
1772025772936759000,9.707759033203125,-0.02747783437371254,-0.14800511300563812,0.11413252353668213
1772025772946755800,9.717755859375,-0.05339939147233963,-0.1670527309179306,0.139645054936409
1772025772956754000,9.72775390625,-0.06918501108884811,-0.16857393085956573,0.16979283094406128
1772025772966751000,9.7377509765625,-0.0761558935046196,-0.17299728095531464,0.19774885475635529
1772025772976748000,9.747748046875,-0.0866631269454956,-0.17849963903427124,0.21796011924743652
1772025772986745900,9.757745849609375,-0.09572783857584,-0.1756661981344223,0.23486152291297913
1772025772996743000,9.767742919921876,-0.10455089062452316,-0.16108910739421844,0.23632706701755524
1772025773006740000,9.777739990234375,-0.10822813957929611,-0.13497720658779144,0.23028911650180817
1772025773016738000,9.787738037109374,-0.1245085746049881,-0.0856863409280777,0.21831047534942627
1772025773026734800,9.79773486328125,-0.14975863695144653,-0.023471593856811523,0.18884918093681335
1772025773036732000,9.80773193359375,-0.1750837117433548,0.0444781631231308,0.15709897875785828
1772025773046730000,9.81772998046875,-0.2143240123987198,0.12183614075183868,0.10905980318784714
1772025773056727000,9.82772705078125,-0.2542056441307068,0.1723025143146515,0.05751698464155197
1772025773066723800,9.837723876953126,-0.2910160422325134,0.18684561550617218,-0.0019193607149645686
1772025773076722000,9.847721923828125,-0.32278674840927124,0.19473683834075928,-0.04712918400764465
1772025773086719000,9.857718994140624,-0.34149593114852905,0.20984303951263428,-0.07542462646961212
1772025773096716000,9.867716064453125,-0.35246336460113525,0.21186065673828125,-0.09167656302452087
1772025773106714000,9.877714111328125,-0.3546924293041229,0.1803545504808426,-0.11004718393087387
1772025773116711000,9.8877109375,-0.3559667468070984,0.1125941351056099,-0.13536426424980164
1772025773126709000,9.897708984375,-0.35850998759269714,0.025033853948116302,-0.16876912117004395
1772025773136705800,9.907705810546876,-0.36675143241882324,-0.06152980029582977,-0.2118457555770874
1772025773146703000,9.917703125,-0.3833915889263153,-0.13884250819683075,-0.2682321071624756
1772025773156701000,9.927700927734374,-0.3932197093963623,-0.22187136113643646,-0.343819797039032
1772025773166699000,9.937698974609376,-0.37517884373664856,-0.2903344929218292,-0.4091009795665741
1772025773176697000,9.947697021484375,-0.3389763832092285,-0.33219537138938904,-0.4415028691291809
1772025773186694000,9.95769384765625,-0.2864101827144623,-0.3619048297405243,-0.4486778974533081
1772025773196691000,9.96769091796875,-0.22121283411979675,-0.34491175413131714,-0.40974485874176025
1772025773206688800,9.977688720703124,-0.14109554886817932,-0.3119131326675415,-0.33459264039993286
1772025773216686000,9.98768603515625,-0.06456296890974045,-0.2990197241306305,-0.24249786138534546
1772025773226683000,9.997682861328125,-0.003909462597221136,-0.2761000990867615,-0.13189134001731873
1772025773236681000,10.007680908203126,0.03233908861875534,-0.25469735264778137,-0.016752226278185844
1772025773246677800,10.017677734375,0.04203170910477638,-0.2382558435201645,0.07487846910953522
1772025773256675000,10.027675048828126,0.02039964869618416,-0.23581399023532867,0.13328586518764496
1772025773266673000,10.0376728515625,-0.028688112273812294,-0.24668702483177185,0.15536391735076904
1772025773276670000,10.047669921875,-0.09212621301412582,-0.2578198313713074,0.16178055107593536
1772025773286666800,10.057666748046875,-0.19025100767612457,-0.25751423835754395,0.15085671842098236
1772025773296664800,10.067664794921875,-0.3121441900730133,-0.27155575156211853,0.1130688488483429
1772025773306662000,10.077661865234376,-0.4480094611644745,-0.2568987309932709,0.0659385547041893
1772025773316659000,10.087658935546875,-0.5673403739929199,-0.21565701067447662,0.01368041057139635
1772025773326656800,10.09765673828125,-0.653178334236145,-0.17535048723220825,-0.057664740830659866
1772025773336653800,10.10765380859375,-0.6903203725814819,-0.15722209215164185,-0.13830286264419556
1772025773346651000,10.11765087890625,-0.6895933151245117,-0.14955979585647583,-0.20823705196380615
1772025773356649000,10.12764892578125,-0.6669729948043823,-0.13413475453853607,-0.2664276659488678
1772025773366645800,10.137645751953125,-0.6236829161643982,-0.11284483969211578,-0.31201040744781494
1772025773376642800,10.147642822265626,-0.5753893852233887,-0.10677656531333923,-0.34520697593688965
1772025773386641200,10.15764111328125,-0.5313957929611206,-0.1072852686047554,-0.35628563165664673
1772025773396638000,10.167637939453124,-0.49250829219818115,-0.10559176653623581,-0.3571125268936157
1772025773406635000,10.177635009765625,-0.4599679410457611,-0.1058611273765564,-0.33908623456954956
1772025773416632800,10.1876328125,-0.44528594613075256,-0.1089852824807167,-0.3044382631778717
1772025773426630100,10.197630126953126,-0.4202514886856079,-0.1214921697974205,-0.2593892514705658
1772025773436627000,10.207626953125,-0.393977552652359,-0.15152062475681305,-0.20242612063884735
1772025773446625000,10.217625,-0.3669675886631012,-0.18146656453609467,-0.14671938121318817
1772025773456621800,10.227621826171875,-0.3430401682853699,-0.2086361199617386,-0.09750736504793167
1772025773466620000,10.237619873046874,-0.33279019594192505,-0.21682146191596985,-0.0474371500313282
1772025773476617000,10.247616943359375,-0.33211347460746765,-0.2012835144996643,-0.007981622591614723
1772025773486613200,10.25761328125,-0.3449450433254242,-0.16765505075454712,0.030106080695986748
1772025773496611300,10.267611328125,-0.35012251138687134,-0.10860984772443771,0.06250396370887756
1772025773506608000,10.277608154296875,-0.34808170795440674,-0.054825559258461,0.09107182174921036
1772025773516605400,10.28760546875,-0.3455525040626526,-0.018458496779203415,0.09816248714923859
1772025773526603500,10.297603515625,-0.35343167185783386,0.006946878507733345,0.07622680068016052
1772025773536600300,10.307600341796874,-0.38609135150909424,-0.005007252562791109,0.022097520530223846
1772025773546597000,10.31759716796875,-0.45683854818344116,-0.032812364399433136,-0.08075986057519913
1772025773556595200,10.32759521484375,-0.5724197030067444,-0.03777436539530754,-0.2129621058702469
1772025773566592500,10.337592529296876,-0.6944398880004883,0.0061678290367126465,-0.3425331711769104
1772025773576589300,10.34758935546875,-0.8044564127922058,0.04210931807756424,-0.44887638092041016
1772025773586587400,10.35758740234375,-0.8769494295120239,0.06496912986040115,-0.528144896030426
1772025773596584400,10.36758447265625,-0.9188172221183777,0.0867958664894104,-0.5695695877075195
1772025773606581500,10.37758154296875,-0.9234652519226074,0.11343101412057877,-0.5820497870445251
1772025773616579300,10.387579345703125,-0.9070106744766235,0.10475470125675201,-0.5781623721122742
1772025773626576400,10.397576416015625,-0.8538176417350769,0.09006854891777039,-0.5389366149902344
1772025773636573400,10.407573486328126,-0.7790483236312866,0.11670735478401184,-0.4740673005580902
1772025773646571500,10.417571533203125,-0.700588583946228,0.12718433141708374,-0.4032272696495056
1772025773656568300,10.427568359375,-0.6207704544067383,0.12870021164417267,-0.3197086751461029
1772025773666565400,10.4375654296875,-0.5564689636230469,0.1463974565267563,-0.23639316856861115
1772025773676563200,10.447563232421874,-0.516710102558136,0.21086885035037994,-0.14511385560035706
1772025773686560500,10.457560546875,-0.4981391727924347,0.30689358711242676,-0.04940163716673851
1772025773696557300,10.467557373046875,-0.4994422495365143,0.4386151432991028,0.039203062653541565
1772025773706555400,10.477555419921876,-0.5032429099082947,0.5499881505966187,0.12485914677381516
1772025773716552200,10.48755224609375,-0.5132462978363037,0.6315248012542725,0.20706745982170105
1772025773726549500,10.497549560546876,-0.516859769821167,0.6459245681762695,0.27014902234077454
1772025773736547300,10.50754736328125,-0.5332145094871521,0.6173722743988037,0.3015780448913574
1772025773746544400,10.51754443359375,-0.5576218962669373,0.5569204092025757,0.2971591055393219
1772025773756541200,10.527541259765625,-0.6047071218490601,0.4650338888168335,0.2693597078323364
1772025773766539300,10.537539306640625,-0.6766985058784485,0.36415448784828186,0.21392013132572174
1772025773776536300,10.547536376953126,-0.7582431435585022,0.20727911591529846,0.15621741116046906
1772025773786533400,10.557533447265625,-0.8234907984733582,0.03106701374053955,0.12467212229967117
1772025773796531500,10.567531494140624,-0.8765875697135925,-0.12405172735452652,0.13798846304416656
1772025773806528300,10.5775283203125,-0.9283912181854248,-0.22846803069114685,0.19877023994922638
1772025773816526300,10.5875263671875,-0.981266438961029,-0.27185946702957153,0.2845431864261627
1772025773826523400,10.5975234375,-1.0242984294891357,-0.2949873208999634,0.34912168979644775
1772025773836520400,10.6075205078125,-1.0711373090744019,-0.3419593572616577,0.3617189824581146
1772025773846518300,10.617518310546876,-1.1058694124221802,-0.41043615341186523,0.3052811324596405
1772025773856515300,10.627515380859375,-1.1301417350769043,-0.46328499913215637,0.19709978997707367
1772025773866512400,10.637512451171874,-1.1320254802703857,-0.5005670785903931,0.05150827765464783
1772025773876510500,10.647510498046875,-1.0997437238693237,-0.5167607069015503,-0.10470875352621078
1772025773886507300,10.65750732421875,-1.0229125022888184,-0.5104359984397888,-0.2572227120399475
1772025773896504300,10.66750439453125,-0.905721127986908,-0.4831676185131073,-0.3760601580142975
1772025773906502100,10.677502197265625,-0.7537452578544617,-0.44680285453796387,-0.4685901701450348
1772025773916499500,10.68749951171875,-0.5917342901229858,-0.40400558710098267,-0.5239591002464294
1772025773926496300,10.697496337890625,-0.43885812163352966,-0.3370293378829956,-0.5412231087684631
1772025773936494300,10.707494384765624,-0.3193487823009491,-0.24829253554344177,-0.5284820199012756
1772025773946491100,10.7174912109375,-0.23839405179023743,-0.15118344128131866,-0.46878403425216675
1772025773956488400,10.727488525390624,-0.1931312382221222,-0.07331927120685577,-0.37737396359443665
1772025773966486500,10.737486572265626,-0.1748078465461731,-0.02889394387602806,-0.2606377601623535
1772025773976483300,10.7474833984375,-0.1946457326412201,-0.041842229664325714,-0.1306946873664856
1772025773986480000,10.757480224609376,-0.24873314797878265,-0.06735406070947647,-0.0012456561671569943
1772025773996478200,10.767478271484375,-0.30832722783088684,-0.09235847741365433,0.11660215258598328
1772025774006475500,10.7774755859375,-0.3500955402851105,-0.16163794696331024,0.20243695378303528
1772025774016472300,10.787472412109375,-0.3715824782848358,-0.2815510630607605,0.2621900141239166
1772025774026470400,10.797470458984375,-0.39017632603645325,-0.36479032039642334,0.3008907735347748
1772025774036467200,10.80746728515625,-0.4023815989494324,-0.38646844029426575,0.3191600739955902
1772025774046464500,10.817464599609375,-0.41081708669662476,-0.3650039732456207,0.3115296959877014
1772025774056462300,10.82746240234375,-0.41162431240081787,-0.322923868894577,0.27299270033836365
1772025774066459400,10.83745947265625,-0.3932395279407501,-0.2752399146556854,0.2128012776374817
1772025774076456200,10.847456298828124,-0.38179832696914673,-0.2151683270931244,0.1452198326587677
1772025774086454300,10.857454345703125,-0.3810659646987915,-0.1866292804479599,0.07909929752349854
1772025774096451300,10.867451416015625,-0.38684287667274475,-0.19116252660751343,0.039504215121269226
1772025774106448400,10.877448486328126,-0.40170833468437195,-0.21702486276626587,0.028400667011737823
1772025774116446200,10.8874462890625,-0.4157056510448456,-0.2645691931247711,0.04307921230792999
1772025774126443300,10.897443359375,-0.4236113429069519,-0.3235515356063843,0.08482430875301361
1772025774136440300,10.9074404296875,-0.4174940586090088,-0.3820981979370117,0.15682339668273926
1772025774146438400,10.9174384765625,-0.41761621832847595,-0.41899627447128296,0.23750370740890503
1772025774156435200,10.927435302734375,-0.4338971972465515,-0.45781344175338745,0.303636372089386
1772025774166432300,10.937432373046875,-0.4612328112125397,-0.5028640031814575,0.350724458694458
1772025774176430300,10.947430419921876,-0.4977594017982483,-0.5340496301651001,0.3671276867389679
1772025774186427400,10.957427490234375,-0.5411602258682251,-0.5584119558334351,0.3604814112186432
1772025774196424200,10.967424072265626,-0.5845593810081482,-0.5799662470817566,0.33577072620391846
1772025774206422300,10.97742236328125,-0.6160944104194641,-0.5776429176330566,0.30108705163002014
1772025774216419600,10.987419677734374,-0.6321337819099426,-0.5266923904418945,0.27160292863845825
1772025774226417400,10.99741748046875,-0.6186195611953735,-0.4613480567932129,0.25816020369529724
1772025774236414500,11.00741455078125,-0.586309015750885,-0.36694806814193726,0.2583594024181366
1772025774246411300,11.017411376953126,-0.5343528389930725,-0.281585156917572,0.27579495310783386
1772025774256409300,11.027409423828125,-0.4948967397212982,-0.23410393297672272,0.2948927581310272
1772025774266406400,11.037406494140624,-0.48930197954177856,-0.19792377948760986,0.31419986486434937
1772025774276403500,11.047403564453125,-0.5060093402862549,-0.16519540548324585,0.3237670063972473
1772025774286401300,11.0574013671875,-0.5019886493682861,-0.1400868445634842,0.3347366452217102
1772025774296398300,11.0673984375,-0.4762313961982727,-0.1300312876701355,0.34818774461746216
1772025774306395400,11.0773955078125,-0.4516202509403229,-0.10053232312202454,0.35736897587776184
1772025774316393500,11.0873935546875,-0.429575651884079,-0.07884567230939865,0.35317501425743103
1772025774326390300,11.097390380859375,-0.42070508003234863,-0.07755555957555771,0.35800886154174805
1772025774336387300,11.10738720703125,-0.4597872495651245,-0.16438260674476624,0.35660430788993835
1772025774346385200,11.11738525390625,-0.4976765215396881,-0.2933971583843231,0.31416961550712585
1772025774356382500,11.127382568359375,-0.5096564888954163,-0.38668689131736755,0.2338484227657318
1772025774366379300,11.137379150390625,-0.5095463395118713,-0.4316069483757019,0.15236453711986542
1772025774376377300,11.14737744140625,-0.5066964626312256,-0.4152381122112274,0.07708576321601868
1772025774386374100,11.1573740234375,-0.49297162890434265,-0.34269264340400696,0.013413440436124802
1772025774396371500,11.167371337890625,-0.4733284115791321,-0.27183791995048523,-0.029696213081479073
1772025774406369500,11.17736962890625,-0.4274550676345825,-0.22010205686092377,-0.04486951231956482
1772025774416366300,11.187366455078125,-0.3557502329349518,-0.20027588307857513,-0.041236162185668945
1772025774426363100,11.197363037109374,-0.28352126479148865,-0.20644615590572357,-0.011549802497029305
