time,seconds_elapsed,z,y,x
1772025716797071000,0.083071044921875,0.7528578042984009,0.26835644245147705,-0.07960285246372223
1772025716807068200,0.093068115234375,0.6797484755516052,0.21063563227653503,-0.21590636670589447
1772025716817066200,0.103066162109375,0.620307445526123,0.17751863598823547,-0.35558170080184937
1772025716827063000,0.11306298828125,0.5925620794296265,0.1596810519695282,-0.47192829847335815
1772025716837060000,0.12306005859375,0.594926655292511,0.17116974294185638,-0.5449888110160828
1772025716847058200,0.13305810546875,0.6202616095542908,0.2495090216398239,-0.5888151526451111
1772025716857055200,0.14305517578125,0.6771624684333801,0.3683421313762665,-0.6079204678535461
1772025716867052000,0.153052001953125,0.764587938785553,0.4716953933238983,-0.6171184778213501
1772025716877050000,0.163050048828125,0.8642860054969788,0.5269230008125305,-0.6245751976966858
1772025716887047200,0.173047119140625,0.9563887715339661,0.5417861342430115,-0.6268239617347717
1772025716897045200,0.183045166015625,1.0267027616500854,0.5490928888320923,-0.6181317567825317
1772025716907042000,0.1930419921875,1.0679465532302856,0.5381014943122864,-0.6008819341659546
1772025716917039000,0.2030390625,1.087592601776123,0.5013181567192078,-0.5746212601661682
1772025716927037200,0.213037109375,1.1066131591796875,0.45487287640571594,-0.5219870209693909
1772025716937034200,0.2230341796875,1.125557780265808,0.415050208568573,-0.4716852903366089
1772025716947031300,0.23303125,1.1301583051681519,0.3437134325504303,-0.43957075476646423
1772025716957029000,0.243029052734375,1.119626760482788,0.2204112410545349,-0.42850998044013977
1772025716967026200,0.253026123046875,1.0975427627563477,0.09146525710821152,-0.4258319139480591
1772025716977024000,0.26302392578125,1.0658445358276367,-0.010076550766825676,-0.41131287813186646
1772025716987021300,0.273021240234375,1.0375603437423706,-0.08241172879934311,-0.3897987902164459
1772025716997018000,0.28301806640625,1.014487624168396,-0.1411653608083725,-0.36830002069473267
1772025717007016200,0.29301611328125,0.9872533082962036,-0.18310216069221497,-0.3405112624168396
1772025717017013000,0.303012939453125,0.9461661577224731,-0.20386679470539093,-0.3047512173652649
1772025717027010300,0.31301025390625,0.9020452499389648,-0.18835707008838654,-0.2598689794540405
1772025717037008100,0.323008056640625,0.8747119903564453,-0.12384968996047974,-0.20398272573947906
1772025717047005200,0.333005126953125,0.8715649247169495,-0.030081652104854584,-0.14008469879627228
1772025717057003300,0.343003173828125,0.8842633962631226,0.028411835432052612,-0.08938710391521454
1772025717067000000,0.353,0.89058917760849,0.032585274428129196,-0.05996423959732056
1772025717076997000,0.3629970703125,0.887692391872406,0.015528448857367039,-0.03884989395737648
1772025717086995200,0.3729951171875,0.8656885623931885,-0.02240641787648201,-0.01657921075820923
1772025717096992300,0.3829921875,0.8316056132316589,-0.05252208188176155,0.020680205896496773
1772025717106989000,0.392989013671875,0.7793983221054077,-0.0730060562491417,0.06197917461395264
1772025717116987100,0.402987060546875,0.7285809516906738,-0.10290144383907318,0.09666698426008224
1772025717126984200,0.412984130859375,0.6871933341026306,-0.16113625466823578,0.11932968348264694
1772025717136982300,0.422982177734375,0.6492799520492554,-0.2327399104833603,0.13853414356708527
1772025717146979000,0.43297900390625,0.6147704124450684,-0.27461543679237366,0.15323372185230255
1772025717156976000,0.44297607421875,0.6052082180976868,-0.27642303705215454,0.18323875963687897
1772025717166974000,0.452973876953125,0.5941134691238403,-0.27790188789367676,0.20857606828212738
1772025717176971300,0.46297119140625,0.5575211644172668,-0.2811450660228729,0.2013920098543167
1772025717186968000,0.472968017578125,0.5081517696380615,-0.2814026176929474,0.15532438457012177
1772025717196966100,0.482966064453125,0.45702892541885376,-0.29575642943382263,0.08252260833978653
1772025717206963000,0.492962890625,0.4020615518093109,-0.31911927461624146,-0.0007520463550463319
1772025717216961000,0.5029609375,0.32972392439842224,-0.35157960653305054,-0.09186011552810669
1772025717226958000,0.5129580078125,0.24615392088890076,-0.3766234219074249,-0.1848190873861313
1772025717236955100,0.522955078125,0.18149830400943756,-0.37374386191368103,-0.2513118386268616
1772025717246953200,0.532953125,0.16196800768375397,-0.30436453223228455,-0.26783859729766846
1772025717256950000,0.542949951171875,0.18501286208629608,-0.21454668045043945,-0.2552209496498108
1772025717266947000,0.552947021484375,0.23168182373046875,-0.1036638393998146,-0.20688004791736603
1772025717276945200,0.562945068359375,0.2906695008277893,0.025622207671403885,-0.14978106319904327
1772025717286942200,0.572942138671875,0.3535672426223755,0.1507417857646942,-0.07802752405405045
1772025717296940000,0.58293994140625,0.4239479899406433,0.25044503808021545,-0.000014486140571534634
1772025717306937300,0.592937255859375,0.48059049248695374,0.32016634941101074,0.08126652240753174
1772025717316934100,0.60293408203125,0.5329484939575195,0.35965287685394287,0.15487723052501678
1772025717326932200,0.61293212890625,0.5706242322921753,0.37392956018447876,0.21514882147312164
1772025717336929000,0.622928955078125,0.5898605585098267,0.36785557866096497,0.2638513445854187
1772025717346926300,0.63292626953125,0.5879944562911987,0.33283182978630066,0.30737537145614624
1772025717356924200,0.642924072265625,0.563243567943573,0.2564128041267395,0.3383840024471283
1772025717366921200,0.652921142578125,0.515279233455658,0.16341708600521088,0.36585238575935364
1772025717376919000,0.6629189453125,0.4540972411632538,0.07582437992095947,0.38986364006996155
1772025717386916000,0.672916015625,0.38736453652381897,0.01672244817018509,0.4113582968711853
1772025717396913200,0.6829130859375,0.33321765065193176,-0.018785692751407623,0.42506471276283264
1772025717406911200,0.6929111328125,0.28471270203590393,-0.03381364420056343,0.421487033367157
1772025717416908000,0.702907958984375,0.23136168718338013,-0.05676161125302315,0.38809916377067566
1772025717426905000,0.712905029296875,0.16884425282478333,-0.10035277158021927,0.3219968378543854
1772025717436902400,0.72290234375,0.10199930518865585,-0.1567455381155014,0.2398005723953247
1772025717446899700,0.732899658203125,0.033274296671152115,-0.18522165715694427,0.15827295184135437
1772025717456897500,0.7428974609375,-0.03171869367361069,-0.17611654102802277,0.07968300580978394
1772025717466894600,0.75289453125,-0.0847475528717041,-0.12227195501327515,-0.0036334521137177944
1772025717476891400,0.762891357421875,-0.11682483553886414,-0.03450116887688637,-0.09051162749528885
1772025717486889700,0.7728896484375,-0.11836334317922592,0.07802191376686096,-0.17429786920547485
1772025717496886500,0.782886474609375,-0.09274832159280777,0.21716272830963135,-0.25552329421043396
1772025717506883600,0.792883544921875,-0.044651634991168976,0.34514865279197693,-0.320041298866272
1772025717516881400,0.80288134765625,0.017041297629475594,0.44641774892807007,-0.36313238739967346
1772025717526878700,0.812878662109375,0.09290383756160736,0.511494517326355,-0.3755083680152893
1772025717536876500,0.82287646484375,0.16132086515426636,0.5507761240005493,-0.36543187499046326
1772025717546873600,0.83287353515625,0.21354146301746368,0.5586340427398682,-0.3347320258617401
1772025717556870400,0.842870361328125,0.24432413280010223,0.5348209738731384,-0.30025434494018555
1772025717566868500,0.852868408203125,0.26128554344177246,0.49928268790245056,-0.2595479190349579
1772025717576865800,0.86286572265625,0.2714034914970398,0.44304031133651733,-0.2266121357679367
1772025717586862600,0.872862548828125,0.26432135701179504,0.36474764347076416,-0.18382711708545685
1772025717596860700,0.882860595703125,0.23451530933380127,0.3070058226585388,-0.15676608681678772
1772025717606857500,0.892857421875,0.18680158257484436,0.269371896982193,-0.13857856392860413
1772025717616855600,0.90285546875,0.13222995400428772,0.2431764155626297,-0.1283806562423706
1772025717626852600,0.9128525390625,0.08679350465536118,0.22505652904510498,-0.13098682463169098
1772025717636849700,0.922849609375,0.060663238167762756,0.21296481788158417,-0.14564871788024902
1772025717646847500,0.932847412109375,0.0633343830704689,0.20847418904304504,-0.17003129422664642
1772025717656844500,0.942844482421875,0.08328504115343094,0.21048036217689514,-0.19467778503894806
1772025717666841600,0.952841552734375,0.12463061511516571,0.22387181222438812,-0.21165117621421814
1772025717676839700,0.962839599609375,0.18003900349140167,0.23875057697296143,-0.2245728224515915
1772025717686836500,0.97283642578125,0.2546120285987854,0.2521175146102905,-0.22377361357212067
1772025717696834600,0.98283447265625,0.34636974334716797,0.2691183388233185,-0.20209021866321564
1772025717706831400,0.992831298828125,0.44922634959220886,0.27609342336654663,-0.167861670255661
1772025717716828700,1.00282861328125,0.5434494018554688,0.26947733759880066,-0.12373915314674377
1772025717726826800,1.01282666015625,0.6206709742546082,0.2576931118965149,-0.06801570951938629
1772025717736823600,1.022823486328125,0.6737669110298157,0.23273609578609467,-0.008490404114127159
1772025717746820400,1.0328203125,0.7142064571380615,0.21356134116649628,0.050573982298374176
1772025717756818400,1.042818359375,0.7381453514099121,0.1978123039007187,0.09579160809516907
1772025717766815700,1.052815673828125,0.745779275894165,0.17988203465938568,0.12788909673690796
1772025717776813600,1.0628134765625,0.7390444278717041,0.16608600318431854,0.1454881876707077
1772025717786810600,1.072810546875,0.7246096134185791,0.16258127987384796,0.16334281861782074
1772025717796807400,1.082807373046875,0.6901723742485046,0.1712057739496231,0.1693793386220932
1772025717806805500,1.092805419921875,0.6501078009605408,0.18184323608875275,0.16650019586086273
1772025717816802600,1.102802490234375,0.6053834557533264,0.18879111111164093,0.1553410291671753
1772025717826799600,1.112799560546875,0.5577826499938965,0.1908004730939865,0.14250512421131134
1772025717836797400,1.12279736328125,0.5117275714874268,0.2099648416042328,0.12180356681346893
1772025717846794500,1.13279443359375,0.45598387718200684,0.2532491981983185,0.10265570133924484
1772025717856792600,1.14279248046875,0.40166693925857544,0.303373247385025,0.08574416488409042
1772025717866789600,1.15278955078125,0.3542299270629883,0.3640344440937042,0.06828688085079193
1772025717876786400,1.162786376953125,0.3194633424282074,0.4299105107784271,0.05984285846352577
1772025717886784500,1.172784423828125,0.3063283860683441,0.4852379262447357,0.0598473846912384
1772025717896781600,1.182781494140625,0.30660805106163025,0.5322805047035217,0.06301268190145493
1772025717906778600,1.192778564453125,0.3285818099975586,0.592329740524292,0.07662995904684067
1772025717916776700,1.202776611328125,0.37253427505493164,0.6626145243644714,0.10135994106531143
1772025717926773500,1.2127734375,0.4258483648300171,0.7013182640075684,0.11478280276060104
1772025717936771600,1.222771484375,0.46464914083480835,0.704921543598175,0.09579120576381683
1772025717946768600,1.2327685546875,0.4984150826931,0.69222092628479,0.06674543768167496
1772025717956765700,1.242765625,0.5275007486343384,0.6689146161079407,0.03239259123802185
1772025717966763500,1.252763427734375,0.5493460893630981,0.6167025566101074,-0.001736884587444365
1772025717976760600,1.262760498046875,0.5320984125137329,0.5281093120574951,-0.03611376881599426
1772025717986757600,1.272757568359375,0.47826656699180603,0.4114915728569031,-0.06833801418542862
1772025717996755700,1.282755615234375,0.4023122489452362,0.29217809438705444,-0.08589310199022293
1772025718006752500,1.29275244140625,0.3173885643482208,0.20643097162246704,-0.08364485949277878
1772025718016750600,1.30275048828125,0.2424367368221283,0.16134652495384216,-0.057272978127002716
1772025718026747400,1.312747314453125,0.18299071490764618,0.16976609826087952,-0.015813419595360756
1772025718036744700,1.32274462890625,0.14648115634918213,0.22171422839164734,0.03162786737084389
1772025718046742800,1.33274267578125,0.13235440850257874,0.28583380579948425,0.07673222571611404
1772025718056739600,1.342739501953125,0.1449720710515976,0.3354223370552063,0.10825745761394501
1772025718066736400,1.352736328125,0.18745215237140656,0.375637948513031,0.1354680359363556
1772025718076734500,1.362734375,0.2548971474170685,0.4058099687099457,0.15600961446762085
1772025718086731800,1.372731689453125,0.33199167251586914,0.4166133403778076,0.16619113087654114
1772025718096728600,1.382728515625,0.3997153043746948,0.42058107256889343,0.1611134260892868
1772025718106726700,1.3927265625,0.45075640082359314,0.417294979095459,0.13853886723518372
1772025718116723500,1.402723388671875,0.48863425850868225,0.4139549136161804,0.10761597007513046
1772025718126721500,1.412721435546875,0.5125803351402283,0.4026274085044861,0.06882143765687943
1772025718136718600,1.422718505859375,0.5270140171051025,0.38697656989097595,0.03273194283246994
1772025718146715600,1.432715576171875,0.5400728583335876,0.37932342290878296,0.0038060194347053766
1772025718156713500,1.44271337890625,0.5697652697563171,0.39017245173454285,-0.010858608409762383
1772025718166710500,1.45271044921875,0.6222357153892517,0.41011127829551697,0.005581351462751627
1772025718176707600,1.46270751953125,0.690449595451355,0.40957877039909363,0.03318634629249573
1772025718186705700,1.47270556640625,0.7680240273475647,0.3820810914039612,0.0698828399181366
1772025718196702500,1.482702392578125,0.8370260000228882,0.35481029748916626,0.10350991040468216
1772025718206700500,1.492700439453125,0.8991460800170898,0.31474170088768005,0.1382787972688675
1772025718216697300,1.502697265625,0.9448291659355164,0.28015223145484924,0.16756147146224976
1772025718226694700,1.512694580078125,0.976901650428772,0.272744357585907,0.19128623604774475
1772025718236692700,1.522692626953125,0.9958841800689697,0.2605561316013336,0.1959218680858612
1772025718246689500,1.532689453125,1.0044972896575928,0.2355077564716339,0.17276035249233246
1772025718256686300,1.542686279296875,0.9941812753677368,0.18976876139640808,0.1246371641755104
1772025718266684400,1.552684326171875,0.9534890055656433,0.13980387151241302,0.044906917959451675
1772025718276681700,1.562681640625,0.8663988709449768,0.06266351044178009,-0.07434210926294327
1772025718286679600,1.572679443359375,0.7370448708534241,-0.04019070044159889,-0.22500166296958923
1772025718296676600,1.582676513671875,0.5709748864173889,-0.16023372113704681,-0.40468448400497437
1772025718306673400,1.59267333984375,0.38879337906837463,-0.2775249183177948,-0.5808666944503784
1772025718316671500,1.60267138671875,0.21705128252506256,-0.3760000765323639,-0.7340874075889587
1772025718326668500,1.61266845703125,0.07549869269132614,-0.42165517807006836,-0.8489388823509216
1772025718336665600,1.62266552734375,-0.033297099173069,-0.3918926417827606,-0.9086789488792419
1772025718346663400,1.632663330078125,-0.10074378550052643,-0.3041883707046509,-0.9228661060333252
1772025718356660500,1.642660400390625,-0.10835789889097214,-0.19303235411643982,-0.8915411829948425
1772025718366658600,1.652658447265625,-0.06451507657766342,-0.06408850103616714,-0.8189870715141296
1772025718376655600,1.662655517578125,0.019132688641548157,0.07567301392555237,-0.7232350707054138
1772025718386652400,1.67265234375,0.12817421555519104,0.21430732309818268,-0.6189528703689575
1772025718396650500,1.682650390625,0.2527488172054291,0.3255656063556671,-0.5036836862564087
1772025718406647600,1.6926474609375,0.34816908836364746,0.3847349286079407,-0.39678993821144104
1772025718416644600,1.70264453125,0.39021268486976624,0.39282745122909546,-0.3279874324798584
1772025718426642700,1.712642578125,0.398003488779068,0.367837131023407,-0.28542560338974
1772025718436639200,1.72263916015625,0.39837345480918884,0.3273210823535919,-0.25643181800842285
1772025718446636300,1.73263623046875,0.3857596814632416,0.28653767704963684,-0.24201533198356628
1772025718456634400,1.74263427734375,0.3563130795955658,0.22922681272029877,-0.2418689876794815
1772025718466631400,1.75263134765625,0.31267452239990234,0.1711089164018631,-0.23956403136253357
1772025718476629200,1.762629150390625,0.2684503495693207,0.12724311649799347,-0.23006120324134827
1772025718486626300,1.772626220703125,0.22101707756519318,0.08026254922151566,-0.21523138880729675
1772025718496623400,1.782623291015625,0.1817781627178192,0.02488546445965767,-0.1921004354953766
1772025718506621400,1.792621337890625,0.15545788407325745,-0.02974129654467106,-0.16746646165847778
1772025718516618200,1.8026181640625,0.14532560110092163,-0.07858302444219589,-0.1236988827586174
1772025718526615300,1.812615234375,0.13984695076942444,-0.13377170264720917,-0.08041345328092575
1772025718536613000,1.822613037109375,0.13287131488323212,-0.18242903053760529,-0.04175473749637604
1772025718546610400,1.8326103515625,0.11715015023946762,-0.21514810621738434,-0.004547981545329094
1772025718556608300,1.842608154296875,0.10005741566419601,-0.23008519411087036,0.020462220534682274
1772025718566605300,1.852605224609375,0.07999609410762787,-0.23883368074893951,0.029084738343954086
1772025718576602000,1.86260205078125,0.05840470269322395,-0.2432873249053955,0.023005681112408638
1772025718586600200,1.87260009765625,0.04887271672487259,-0.224067822098732,0.02103334479033947
1772025718596597200,1.88259716796875,0.05065881088376045,-0.18065477907657623,0.02450696751475334
1772025718606594300,1.89259423828125,0.05866587162017822,-0.13614004850387573,0.031451959162950516
1772025718616592400,1.90259228515625,0.07561860978603363,-0.1026475727558136,0.03757663071155548
1772025718626589200,1.912589111328125,0.10642685741186142,-0.06382694095373154,0.06027848273515701
1772025718636587300,1.922587158203125,0.15009577572345734,-0.024698443710803986,0.0971214547753334
1772025718646584300,1.932584228515625,0.20645305514335632,0.008164430968463421,0.14722855389118195
1772025718656581400,1.942581298828125,0.23658761382102966,-0.009748033247888088,0.18958474695682526
1772025718666579200,1.9525791015625,0.2054494023323059,-0.07342448085546494,0.18888592720031738
1772025718676576300,1.962576171875,0.1369144767522812,-0.13514341413974762,0.1693652868270874
1772025718686573300,1.9725732421875,0.0732382982969284,-0.1499149054288864,0.1621827334165573
1772025718696571400,1.9825712890625,0.025186466053128242,-0.13653835654258728,0.17252932488918304
1772025718706568200,1.992568115234375,-0.009600542485713959,-0.12460259348154068,0.18685446679592133
1772025718716566300,2.002566162109375,-0.03614731878042221,-0.12083585560321808,0.18478071689605713
1772025718726563300,2.012563232421875,-0.039851777255535126,-0.10123100131750107,0.18284380435943604
1772025718736560400,2.022560302734375,-0.008692978881299496,-0.08837664127349854,0.17998604476451874
1772025718746558500,2.032558349609375,0.02784079872071743,-0.1060834676027298,0.15663225948810577
1772025718756555300,2.04255517578125,0.04783128201961517,-0.1369367241859436,0.10329286009073257
1772025718766552300,2.05255224609375,0.0674651712179184,-0.16891463100910187,0.03319047763943672
1772025718776550400,2.06255029296875,0.08042620867490768,-0.1852414757013321,-0.03928345814347267
1772025718786547500,2.07254736328125,0.09575217217206955,-0.17113232612609863,-0.08958790451288223
1772025718796545300,2.082545166015625,0.11200845241546631,-0.13935917615890503,-0.11690541356801987
1772025718806542300,2.092542236328125,0.12288932502269745,-0.09602420777082443,-0.11883460730314255
1772025718816539400,2.102539306640625,0.13063837587833405,-0.06645569950342178,-0.1125670075416565
1772025718826537500,2.112537353515625,0.13424907624721527,-0.041804686188697815,-0.08663900196552277
1772025718836534300,2.1225341796875,0.14258794486522675,-0.0232803076505661,-0.0385255292057991
1772025718846531300,2.13253125,0.1550225168466568,0.002192295389249921,0.03130708262324333
1772025718856529200,2.142529052734375,0.162394717335701,0.025735430419445038,0.11115937680006027
1772025718866526500,2.1525263671875,0.16127780079841614,0.042447030544281006,0.18998494744300842
1772025718876523300,2.162523193359375,0.13996417820453644,0.0537070706486702,0.25395268201828003
1772025718886521300,2.172521240234375,0.10929866880178452,0.06257939338684082,0.30128955841064453
1772025718896518100,2.18251806640625,0.069264717400074,0.06559477746486664,0.3315703570842743
1772025718906516200,2.19251611328125,0.013806512579321861,0.05887402221560478,0.34436631202697754
1772025718916513300,2.20251318359375,-0.0562325157225132,0.049446772783994675,0.3452458381652832
1772025718926510300,2.21251025390625,-0.1220988854765892,0.034100841730833054,0.32468119263648987
1772025718936508400,2.22250830078125,-0.1840997189283371,0.011462494730949402,0.2898521423339844
1772025718946505200,2.232505126953125,-0.23837147653102875,-0.011717925779521465,0.23896126449108124
1772025718956502300,2.242502197265625,-0.29853206872940063,-0.04700608551502228,0.17111651599407196
1772025718966500400,2.252500244140625,-0.3779560327529907,-0.10714851319789886,0.06326328963041306
1772025718976497400,2.262497314453125,-0.48002901673316956,-0.19073477387428284,-0.06799208372831345
1772025718986495200,2.2724951171875,-0.5711556673049927,-0.25918492674827576,-0.2081523835659027
1772025718996492300,2.2824921875,-0.6360040307044983,-0.2956646680831909,-0.3248296082019806
1772025719006489300,2.2924892578125,-0.6654218435287476,-0.28894683718681335,-0.4015054702758789
1772025719016487400,2.3024873046875,-0.6803892850875854,-0.23660540580749512,-0.43854743242263794
1772025719026484200,2.312484130859375,-0.6783612966537476,-0.1394951045513153,-0.43340805172920227
1772025719036481300,2.322481201171875,-0.6420471668243408,-0.02123226597905159,-0.39596322178840637
1772025719046479000,2.33247900390625,-0.5653185844421387,0.09665149450302124,-0.3312132656574249
1772025719056476400,2.342476318359375,-0.458689421415329,0.19268736243247986,-0.24833481013774872
1772025719066474200,2.35247412109375,-0.3435266315937042,0.2584972679615021,-0.1650705486536026
1772025719076471300,2.36247119140625,-0.25819385051727295,0.3058842122554779,-0.09205852448940277
1772025719086468000,2.372468017578125,-0.2051713615655899,0.3244219422340393,-0.04205634817481041
1772025719096466200,2.382466064453125,-0.18062637746334076,0.3289826810359955,-0.01572074182331562
1772025719106463200,2.392463134765625,-0.17378897964954376,0.3249828815460205,-0.01794181764125824
1772025719116460300,2.402460205078125,-0.19262641668319702,0.3174802362918854,-0.05114418640732765
1772025719126458400,2.412458251953125,-0.23467746376991272,0.3020150065422058,-0.10331177711486816
1772025719136455400,2.422455322265625,-0.2811806797981262,0.2834642827510834,-0.168086975812912
1772025719146453500,2.43245361328125,-0.3252496123313904,0.2579410672187805,-0.23691263794898987
1772025719156450300,2.4424501953125,-0.349570631980896,0.2218104749917984,-0.2977287471294403
1772025719166447400,2.452447265625,-0.35120445489883423,0.1953226774930954,-0.3467490077018738
1772025719176445200,2.462445068359375,-0.3422206938266754,0.16793465614318848,-0.3907051980495453
1772025719186442500,2.4724423828125,-0.31840404868125916,0.11738333106040955,-0.42178988456726074
1772025719196439300,2.482439208984375,-0.28634899854660034,0.05553935840725899,-0.431668221950531
1772025719206437400,2.492437255859375,-0.24756458401679993,-0.004955411888659,-0.4185313880443573
1772025719216434200,2.50243408203125,-0.19987790286540985,-0.058526571840047836,-0.38399890065193176
1772025719226432300,2.512432373046875,-0.1485968679189682,-0.10971545428037643,-0.33095911145210266
1772025719236429300,2.52242919921875,-0.09246110916137695,-0.15716050565242767,-0.2730085849761963
1772025719246426400,2.53242626953125,-0.04859325662255287,-0.19280052185058594,-0.20784877240657806
1772025719256424400,2.542424560546875,-0.00887960847467184,-0.20309390127658844,-0.14348456263542175
1772025719266421200,2.552421142578125,0.03197008743882179,-0.19554702937602997,-0.08034101873636246
1772025719276418300,2.562418212890625,0.06839358061552048,-0.17904974520206451,-0.018054340034723282
1772025719286416400,2.57241650390625,0.09569524228572845,-0.16176928579807281,0.04099113866686821
1772025719296413400,2.582413330078125,0.11915092915296555,-0.1462882161140442,0.09364602714776993
1772025719306410200,2.59241015625,0.13327978551387787,-0.12654860317707062,0.13904865086078644
1772025719316408300,2.602408203125,0.13766878843307495,-0.11041145026683807,0.18091562390327454
1772025719326405400,2.6124052734375,0.13483412563800812,-0.08611142635345459,0.21666696667671204
1772025719336403500,2.622403564453125,0.12893548607826233,-0.05754343792796135,0.25063425302505493
1772025719346400300,2.632400146484375,0.11939923465251923,-0.018123595044016838,0.28192636370658875
1772025719356397300,2.642397216796875,0.11191084235906601,0.0711338073015213,0.32080647349357605
1772025719366395100,2.65239501953125,0.11801400780677795,0.18894831836223602,0.3668924868106842
1772025719376392400,2.662392333984375,0.13153791427612305,0.2584412693977356,0.39608877897262573
1772025719386389200,2.67238916015625,0.12464964389801025,0.27954763174057007,0.3832233250141144
1772025719396387300,2.68238720703125,0.10390688478946686,0.272784024477005,0.342517226934433
1772025719406384000,2.692384033203125,0.07032229006290436,0.26928114891052246,0.28586140275001526
1772025719416382200,2.70238232421875,0.0164956022053957,0.28277674317359924,0.226292222738266
1772025719426379300,2.712379150390625,-0.048562224954366684,0.2787742614746094,0.15276473760604858
1772025719436376800,2.722376953125,-0.1344827264547348,0.25636643171310425,0.06816916167736053
1772025719446375000,2.732375,-0.23353208601474762,0.22313977777957916,-0.025460919365286827
1772025719456371700,2.742371826171875,-0.3171370327472687,0.2107216715812683,-0.11307239532470703
1772025719466369000,2.752369140625,-0.36440521478652954,0.2077554315328598,-0.17622819542884827
1772025719476367000,2.7623671875,-0.3882090449333191,0.21773481369018555,-0.22030523419380188
1772025719486364000,2.772364013671875,-0.3963058590888977,0.21983711421489716,-0.2585700452327728
1772025719496362000,2.782362060546875,-0.38066357374191284,0.2279214859008789,-0.2764022648334503
1772025719506358800,2.79235888671875,-0.3456757664680481,0.24864807724952698,-0.28171366453170776
1772025719516356000,2.802356201171875,-0.29494708776474,0.289896696805954,-0.27087461948394775
1772025719526354000,2.81235400390625,-0.23595644533634186,0.332104355096817,-0.23864422738552094
1772025719536351000,2.82235107421875,-0.1685575544834137,0.3622260093688965,-0.1926087737083435
1772025719546347800,2.83234765625,-0.09486683458089828,0.3875662386417389,-0.13967019319534302
1772025719556345900,2.842345947265625,-0.013733843341469765,0.39866989850997925,-0.07333836704492569
1772025719566343000,2.852343017578125,0.06892987340688705,0.39505651593208313,-0.005623233038932085
1772025719576341000,2.862341064453125,0.1403743326663971,0.3749598562717438,0.0724240317940712
1772025719586337800,2.872337890625,0.19423756003379822,0.3625399172306061,0.14309100806713104
1772025719596334800,2.8823349609375,0.23855726420879364,0.3625073730945587,0.22238142788410187
1772025719606332700,2.892332763671875,0.2744913101196289,0.3560390770435333,0.30643588304519653
1772025719616330000,2.902330078125,0.30846965312957764,0.33552753925323486,0.3914279341697693
1772025719626326800,2.912326904296875,0.3405226767063141,0.32147616147994995,0.476289838552475
1772025719636324900,2.922324951171875,0.3701407313346863,0.29337120056152344,0.5596755146980286
1772025719646321700,2.93232177734375,0.3939512372016907,0.2444465309381485,0.6263993978500366
1772025719656319700,2.94231982421875,0.4127569794654846,0.1684952974319458,0.6783965229988098
1772025719666317000,2.952317138671875,0.4099542796611786,0.07860960811376572,0.7112791538238525
1772025719676313900,2.96231396484375,0.39110660552978516,-0.0007697580149397254,0.720377504825592
1772025719686312000,2.97231201171875,0.3717121183872223,-0.049217186868190765,0.7105840444564819
1772025719696308700,2.982308837890625,0.33439406752586365,-0.08895417302846909,0.6734845638275146
1772025719706306000,2.99230615234375,0.2949598431587219,-0.12641578912734985,0.6100099682807922
1772025719716304000,3.002303955078125,0.24728800356388092,-0.16684463620185852,0.5215641260147095
1772025719726301000,3.012301025390625,0.19202475249767303,-0.22074754536151886,0.415513813495636
1772025719736298800,3.022298828125,0.11378013342618942,-0.2768299877643585,0.2868695557117462
1772025719746295800,3.0322958984375,0.0074976300820708275,-0.3206525444984436,0.13928407430648804
1772025719756292900,3.04229296875,-0.09888666868209839,-0.34634026885032654,-0.0061372388154268265
1772025719766291000,3.052291015625,-0.18236477673053741,-0.3378634452819824,-0.13810618221759796
1772025719776287700,3.062287841796875,-0.23957186937332153,-0.29528555274009705,-0.24217379093170166
1772025719786284800,3.072284912109375,-0.26914653182029724,-0.21950316429138184,-0.3170379102230072
1772025719796283000,3.082282958984375,-0.2754594385623932,-0.11154812574386597,-0.3438003659248352
1772025719806280000,3.092280029296875,-0.2537309527397156,0.013205526396632195,-0.33948710560798645
1772025719816276700,3.10227685546875,-0.2050550878047943,0.14150604605674744,-0.3171500265598297
1772025719826274800,3.11227490234375,-0.1401171088218689,0.2312479168176651,-0.2967209219932556
1772025719836272000,3.122272216796875,-0.0717681273818016,0.27797576785087585,-0.2892235815525055
1772025719846270000,3.13227001953125,-0.01322838757187128,0.28735411167144775,-0.29534912109375
1772025719856267000,3.14226708984375,0.035355158150196075,0.2830404043197632,-0.30643001198768616
1772025719866263800,3.152263916015625,0.06835838407278061,0.2667282819747925,-0.3119843006134033
1772025719876262000,3.162261962890625,0.09314877539873123,0.23441478610038757,-0.31412214040756226
1772025719886259000,3.172259033203125,0.11084841191768646,0.18060243129730225,-0.30967387557029724
1772025719896256000,3.182256103515625,0.11520276218652725,0.11083366721868515,-0.30402079224586487
1772025719906253800,3.19225390625,0.10417860746383667,0.03230956569314003,-0.3045424818992615
1772025719916251000,3.2022509765625,0.08402399718761444,-0.05260644108057022,-0.3040803074836731
1772025719926248700,3.212248779296875,0.05517610162496567,-0.139285147190094,-0.2986093759536743
1772025719936246000,3.22224609375,0.014417820610105991,-0.2202077955007553,-0.2933296263217926
1772025719946242800,3.232242919921875,-0.029513951390981674,-0.3059661090373993,-0.2852512001991272
1772025719956241000,3.242240966796875,-0.07401054352521896,-0.389212965965271,-0.27643027901649475
1772025719966237700,3.25223779296875,-0.12554112076759338,-0.4589718282222748,-0.2724592387676239
1772025719976235000,3.262235107421875,-0.17230989038944244,-0.510444164276123,-0.26108017563819885
1772025719986233000,3.272233154296875,-0.2094905525445938,-0.5234904289245605,-0.23312576115131378
1772025719996230000,3.28222998046875,-0.2372695803642273,-0.505764365196228,-0.19187960028648376
1772025720006228000,3.29222802734375,-0.26839128136634827,-0.4972374439239502,-0.1461336761713028
1772025720016224800,3.302224853515625,-0.29301974177360535,-0.5097517371177673,-0.10659192502498627
1772025720026222000,3.31222216796875,-0.31951233744621277,-0.5444875955581665,-0.07431041449308395
1772025720036220000,3.322219970703125,-0.34466472268104553,-0.5847663283348083,-0.04949674755334854
1772025720046217000,3.332217041015625,-0.3740444481372833,-0.6182830333709717,-0.036759380251169205
1772025720056213800,3.3422138671875,-0.40609973669052124,-0.6509119272232056,-0.03350146859884262
1772025720066211800,3.3522119140625,-0.44104626774787903,-0.6710802912712097,-0.0385148711502552
1772025720076209000,3.362208984375,-0.4756741225719452,-0.6817310452461243,-0.04618231579661369
1772025720086207000,3.37220703125,-0.5111514329910278,-0.6693883538246155,-0.04881857708096504
1772025720096203800,3.382203857421875,-0.543536901473999,-0.6447373628616333,-0.05140450596809387
1772025720106200800,3.392200927734375,-0.5695115327835083,-0.6132316589355469,-0.044026486575603485
1772025720116198700,3.40219873046875,-0.5712759494781494,-0.5603155493736267,-0.024813838303089142
1772025720126196000,3.412196044921875,-0.5399821996688843,-0.5059801340103149,0.015319998376071453
1772025720136192800,3.42219287109375,-0.5038714408874512,-0.48822247982025146,0.046038296073675156
1772025720146190800,3.43219091796875,-0.4897819757461548,-0.5040085911750793,0.05497719347476959
1772025720156188000,3.44218798828125,-0.503625214099884,-0.5208847522735596,0.05221356824040413
1772025720166185700,3.452185791015625,-0.5167633891105652,-0.5164657831192017,0.05120902135968208
1772025720176183000,3.46218310546875,-0.5273154377937317,-0.49875783920288086,0.046023111790418625
1772025720186179800,3.472179931640625,-0.5337578654289246,-0.47593483328819275,0.03443090245127678
1772025720196178000,3.482177978515625,-0.5361322164535522,-0.441489577293396,0.021153248846530914
1772025720206175000,3.492175048828125,-0.535616397857666,-0.4042929410934448,0.009829222224652767
1772025720216172000,3.502172119140625,-0.5356345176696777,-0.3749966025352478,-0.005536150187253952
1772025720226169900,3.512169921875,-0.5226926207542419,-0.3679530918598175,-0.010923191905021667
1772025720236167000,3.5221669921875,-0.5129014849662781,-0.3892964720726013,-0.021764053031802177
1772025720246164000,3.5321640625,-0.5085040330886841,-0.4337901771068573,-0.03424229472875595
1772025720256162000,3.542162109375,-0.5133700370788574,-0.4827941954135895,-0.044881824404001236
1772025720266158800,3.552158935546875,-0.5218876004219055,-0.5085498690605164,-0.03881407529115677
1772025720276157000,3.562156982421875,-0.5311330556869507,-0.5079410672187805,-0.018278975039720535
1772025720286153700,3.57215380859375,-0.5432637333869934,-0.4948684275150299,0.007272724993526936
1772025720296151000,3.582151123046875,-0.5501939058303833,-0.4630236029624939,0.042210400104522705
1772025720306149000,3.592149169921875,-0.543929934501648,-0.41304299235343933,0.07632230222225189
1772025720316146000,3.60214599609375,-0.5414271950721741,-0.3859899640083313,0.09795349091291428
1772025720326144000,3.61214404296875,-0.5453284382820129,-0.3857707977294922,0.11717245727777481
1772025720336140800,3.622140869140625,-0.5651426315307617,-0.3813110888004303,0.13017801940441132
1772025720346138000,3.63213818359375,-0.5860881209373474,-0.3640998899936676,0.15500879287719727
1772025720356136000,3.642135986328125,-0.6094405651092529,-0.32293498516082764,0.1928989142179489
1772025720366133000,3.652133056640625,-0.623931884765625,-0.26290813088417053,0.25021570920944214
1772025720376129800,3.6621298828125,-0.6319587826728821,-0.18681015074253082,0.31201592087745667
1772025720386128000,3.6721279296875,-0.6270700693130493,-0.12283170968294144,0.3681598901748657
1772025720396125000,3.682125,-0.6227889060974121,-0.0842876210808754,0.39954495429992676
1772025720406123000,3.692123046875,-0.6244422197341919,-0.0729936882853508,0.4106980264186859
1772025720416119800,3.702119873046875,-0.6360169053077698,-0.07365301996469498,0.3992171287536621
1772025720426116900,3.712116943359375,-0.6467723846435547,-0.0896543562412262,0.36805710196495056
1772025720436118000,3.722117919921875,-0.6587450504302979,-0.12340569496154785,0.3261885344982147
1772025720446115300,3.732115234375,-0.6673411726951599,-0.17302411794662476,0.27807560563087463
1772025720456112000,3.742112060546875,-0.6840597987174988,-0.2303028255701065,0.21053729951381683
1772025720466110200,3.752110107421875,-0.7132025361061096,-0.2786343991756439,0.1292344480752945
1772025720476107000,3.76210693359375,-0.7637017965316772,-0.3155118525028229,0.025365043431520462
1772025720486104300,3.772104248046875,-0.8010520935058594,-0.3305794596672058,-0.07433092594146729
1772025720496102100,3.78210205078125,-0.7997395396232605,-0.31740841269493103,-0.1646430492401123
1772025720506099200,3.79209912109375,-0.7636933922767639,-0.2809303104877472,-0.23746292293071747
1772025720516097000,3.802096923828125,-0.6986353397369385,-0.21512165665626526,-0.2772420048713684
1772025720526094000,3.812093994140625,-0.607308566570282,-0.12254244834184647,-0.29268595576286316
1772025720536091100,3.822091064453125,-0.48696500062942505,-0.038177043199539185,-0.2873595654964447
1772025720546089200,3.832089111328125,-0.36219242215156555,0.028987610712647438,-0.26650410890579224
1772025720556086300,3.842086181640625,-0.24748051166534424,0.09575754404067993,-0.2274291217327118
1772025720566084000,3.852083984375,-0.1634172946214676,0.14538422226905823,-0.1757182627916336
1772025720576081200,3.8620810546875,-0.11026239395141602,0.1718176007270813,-0.11109726130962372
1772025720586078200,3.872078125,-0.07898196578025818,0.18512515723705292,-0.037194009870290756
1772025720596076300,3.882076171875,-0.07084105163812637,0.1950506567955017,0.043942857533693314
1772025720606073000,3.892072998046875,-0.07906489074230194,0.19287538528442383,0.1258702129125595
1772025720616070100,3.902070068359375,-0.10805366188287735,0.17013651132583618,0.18351513147354126
1772025720626068200,3.912068115234375,-0.1508040577173233,0.13171721994876862,0.22527216374874115
1772025720636065300,3.922065185546875,-0.208013117313385,0.09592646360397339,0.23470966517925262
1772025720646062000,3.93206201171875,-0.269538551568985,0.06359942257404327,0.22411082684993744
1772025720656060200,3.94206005859375,-0.3427852392196655,0.03877388313412666,0.1829870194196701
1772025720666057200,3.95205712890625,-0.4142224192619324,0.020711524412035942,0.12259399145841599
1772025720676055300,3.96205517578125,-0.47026869654655457,0.021811800077557564,0.03526447340846062
1772025720686052000,3.972052001953125,-0.4920853078365326,0.042466744780540466,-0.056393008679151535
1772025720696049200,3.982049072265625,-0.4731021821498871,0.07215604186058044,-0.14401386678218842
1772025720706047200,3.992047119140625,-0.4320029616355896,0.10621334612369537,-0.21677914261817932
1772025720716044300,4.002044189453125,-0.3740357458591461,0.13518653810024261,-0.2692725360393524
1772025720726042400,4.01204248046875,-0.31446510553359985,0.15729877352714539,-0.29767781496047974
1772025720736039200,4.0220390625,-0.2525377571582794,0.16775766015052795,-0.2981422245502472
1772025720746036200,4.0320361328125,-0.19804710149765015,0.17327386140823364,-0.2768113911151886
1772025720756034000,4.042033935546875,-0.14820490777492523,0.18219371140003204,-0.2259860336780548
1772025720766031400,4.05203125,-0.10470111668109894,0.20463058352470398,-0.1594592034816742
1772025720776028200,4.062028076171875,-0.08307380974292755,0.21093915402889252,-0.09237683564424515
1772025720786026200,4.072026123046875,-0.07134977728128433,0.1934480518102646,-0.025354931131005287
1772025720796023000,4.08202294921875,-0.08187495917081833,0.1645791381597519,0.04858268052339554
1772025720806021000,4.092021240234375,-0.10630946606397629,0.12387778609991074,0.12226223200559616
1772025720816018200,4.10201806640625,-0.13839533925056458,0.06953210383653641,0.19464954733848572
1772025720826015200,4.11201513671875,-0.18267811834812164,0.0036641389597207308,0.24165460467338562
1772025720836013000,4.122012939453125,-0.2237289994955063,-0.06951051205396652,0.2769487500190735
1772025720846010000,4.132010009765625,-0.2668018937110901,-0.10804352164268494,0.3018210828304291
1772025720856007200,4.142007080078125,-0.33157122135162354,-0.11258368194103241,0.32215210795402527
1772025720866005200,4.152005126953125,-0.40942925214767456,-0.08248197287321091,0.33179646730422974
1772025720876002000,4.162001953125,-0.48254016041755676,-0.02646465413272381,0.3387441337108612
1772025720886000000,4.172000244140625,-0.5414740443229675,0.0701684057712555,0.3500175476074219
1772025720895997200,4.1819970703125,-0.5673961639404297,0.18525849282741547,0.36036667227745056
1772025720905994200,4.191994140625,-0.5544484257698059,0.25532254576683044,0.3493707478046417
1772025720915992300,4.201992431640625,-0.5335161685943604,0.27090951800346375,0.32864081859588623
1772025720925989000,4.211989013671875,-0.5113565325737,0.27291035652160645,0.29316645860671997
1772025720935986200,4.221986083984375,-0.48497673869132996,0.2717955410480499,0.2694392800331116
1772025720945984000,4.23198388671875,-0.4519663453102112,0.26394933462142944,0.2655137777328491
1772025720955981300,4.241981201171875,-0.42601561546325684,0.23661483824253082,0.271174818277359
1772025720965979100,4.251979248046875,-0.41015568375587463,0.1966509073972702,0.28119441866874695
1772025720975976200,4.26197607421875,-0.40966853499412537,0.15681442618370056,0.2889694273471832
1772025720985973000,4.271972900390625,-0.4239635765552521,0.1014409139752388,0.27564138174057007
1772025720995971300,4.281971435546875,-0.46451622247695923,0.022828126326203346,0.24294516444206238
1772025721005968100,4.291968017578125,-0.5239174962043762,-0.06267852336168289,0.18326905369758606
1772025721015965200,4.301965087890625,-0.5919259786605835,-0.1393478810787201,0.10932685434818268
1772025721025963000,4.311962890625,-0.6337637305259705,-0.19450834393501282,0.050702691078186035
1772025721035960300,4.321960205078125,-0.6586399674415588,-0.21973751485347748,0.004608564544469118
1772025721045958400,4.33195849609375,-0.6641492247581482,-0.2180970162153244,-0.011444171890616417
1772025721055955200,4.341955078125,-0.647186815738678,-0.19333603978157043,-0.0005664892960339785
1772025721065952300,4.3519521484375,-0.5942943096160889,-0.16325563192367554,0.04484786093235016
1772025721075950000,4.3619501953125,-0.5203412175178528,-0.12151150405406952,0.11137908697128296
1772025721085947400,4.371947509765625,-0.42850902676582336,-0.06377896666526794,0.202999547123909
1772025721095944200,4.381944091796875,-0.32164227962493896,-0.005893263965845108,0.29872992634773254
1772025721105942300,4.3919423828125,-0.20242135226726532,0.04008115082979202,0.3993034064769745
1772025721115939000,4.40193896484375,-0.09050000458955765,0.06550440937280655,0.4947836697101593
1772025721125937200,4.411937255859375,-0.01374264806509018,0.08775218576192856,0.57090824842453
1772025721135934200,4.421934326171875,0.039915699511766434,0.11412925273180008,0.6384660601615906
1772025721145931300,4.43193115234375,0.07952436059713364,0.13764816522598267,0.6803093552589417
1772025721155929000,4.44192919921875,0.09578407555818558,0.14518770575523376,0.6923606395721436
1772025721165926100,4.451926025390625,0.09283728897571564,0.1482844352722168,0.6763113737106323
1772025721175923200,4.461923095703125,0.07987996935844421,0.15033499896526337,0.6388677358627319
1772025721185921300,4.47192138671875,0.06588319689035416,0.15126655995845795,0.5870663523674011
1772025721195918000,4.48191796875,0.0558299645781517,0.14343763887882233,0.5193692445755005
1772025721205916200,4.491916259765625,0.03793272376060486,0.12613961100578308,0.44193035364151
1772025721215913200,4.501913330078125,0.019778061658143997,0.09317526966333389,0.34879744052886963
1772025721225910300,4.51191015625,-0.01919756829738617,0.0482083223760128,0.24088428914546967
1772025721235908400,4.521908447265625,-0.08619972318410873,-0.0024680490605533123,0.12200690060853958
1772025721245905200,4.5319052734375,-0.18018986284732819,-0.04448873549699783,-0.018923861905932426
1772025721255902200,4.541902099609375,-0.28955888748168945,-0.08528981357812881,-0.16983434557914734
1772025721265900000,4.551900146484375,-0.38014817237854004,-0.12680265307426453,-0.30948173999786377
1772025721275897300,4.5618974609375,-0.4393015503883362,-0.15505947172641754,-0.4248257577419281
1772025721285895200,4.571895263671875,-0.4532458484172821,-0.15839055180549622,-0.5010337233543396
1772025721295892200,4.581892333984375,-0.44982603192329407,-0.12069129198789597,-0.5470213890075684
1772025721305889000,4.591888916015625,-0.42612549662590027,-0.06779425591230392,-0.5452618598937988
1772025721315887000,4.60188720703125,-0.37435784935951233,-0.012384723871946335,-0.5161183476448059
1772025721325884200,4.61188427734375,-0.2993248701095581,0.04348839446902275,-0.46090805530548096
1772025721335881200,4.621881103515625,-0.21400019526481628,0.09677917510271072,-0.4034692049026489
1772025721345879000,4.631879150390625,-0.12863469123840332,0.12635943293571472,-0.3463127017021179
1772025721355876000,4.6418759765625,-0.05495661497116089,0.11274740844964981,-0.3046884834766388
1772025721365874200,4.651874267578125,0.0007947987178340554,0.09236624091863632,-0.2723763585090637
1772025721375871200,4.661871337890625,0.03668127581477165,0.05241763964295387,-0.2366236299276352
1772025721385868000,4.671867919921875,0.061130162328481674,0.019035981968045235,-0.2004845291376114
1772025721395866000,4.6818662109375,0.07526561617851257,-0.007642130367457867,-0.1627611219882965
1772025721405863200,4.69186328125,0.08153389394283295,-0.03236505389213562,-0.13329724967479706
1772025721415861200,4.701861328125,0.07260970771312714,-0.06257233023643494,-0.10944809764623642
1772025721425858300,4.7118583984375,0.04869186505675316,-0.08854001760482788,-0.09264515340328217
1772025721435855600,4.721855712890625,0.006542423274368048,-0.11725439131259918,-0.08783109486103058
1772025721445853400,4.731853515625,-0.04590453952550888,-0.14755477011203766,-0.08947879076004028
1772025721455850500,4.7418505859375,-0.10023452341556549,-0.16926728188991547,-0.08687767386436462
1772025721465847600,4.75184765625,-0.14531412720680237,-0.19299525022506714,-0.08515354245901108
1772025721475845600,4.761845703125,-0.18499571084976196,-0.2260083556175232,-0.0745263397693634
1772025721485842400,4.771842529296875,-0.20235365629196167,-0.2630936801433563,-0.06227153167128563
1772025721495840500,4.781840576171875,-0.2077428698539734,-0.3090241253376007,-0.04786103591322899
1772025721505837600,4.791837646484375,-0.20590342581272125,-0.3537271320819855,-0.042602889239788055
1772025721515834600,4.801834716796875,-0.19004428386688232,-0.4120698571205139,-0.05218667536973953
1772025721525832400,4.81183251953125,-0.17738202214241028,-0.4773828089237213,-0.08300530910491943
1772025721535829500,4.82182958984375,-0.1595674753189087,-0.5430821776390076,-0.11237950623035431
1772025721545826600,4.83182666015625,-0.14739470183849335,-0.5790684223175049,-0.13692426681518555
1772025721555824600,4.84182470703125,-0.13521182537078857,-0.5830100774765015,-0.14616504311561584
1772025721565821400,4.851821533203125,-0.11625330150127411,-0.5507338643074036,-0.13169635832309723
1772025721575819500,4.861819580078125,-0.09763208776712418,-0.505626380443573,-0.10531846433877945
1772025721585816600,4.871816650390625,-0.06856714189052582,-0.47458457946777344,-0.06544481962919235
1772025721595813600,4.881813720703125,-0.03141896799206734,-0.43126970529556274,-0.012783607468008995
1772025721605811700,4.891811767578125,0.011818250641226768,-0.3822454512119293,0.040450319647789
1772025721615808500,4.90180859375,0.05275169014930725,-0.35941997170448303,0.08767315745353699
1772025721625805600,4.9118056640625,0.09781024605035782,-0.3352605700492859,0.14534896612167358
1772025721635803400,4.921803466796875,0.14397627115249634,-0.33065420389175415,0.1942651867866516
1772025721645800700,4.93180078125,0.14703623950481415,-0.3563939034938812,0.20242030918598175
1772025721655798500,4.941798583984375,0.10723689198493958,-0.40136751532554626,0.16629379987716675
1772025721665795600,4.951795654296875,0.06322602927684784,-0.4214767813682556,0.12396205216646194
1772025721675792400,4.96179248046875,0.03613667190074921,-0.39557766914367676,0.090239979326725
1772025721685790500,4.97179052734375,0.025719719007611275,-0.34603622555732727,0.07390814274549484
1772025721695787500,4.98178759765625,0.024703897535800934,-0.3060910403728485,0.05359341576695442
1772025721705785600,4.99178564453125,0.03224623575806618,-0.2773864269256592,0.04310349002480507
1772025721715782400,5.001782470703125,0.0647415891289711,-0.2620052099227905,0.045091934502124786
1772025721725779500,5.011779541015625,0.114408478140831,-0.25021007657051086,0.04867495223879814
1772025721735777500,5.021777587890625,0.16772471368312836,-0.26880449056625366,0.048091720789670944
1772025721745774600,5.031774658203125,0.19470998644828796,-0.3085162341594696,0.033468570560216904
1772025721755771400,5.041771484375,0.1888321489095688,-0.3503718674182892,0.013058507815003395
1772025721765769500,5.05176953125,0.16744165122509003,-0.3753480315208435,-0.004955646116286516
1772025721775766500,5.0617666015625,0.12345791608095169,-0.370207279920578,-0.016157303005456924
1772025721785764400,5.071764404296875,0.06873501092195511,-0.36040258407592773,-0.019839122891426086
1772025721795761700,5.08176171875,0.018241407349705696,-0.35458534955978394,-0.01835593953728676
1772025721805758500,5.091758544921875,-0.020510781556367874,-0.32537394762039185,0.003228182438760996
1772025721815756500,5.101756591796875,-0.045862723141908646,-0.2811582386493683,0.0424344427883625
1772025721825753300,5.11175341796875,-0.057300470769405365,-0.2413461059331894,0.08779526501893997
1772025721835750700,5.121750732421875,-0.060011498630046844,-0.20254874229431152,0.13362181186676025
1772025721845748500,5.13174853515625,-0.06328532099723816,-0.16875694692134857,0.17179636657238007
1772025721855745500,5.14174560546875,-0.07229133695363998,-0.14023156464099884,0.20185652375221252
1772025721865743400,5.151743408203125,-0.09090975672006607,-0.10091078281402588,0.2156090885400772
1772025721875740400,5.161740478515625,-0.11818370223045349,-0.055280789732933044,0.22111690044403076
1772025721885737500,5.171737548828125,-0.1542128026485443,0.003587589366361499,0.22089959681034088
1772025721895735600,5.181735595703125,-0.19768205285072327,0.06326501071453094,0.21043357253074646
1772025721905732600,5.191732666015625,-0.24239864945411682,0.09600751101970673,0.18757964670658112
1772025721915729400,5.2017294921875,-0.2876775562763214,0.1037832722067833,0.15765917301177979
1772025721925727500,5.2117275390625,-0.32499775290489197,0.09844150394201279,0.1257992386817932
1772025721935724500,5.221724609375,-0.3584345579147339,0.0846894159913063,0.0915670320391655
1772025721945722600,5.23172265625,-0.37879443168640137,0.05817525088787079,0.051775939762592316
1772025721955719400,5.241719482421875,-0.38865241408348083,0.01753765344619751,0.011852094903588295
1772025721965716500,5.251716552734375,-0.3902322053909302,-0.031285546720027924,-0.0261424258351326
1772025721975714600,5.261714599609375,-0.39202046394348145,-0.08324264734983444,-0.07793005555868149
1772025721985711600,5.271711669921875,-0.3925988972187042,-0.1400449573993683,-0.1264384686946869
1772025721995709400,5.28170947265625,-0.38871967792510986,-0.18722766637802124,-0.1877477765083313
1772025722005706500,5.29170654296875,-0.38589221239089966,-0.20705623924732208,-0.2535818815231323
1772025722015703600,5.30170361328125,-0.37592682242393494,-0.22092297673225403,-0.3372986912727356
1772025722025701600,5.31170166015625,-0.3551182150840759,-0.22164522111415863,-0.41698312759399414
1772025722035698400,5.321698486328125,-0.31395232677459717,-0.20338597893714905,-0.48119834065437317
1772025722045694500,5.331694580078125,-0.2602401077747345,-0.1603093445301056,-0.5215319395065308
1772025722055692500,5.341692626953125,-0.2113255113363266,-0.11064919829368591,-0.5388954877853394
1772025722065689600,5.351689697265625,-0.1769787222146988,-0.06004141643643379,-0.5356741547584534
1772025722075686400,5.361686279296875,-0.15099169313907623,-0.024705905467271805,-0.5147023797035217
1772025722085684500,5.3716845703125,-0.13951027393341064,-0.0010908585973083973,-0.48162034153938293
1772025722095681500,5.381681640625,-0.13839691877365112,0.010245116427540779,-0.44674432277679443
1772025722105678600,5.3916787109375,-0.15397827327251434,0.018091853708028793,-0.4137043356895447
1772025722115676400,5.401676513671875,-0.1747353971004486,0.015013616532087326,-0.3903781771659851
1772025722125673500,5.411673583984375,-0.2056155502796173,0.006041159853339195,-0.3839823305606842
1772025722135671600,5.421671630859375,-0.2450222223997116,-0.013212126679718494,-0.3895989954471588
1772025722145668600,5.431668701171875,-0.289098858833313,-0.040017642080783844,-0.40163248777389526
1772025722155665700,5.441665771484375,-0.32822877168655396,-0.06902885437011719,-0.4146506190299988
1772025722165663500,5.45166357421875,-0.3542172312736511,-0.07247524708509445,-0.4132031798362732
1772025722175660500,5.46166064453125,-0.3599759340286255,-0.042947571724653244,-0.3956233263015747
1772025722185657600,5.47165771484375,-0.34443211555480957,0.014169243164360523,-0.3693443238735199
1772025722195655700,5.48165576171875,-0.30945268273353577,0.06890952587127686,-0.33533236384391785
1772025722205652500,5.491652587890625,-0.26035305857658386,0.11116483807563782,-0.3072173595428467
1772025722215650600,5.501650634765625,-0.20321089029312134,0.11850332468748093,-0.2877199053764343
1772025722225647400,5.5116474609375,-0.14849065244197845,0.10201622545719147,-0.2654745280742645
1772025722235644700,5.521644775390625,-0.09232828766107559,0.09102703630924225,-0.2355765402317047
1772025722245642500,5.531642578125,-0.042760200798511505,0.07820658385753632,-0.19300830364227295
1772025722255639600,5.5416396484375,0.002314025769010186,0.05537453293800354,-0.1349584460258484
1772025722265636400,5.55163623046875,0.04365533962845802,0.048418089747428894,-0.06279052048921585
1772025722275634400,5.561634521484375,0.08086361736059189,0.04318198189139366,0.01318301074206829
1772025722285631500,5.571631591796875,0.10641904175281525,0.04601425305008888,0.08801624178886414
1772025722295629600,5.581629638671875,0.12439184635877609,0.049489766359329224,0.15308159589767456
1772025722305626600,5.591626708984375,0.12450636178255081,0.048891618847846985,0.19612333178520203
1772025722315623400,5.60162353515625,0.11652456969022751,0.05360879376530647,0.21557214856147766
1772025722325621500,5.61162158203125,0.09131402522325516,0.07411220669746399,0.22006648778915405
1772025722335618600,5.62161865234375,0.0634276419878006,0.10149897634983063,0.21581853926181793
1772025722345616600,5.63161669921875,0.041853904724121094,0.14322270452976227,0.2129868119955063
1772025722355613400,5.641613525390625,0.024948790669441223,0.18607482314109802,0.2156696617603302
1772025722365610500,5.651610595703125,0.01824614778161049,0.22648988664150238,0.2230149209499359
1772025722375608300,5.6616083984375,0.013765675015747547,0.23863038420677185,0.22466322779655457
1772025722385605600,5.671605712890625,0.00008954433724284172,0.20495550334453583,0.2097173035144806
1772025722395602400,5.6816025390625,-0.023736579343676567,0.15825019776821136,0.1846809983253479
1772025722405600500,5.6916005859375,-0.04314703121781349,0.13922031223773956,0.17884868383407593
1772025722415597300,5.701597412109375,-0.05274168774485588,0.13632124662399292,0.1926654875278473
1772025722425595600,5.711595703125,-0.06645163893699646,0.12508323788642883,0.2080276757478714
1772025722435592400,5.721592529296875,-0.09428533166646957,0.102780781686306,0.2037697285413742
1772025722445585700,5.731585693359375,-0.12349754571914673,0.07769540697336197,0.18479762971401215
1772025722455583500,5.74158349609375,-0.145762637257576,0.05509857460856438,0.152431920170784
1772025722465580800,5.751580810546875,-0.15530341863632202,0.03779415413737297,0.11342805624008179
1772025722475577600,5.76157763671875,-0.1587391197681427,0.04523223638534546,0.07415276020765305
1772025722485575700,5.77157568359375,-0.15233580768108368,0.07453420013189316,0.037481557577848434
1772025722495572500,5.781572509765625,-0.1386132389307022,0.11566980183124542,-0.002338757738471031
1772025722505570600,5.791570556640625,-0.11115790158510208,0.16727042198181152,-0.04055618494749069
1772025722515567600,5.801567626953125,-0.06666233390569687,0.21342287957668304,-0.06169622018933296
1772025722525564700,5.811564697265625,-0.004811479244381189,0.25797808170318604,-0.06454820930957794
1772025722535562800,5.821562744140625,0.05500323697924614,0.2814488410949707,-0.05025988072156906
1772025722545559600,5.8315595703125,0.1159808412194252,0.2831268906593323,-0.026861609891057014
1772025722555557600,5.8415576171875,0.1747201830148697,0.266847163438797,0.011812613345682621
1772025722565554700,5.8515546875,0.2213798314332962,0.23295871913433075,0.06823354214429855
1772025722575551700,5.8615517578125,0.2540876269340515,0.19843092560768127,0.1265275478363037
1772025722585549600,5.871549560546875,0.26953503489494324,0.1525515913963318,0.1914157271385193
1772025722595546600,5.881546630859375,0.2807465195655823,0.12672793865203857,0.2614554762840271
1772025722605543700,5.891543701171875,0.30309709906578064,0.13080336153507233,0.33797261118888855
1772025722615541800,5.901541748046875,0.32956936955451965,0.15594996511936188,0.4233281910419464
1772025722625538600,5.91153857421875,0.357524573802948,0.19357137382030487,0.5000413656234741
1772025722635536600,5.92153662109375,0.380593478679657,0.2216414362192154,0.554350733757019
1772025722645533400,5.931533447265625,0.3968970775604248,0.20357748866081238,0.5818385481834412
1772025722655530800,5.94153076171875,0.40590700507164,0.15212824940681458,0.5759614109992981
1772025722665528600,5.951528564453125,0.39977478981018066,0.0778079479932785,0.5397171378135681
1772025722675525600,5.961525634765625,0.38849422335624695,-0.012309018522500992,0.4801839292049408
1772025722685522400,5.9715224609375,0.36303946375846863,-0.09605664014816284,0.3955310881137848
1772025722695520500,5.9815205078125,0.33241763710975647,-0.15831781923770905,0.2904530465602875
1772025722705517600,5.991517578125,0.28392812609672546,-0.19095805287361145,0.17372587323188782
1772025722715515600,6.001515625,0.22625885903835297,-0.21574783325195312,0.029165903106331825
1772025722725512700,6.0115126953125,0.15302830934524536,-0.24252724647521973,-0.12804368138313293
1772025722735509800,6.021509765625,0.07178885489702225,-0.26497113704681396,-0.2941707968711853
1772025722745507800,6.0315078125,-0.01644565910100937,-0.27579396963119507,-0.45375221967697144
1772025722755504600,6.041504638671875,-0.09364254772663116,-0.26672056317329407,-0.5940428972244263
1772025722765501700,6.051501708984375,-0.16396331787109375,-0.2135699838399887,-0.7024617791175842
1772025722775499500,6.06149951171875,-0.2094755470752716,-0.11563509702682495,-0.7624112963676453
1772025722785496800,6.071496826171875,-0.22137853503227234,0.00010268948972225189,-0.7699514627456665
1772025722795494700,6.08149462890625,-0.1887354701757431,0.12058543413877487,-0.7354621291160583
1772025722805491700,6.09149169921875,-0.10074436664581299,0.2401144951581955,-0.6630302667617798
1772025722815488500,6.101488525390625,0.026589415967464447,0.3574611246585846,-0.5759080648422241
1772025722825486600,6.111486572265625,0.17297512292861938,0.44019195437431335,-0.49851131439208984
1772025722835483600,6.121483642578125,0.3032894730567932,0.4723041355609894,-0.4437500536441803
1772025722845481700,6.131481689453125,0.39969590306282043,0.46617141366004944,-0.4090048670768738
1772025722855478500,6.141478515625,0.46901631355285645,0.43934598565101624,-0.38761213421821594
1772025722865475600,6.1514755859375,0.5261794924736023,0.40508735179901123,-0.37330856919288635
1772025722875473700,6.1614736328125,0.5696325302124023,0.36518290638923645,-0.36015981435775757
1772025722885470700,6.171470703125,0.5911393761634827,0.32226046919822693,-0.3452484905719757
1772025722895467800,6.1814677734375,0.5932456851005554,0.25422167778015137,-0.33155348896980286
1772025722905465600,6.191465576171875,0.5695776343345642,0.18083906173706055,-0.32742372155189514
1772025722915462700,6.201462646484375,0.5194699764251709,0.08328075706958771,-0.3277653157711029
1772025722925460500,6.21146044921875,0.44836440682411194,-0.016807761043310165,-0.32744255661964417
1772025722935457800,6.221457763671875,0.3663299083709717,-0.11988743394613266,-0.32737329602241516
1772025722945454600,6.23145458984375,0.2775249183177948,-0.21128472685813904,-0.3140217959880829
1772025722955452700,6.24145263671875,0.19607533514499664,-0.27943918108940125,-0.2848387658596039
1772025722965449500,6.251449462890625,0.12788136303424835,-0.32751455903053284,-0.25414103269577026
1772025722975447600,6.261447509765625,0.07240571081638336,-0.37295016646385193,-0.22966159880161285
1772025722985444600,6.271444580078125,0.028279265388846397,-0.4070577919483185,-0.21774394810199738
1772025722995441700,6.281441650390625,-0.016817662864923477,-0.4149324297904968,-0.21359753608703613
1772025723005439700,6.291439697265625,-0.049533531069755554,-0.3851577639579773,-0.20444051921367645
1772025723015436500,6.3014365234375,-0.07679978013038635,-0.34485337138175964,-0.1937563121318817
1772025723025433600,6.31143359375,-0.09192653745412827,-0.2966773211956024,-0.18036967515945435
1772025723035431700,6.321431640625,-0.08755382150411606,-0.24387410283088684,-0.15696829557418823
1772025723045428700,6.3314287109375,-0.07444120943546295,-0.19145163893699646,-0.13586141169071198
1772025723055426600,6.341426513671875,-0.05567755550146103,-0.163658007979393,-0.11916483938694
1772025723065423600,6.351423583984375,-0.029845960438251495,-0.15046897530555725,-0.10307775437831879
1772025723075420700,6.361420654296875,-0.001251694979146123,-0.1313726156949997,-0.08283140510320663
1772025723085418800,6.371418701171875,0.0267634280025959,-0.11175017803907394,-0.06475706398487091
1772025723095415600,6.38141552734375,0.0488741509616375,-0.10694386810064316,-0.04683471843600273
1772025723105412600,6.39141259765625,0.06665261834859848,-0.09934426844120026,-0.02571771666407585
1772025723115410700,6.40141064453125,0.08360061049461365,-0.09490355104207993,-0.00857102032750845
1772025723125407700,6.41140771484375,0.104718416929245,-0.09259139746427536,0.01625470072031021
1772025723135405600,6.421405517578125,0.12963609397411346,-0.08838391304016113,0.04249023273587227
1772025723145402600,6.431402587890625,0.1507701426744461,-0.10956483334302902,0.06061837077140808
1772025723155399700,6.441399658203125,0.1479649692773819,-0.18205825984477997,0.04183362424373627
1772025723165397800,6.451397705078125,0.10763218998908997,-0.25782090425491333,-0.009621309116482735
1772025723175394600,6.46139453125,0.05589719116687775,-0.33567023277282715,-0.083579421043396
1772025723185391600,6.4713916015625,0.010555010288953781,-0.39639535546302795,-0.14931261539459229
1772025723195389700,6.4813896484375,-0.02943778596818447,-0.42514604330062866,-0.20527330040931702
1772025723205386800,6.49138671875,-0.0744318887591362,-0.43601706624031067,-0.2517699599266052
1772025723215384800,6.501384765625,-0.10651934891939163,-0.42796096205711365,-0.2747141718864441
1772025723225381600,6.511381591796875,-0.12648160755634308,-0.40893080830574036,-0.28480249643325806
1772025723235378700,6.521378662109375,-0.13447034358978271,-0.39650145173072815,-0.2686484754085541
1772025723245376500,6.53137646484375,-0.11708682775497437,-0.3835161626338959,-0.22366395592689514
1772025723255373800,6.541373779296875,-0.08143654465675354,-0.37621113657951355,-0.16072753071784973
1772025723265371600,6.55137158203125,-0.04426254704594612,-0.35376015305519104,-0.09430883079767227
1772025723275368700,6.56136865234375,-0.023343825712800026,-0.328586608171463,-0.030760809779167175
1772025723285365500,6.571365478515625,-0.010191007517278194,-0.2986997961997986,0.02702419087290764
1772025723295363600,6.581363525390625,-0.010236579924821854,-0.26308155059814453,0.08040677011013031
1772025723305360600,6.591360595703125,-0.02272574044764042,-0.20589390397071838,0.1220165267586708
1772025723315357700,6.601357666015625,-0.04221463203430176,-0.13954055309295654,0.1498083770275116
1772025723325355500,6.61135546875,-0.0571427159011364,-0.08199122548103333,0.17165827751159668
1772025723335352600,6.6213525390625,-0.06361693143844604,-0.03201679512858391,0.19846631586551666
1772025723345350700,6.6313505859375,-0.06403131783008575,0.00982359703630209,0.23260511457920074
1772025723355347700,6.64134765625,-0.0666360929608345,0.047415342181921005,0.2727309763431549
1772025723365344500,6.651344482421875,-0.07728740572929382,0.07747737318277359,0.3018377125263214
1772025723375342600,6.661342529296875,-0.10196512192487717,0.07756802439689636,0.31933626532554626
1772025723385339600,6.671339599609375,-0.13782431185245514,0.05463740602135658,0.3132416307926178
1772025723395336700,6.681336669921875,-0.18756988644599915,0.018170686438679695,0.28876519203186035
1772025723405334800,6.691334716796875,-0.2481948882341385,-0.007740538567304611,0.2553028464317322
1772025723415331600,6.70133154296875,-0.3239838778972626,-0.00953852292150259,0.2118183970451355
1772025723425329700,6.71132958984375,-0.3930886387825012,-0.0017144214361906052,0.157758891582489
1772025723435326500,6.721326416015625,-0.44951969385147095,0.01801164448261261,0.09120877087116241
1772025723445324000,6.731323974609375,-0.4873240888118744,0.036044973880052567,0.0016210951143875718
1772025723455321900,6.74132177734375,-0.51010662317276,0.031756483018398285,-0.10567712783813477
1772025723465319000,6.75131884765625,-0.5213108658790588,0.018421504646539688,-0.22838573157787323
1772025723475317000,6.76131689453125,-0.5234997868537903,-0.0043711550533771515,-0.35318806767463684
1772025723485313800,6.771313720703125,-0.5175484418869019,-0.019981540739536285,-0.46707308292388916
1772025723495310800,6.781310791015625,-0.5035296082496643,-0.02787928655743599,-0.5603161454200745
1772025723505309000,6.791308837890625,-0.4762910306453705,-0.022479727864265442,-0.6214208006858826
1772025723515306000,6.801305908203125,-0.43378907442092896,0.001545436680316925,-0.637703537940979
1772025723525302800,6.811302734375,-0.373902291059494,0.03475532308220863,-0.6075570583343506
1772025723535300900,6.82130078125,-0.29670533537864685,0.08271247148513794,-0.5387734174728394
1772025723545298000,6.8312978515625,-0.21166236698627472,0.1134868934750557,-0.44688478112220764
1772025723555296000,6.8412958984375,-0.12151914834976196,0.11446229368448257,-0.3420410752296448
1772025723565292800,6.851292724609375,-0.04625635966658592,0.09023311734199524,-0.24515312910079956
1772025723575289900,6.861289794921875,0.010637551546096802,0.06148349493741989,-0.15716920793056488
1772025723585288000,6.871287841796875,0.04963565617799759,0.02735162153840065,-0.0986441820859909
1772025723595285000,6.881284912109375,0.07164882123470306,-0.008169733919203281,-0.06995008885860443
1772025723605281800,6.89128173828125,0.07852669805288315,-0.040901582688093185,-0.07563886791467667
1772025723615279900,6.90127978515625,0.056947484612464905,-0.047874387353658676,-0.10211222618818283
1772025723625277000,6.91127685546875,0.018537776544690132,-0.030765175819396973,-0.13510826230049133
1772025723635275000,6.92127490234375,-0.03159084543585777,-0.007673962973058224,-0.17482677102088928
1772025723645271800,6.931271728515625,-0.08295896649360657,0.01590992510318756,-0.20881935954093933
1772025723655268900,6.941268798828125,-0.11922696977853775,0.036116085946559906,-0.2338554710149765
1772025723665267000,6.951266845703125,-0.13690343499183655,0.06081131100654602,-0.24568761885166168
1772025723675264000,6.961263916015625,-0.13749024271965027,0.08309277147054672,-0.24455958604812622
1772025723685262000,6.971261962890625,-0.1329423487186432,0.08539294451475143,-0.23171302676200867
1772025723695259000,6.9812587890625,-0.1196708157658577,0.08365244418382645,-0.2173290252685547
1772025723705256000,6.991255859375,-0.1037863940000534,0.07785128057003021,-0.19751083850860596
1772025723715253800,7.001253662109375,-0.08309374749660492,0.07517130672931671,-0.17079289257526398
1772025723725251000,7.0112509765625,-0.06096740812063217,0.08625644445419312,-0.14089038968086243
1772025723735248000,7.021247802734375,-0.03535152226686478,0.09907732903957367,-0.11635533720254898
1772025723745246000,7.031245849609375,-0.011977221816778183,0.11161229014396667,-0.09412752836942673
1772025723755242800,7.04124267578125,0.013907992281019688,0.12157486379146576,-0.06620515882968903
1772025723765240800,7.05124072265625,0.037459392100572586,0.12494003772735596,-0.035754039883613586
1772025723775238000,7.06123779296875,0.05497558414936066,0.11975950747728348,0.004340917803347111
1772025723785235000,7.07123486328125,0.06922536343336105,0.12337528169155121,0.05701158568263054
1772025723795233000,7.08123291015625,0.07902184873819351,0.11970292031764984,0.1155424639582634
1772025723805229800,7.091229736328125,0.07843435555696487,0.09865862131118774,0.17537039518356323
1772025723815228000,7.101227783203125,0.07295370101928711,0.06557116657495499,0.23159749805927277
1772025723825225000,7.111224853515625,0.056382451206445694,0.04004237428307533,0.28151312470436096
1772025723835222000,7.121221923828125,0.026749812066555023,0.027882469817996025,0.31800442934036255
1772025723845219800,7.1312197265625,0.000749903847463429,0.011524535715579987,0.33743593096733093
1772025723855217000,7.141216796875,-0.022879501804709435,-0.001388939330354333,0.32030636072158813
1772025723865214000,7.1512138671875,-0.053493600338697433,0.0016289546620100737,0.27527549862861633
1772025723875212000,7.1612119140625,-0.05874261260032654,0.05343256890773773,0.2338804304599762
1772025723885208800,7.171208740234375,-0.06330833584070206,0.13784465193748474,0.19731388986110687
1772025723895207000,7.18120703125,-0.09739816188812256,0.19175361096858978,0.1592370867729187
1772025723905203700,7.19120361328125,-0.14164818823337555,0.20970624685287476,0.12069395929574966
1772025723915201000,7.201200927734375,-0.17424306273460388,0.22381427884101868,0.10715524107217789
1772025723925198800,7.21119873046875,-0.1699785441160202,0.2198735922574997,0.1284371018409729
1772025723935196000,7.22119580078125,-0.15425685048103333,0.19595901668071747,0.15852217376232147
1772025723945192700,7.231192626953125,-0.14340713620185852,0.1616913229227066,0.18759509921073914
1772025723955190800,7.241190673828125,-0.14601564407348633,0.14340129494667053,0.21508750319480896
1772025723965187800,7.251187744140625,-0.15550635755062103,0.14209555089473724,0.23798242211341858
1772025723975186000,7.26118603515625,-0.17403145134449005,0.1441347599029541,0.23398523032665253
1772025723985183000,7.271182861328125,-0.21337193250656128,0.1264692097902298,0.20134073495864868
1772025723995179800,7.2811796875,-0.2614355981349945,0.08684305101633072,0.13746307790279388
1772025724005177900,7.291177734375,-0.3181263208389282,0.04970287159085274,0.051648568361997604
1772025724015175000,7.3011748046875,-0.3591729998588562,0.030713865533471107,-0.029038943350315094
1772025724025173000,7.311173095703125,-0.38136377930641174,0.04221605882048607,-0.08841145783662796
1772025724035169800,7.321169677734375,-0.395719438791275,0.08985639363527298,-0.12359308451414108
1772025724045166800,7.331166748046875,-0.39949262142181396,0.13308481872081757,-0.13280148804187775
1772025724055165000,7.3411650390625,-0.38709375262260437,0.17086955904960632,-0.12208293378353119
1772025724065162000,7.351161865234375,-0.35644158720970154,0.20185330510139465,-0.07873120158910751
1772025724075158800,7.36115869140625,-0.3092474937438965,0.22677437961101532,-0.018074311316013336
1772025724085156900,7.371156982421875,-0.24358510971069336,0.23623526096343994,0.053733035922050476
1772025724095154000,7.38115380859375,-0.16280223429203033,0.2364373803138733,0.13527102768421173
1772025724105152000,7.391152099609375,-0.07305876165628433,0.21585087478160858,0.21828894317150116
1772025724115148800,7.401148681640625,0.0032324236817657948,0.1755237877368927,0.2931552231311798
1772025724125145900,7.411145751953125,0.06317165493965149,0.12598632276058197,0.33361849188804626
1772025724135144000,7.42114404296875,0.09563733637332916,0.07826311141252518,0.3349571228027344
1772025724145141000,7.43114111328125,0.13250452280044556,0.017258882522583008,0.30994871258735657
1772025724155139000,7.44113916015625,0.14396992325782776,-0.05131233111023903,0.26426491141319275
1772025724165136000,7.451135986328125,0.13617537915706635,-0.09677381813526154,0.21356870234012604
1772025724175133000,7.4611328125,0.1197967529296875,-0.114240363240242,0.18300339579582214
1772025724185130800,7.471130859375,0.10811399668455124,-0.12647704780101776,0.1642124056816101
1772025724195128000,7.481128173828125,0.10707647353410721,-0.13600455224514008,0.16059038043022156
1772025724205126000,7.4911259765625,0.11350028961896896,-0.17088289558887482,0.14930923283100128
1772025724215123000,7.501123046875,0.1018480509519577,-0.2115849256515503,0.11623288691043854
1772025724225119700,7.51111962890625,0.06219092011451721,-0.24271593987941742,0.052983079105615616
1772025724235117800,7.521117919921875,-0.012612991966307163,-0.26714518666267395,-0.03385527431964874
1772025724245115000,7.531114990234375,-0.1054430678486824,-0.28793221712112427,-0.13786423206329346
1772025724255112000,7.54111181640625,-0.19840788841247559,-0.28651487827301025,-0.24816809594631195
1772025724265109800,7.55110986328125,-0.2660351097583771,-0.2574597895145416,-0.33989083766937256
1772025724275106800,7.56110693359375,-0.30326202511787415,-0.19605319201946259,-0.4094643294811249
1772025724285105000,7.57110498046875,-0.32196301221847534,-0.10762879252433777,-0.4424121379852295
1772025724295102000,7.58110205078125,-0.3190949559211731,-0.003936107270419598,-0.4359307587146759
1772025724305099000,7.59109912109375,-0.284466415643692,0.10577680915594101,-0.3854891359806061
1772025724315096800,7.601096923828125,-0.2132977992296219,0.21431250870227814,-0.3031959533691406
1772025724325094000,7.611093994140625,-0.13002288341522217,0.3040623366832733,-0.2087695598602295
1772025724335091000,7.621091064453125,-0.058701545000076294,0.3596743941307068,-0.12824243307113647
1772025724345089000,7.631089111328125,-0.009097506292164326,0.38884881138801575,-0.06454122066497803
1772025724355085800,7.6410859375,0.02424330823123455,0.4068732261657715,-0.0134381502866745
1772025724365084000,7.651083984375,0.04734703153371811,0.39929574728012085,0.013306112959980965
1772025724375080700,7.661080810546875,0.061855364590883255,0.3771892488002777,0.020266087725758553
1772025724385078000,7.671078125,0.06793295592069626,0.3522879183292389,0.009707186371088028
1772025724395075800,7.681075927734375,0.06228436902165413,0.3097202777862549,-0.017278224229812622
1772025724405073000,7.691072998046875,0.04947483539581299,0.2520679235458374,-0.05536329373717308
1772025724415071000,7.701071044921875,0.028699109330773354,0.20080357789993286,-0.08950894325971603
1772025724425067800,7.71106787109375,0.007761869579553604,0.13343331217765808,-0.12902945280075073
1772025724435064800,7.72106494140625,-0.022806933149695396,0.043694574385881424,-0.16144558787345886
1772025724445063700,7.731063720703125,-0.06366009265184402,-0.04637300223112106,-0.18629500269889832
1772025724455060500,7.741060546875,-0.10455217212438583,-0.11898820847272873,-0.19519183039665222
1772025724465057500,7.7510576171875,-0.13281629979610443,-0.17665603756904602,-0.18714801967144012
1772025724475055400,7.761055419921875,-0.15694935619831085,-0.2283616065979004,-0.17641441524028778
1772025724485052700,7.771052734375,-0.17279677093029022,-0.280577152967453,-0.16469277441501617
1772025724495050800,7.78105078125,-0.18526782095432281,-0.3180273175239563,-0.15525880455970764
1772025724505047600,7.791047607421875,-0.18441827595233917,-0.3397504687309265,-0.13475245237350464
1772025724515044400,7.80104443359375,-0.16915008425712585,-0.3489736318588257,-0.10921687632799149
1772025724525042400,7.81104248046875,-0.1437203586101532,-0.3564307391643524,-0.08899788558483124
1772025724535039700,7.821039794921875,-0.11797083169221878,-0.3759782910346985,-0.08436412364244461
1772025724545037600,7.83103759765625,-0.09963337332010269,-0.3910858929157257,-0.09240420907735825
1772025724555034600,7.84103466796875,-0.07847423106431961,-0.3861936330795288,-0.09646592289209366
1772025724565031400,7.851031494140625,-0.0562826432287693,-0.3724730312824249,-0.10702721774578094
1772025724575029500,7.861029541015625,-0.03364007920026779,-0.3597332835197449,-0.10829521715641022
1772025724585026600,7.871026611328125,-0.010318775661289692,-0.3455146551132202,-0.09452827274799347
1772025724595023600,7.881023681640625,0.013503983616828918,-0.32094520330429077,-0.07196703553199768
1772025724605021400,7.891021484375,0.03684818744659424,-0.3089143633842468,-0.04046078026294708
1772025724615018500,7.9010185546875,0.06561378389596939,-0.3100580871105194,-0.0013523920206353068
1772025724625016600,7.9110166015625,0.0923071801662445,-0.3167000114917755,0.04353838413953781
1772025724635013600,7.921013671875,0.1192251443862915,-0.31760239601135254,0.09509904682636261
1772025724645010400,7.931010498046875,0.13567708432674408,-0.2991213798522949,0.1479143351316452
1772025724655008500,7.941008544921875,0.1551147997379303,-0.25994548201560974,0.209295853972435
1772025724665005600,7.951005615234375,0.1788550168275833,-0.21788270771503448,0.2649833559989929
1772025724675003600,7.961003662109375,0.17817622423171997,-0.21258799731731415,0.2904101610183716
1772025724685000700,7.971000732421875,0.13257837295532227,-0.2552097737789154,0.2815631330013275
1772025724694997500,7.98099755859375,0.06490221619606018,-0.2832365036010742,0.24885666370391846
1772025724704995600,7.99099560546875,0.017157331109046936,-0.2845001518726349,0.2241095006465912
1772025724714992600,8.00099267578125,-0.00044911669101566076,-0.2686327397823334,0.21939502656459808
1772025724724990700,8.01099072265625,-0.009224232286214828,-0.2403225153684616,0.22515757381916046
1772025724734987500,8.020987548828124,-0.021044133231043816,-0.21963278949260712,0.23102357983589172
1772025724744984600,8.030984619140625,-0.04178696125745773,-0.20568236708641052,0.22328417003154755
1772025724754982400,8.040982421875,-0.057876188308000565,-0.19521228969097137,0.2097029834985733
1772025724764979700,8.050979736328125,-0.0562220998108387,-0.18829046189785004,0.1806574910879135
1772025724774976500,8.0609765625,-0.06170248985290527,-0.19607549905776978,0.13144128024578094
1772025724784974600,8.070974609375,-0.07637996971607208,-0.21981757879257202,0.07164878398180008
1772025724794971400,8.080971435546875,-0.09643768519163132,-0.23600085079669952,0.004364084918051958
1772025724804969500,8.090969482421874,-0.12255451083183289,-0.24452057480812073,-0.04461544007062912
1772025724814966500,8.100966552734375,-0.1524469256401062,-0.24083441495895386,-0.07463393360376358
1772025724824963600,8.110963623046874,-0.1853894293308258,-0.23857179284095764,-0.08782057464122772
1772025724834961700,8.120961669921876,-0.21758055686950684,-0.24828945100307465,-0.08576176315546036
1772025724844958500,8.13095849609375,-0.24242891371250153,-0.24361880123615265,-0.0640689805150032
1772025724854956500,8.14095654296875,-0.2550729811191559,-0.21030043065547943,-0.021932564675807953
1772025724864953600,8.15095361328125,-0.2553851008415222,-0.1577029973268509,0.032503776252269745
1772025724874950700,8.16095068359375,-0.2418016493320465,-0.09845960885286331,0.10287301987409592
1772025724884948500,8.170948486328125,-0.20725005865097046,-0.025124672800302505,0.17433574795722961
1772025724894945500,8.180945556640625,-0.17772355675697327,0.033874016255140305,0.23063817620277405
1772025724904942600,8.190942626953126,-0.16527913510799408,0.08081648498773575,0.2566990554332733
1772025724914940700,8.200940673828125,-0.16751375794410706,0.10996286571025848,0.2540484666824341
1772025724924937500,8.2109375,-0.1760915368795395,0.12540148198604584,0.23141321539878845
1772025724934935600,8.220935546875,-0.19834521412849426,0.12752114236354828,0.18587470054626465
1772025724944932400,8.230932373046874,-0.23398789763450623,0.11635077744722366,0.13904434442520142
1772025724954929700,8.2409296875,-0.2651679515838623,0.11876805126667023,0.0921894833445549
1772025724964927700,8.250927734375,-0.29927799105644226,0.13965550065040588,0.058385446667671204
1772025724974924500,8.260924560546876,-0.32608547806739807,0.16659460961818695,0.027088308706879616
1772025724984922600,8.270922607421875,-0.3508875072002411,0.19260437786579132,-0.007839581929147243
1772025724994919400,8.28091943359375,-0.36875250935554504,0.19168418645858765,-0.04542863741517067
1772025725004916700,8.290916748046875,-0.39331215620040894,0.14370067417621613,-0.10720571875572205
1772025725014914600,8.30091455078125,-0.429222971200943,0.06549356877803802,-0.18088918924331665
1772025725024911600,8.31091162109375,-0.4758855402469635,-0.02774823270738125,-0.2670794725418091
1772025725034908400,8.320908447265625,-0.5217295289039612,-0.10700053721666336,-0.3464825451374054
1772025725044906500,8.330906494140624,-0.5571551322937012,-0.16028931736946106,-0.4108887016773224
1772025725054903600,8.340903564453125,-0.5844747424125671,-0.19365520775318146,-0.46211308240890503
1772025725064901600,8.350901611328124,-0.6048793792724609,-0.21506249904632568,-0.4892568290233612
1772025725074898400,8.3608984375,-0.6081039905548096,-0.20555941760540009,-0.4912230968475342
1772025725084895500,8.3708955078125,-0.579980194568634,-0.1775626689195633,-0.4574536681175232
1772025725094893600,8.3808935546875,-0.5271644592285156,-0.1331440508365631,-0.3844406008720398
1772025725104890600,8.390890625,-0.4564564526081085,-0.07262025773525238,-0.29269495606422424
1772025725114888700,8.400888671875,-0.3737613260746002,-0.004285333678126335,-0.1886080950498581
1772025725124885500,8.410885498046875,-0.29734405875205994,0.04658157378435135,-0.08637547492980957
1772025725134882600,8.420882568359374,-0.25104114413261414,0.07757270336151123,-0.007579131051898003
1772025725144880600,8.430880615234376,-0.23717086017131805,0.07858310639858246,0.03408202901482582
1772025725154877700,8.440877685546875,-0.2396336793899536,0.06041178107261658,0.046547144651412964
1772025725164875500,8.45087548828125,-0.2519337236881256,0.028247984126210213,0.042037881910800934
1772025725174872600,8.46087255859375,-0.2794821560382843,0.006903761066496372,0.0213822852820158
1772025725184869600,8.47086962890625,-0.3196151852607727,-0.009057894349098206,-0.009213706478476524
1772025725194867700,8.48086767578125,-0.36343052983283997,-0.00595589866861701,-0.039816297590732574
1772025725204864500,8.490864501953125,-0.40176594257354736,0.002804569434374571,-0.07029031217098236
1772025725214861600,8.500861572265626,-0.4207918047904968,0.016096599400043488,-0.1056995764374733
1772025725224859400,8.510859375,-0.42923134565353394,0.033598627895116806,-0.13679970800876617
1772025725234856700,8.520856689453124,-0.42163094878196716,0.04180033504962921,-0.16404663026332855
1772025725244854500,8.5308544921875,-0.4104273021221161,0.05495288595557213,-0.1766529679298401
1772025725254851600,8.5408515625,-0.3831489086151123,0.07267535477876663,-0.17462171614170074
1772025725264848400,8.550848388671875,-0.3530797064304352,0.07763388752937317,-0.16606417298316956
1772025725274846500,8.560846435546875,-0.3173089325428009,0.06452268362045288,-0.14895430207252502
1772025725284843500,8.570843505859376,-0.29008159041404724,0.04011641442775726,-0.13173030316829681
1772025725294841600,8.580841552734375,-0.27079349756240845,0.0180363766849041,-0.1050453633069992
1772025725304838700,8.590838623046874,-0.27366331219673157,0.009732373058795929,-0.06927485018968582
1772025725314835500,8.60083544921875,-0.28262966871261597,0.004681001883000135,-0.04377415031194687
1772025725324833500,8.61083349609375,-0.29350176453590393,-0.013593343086540699,-0.027239646762609482
1772025725334830600,8.62083056640625,-0.3152521252632141,-0.013132871128618717,-0.035736795514822006
1772025725344827600,8.63082763671875,-0.33096450567245483,0.014202081598341465,-0.047459498047828674
1772025725354825500,8.640825439453126,-0.3365905284881592,0.04918530583381653,-0.046213675290346146
1772025725364822500,8.650822509765625,-0.3432287275791168,0.08722563087940216,-0.0416085384786129
1772025725374820400,8.6608203125,-0.35448402166366577,0.11039473116397858,-0.038310207426548004
1772025725384817700,8.670817626953125,-0.3646641969680786,0.09871010482311249,-0.02956758253276348
1772025725394814500,8.680814453125,-0.38265106081962585,0.07358527928590775,-0.01947067305445671
1772025725404812500,8.6908125,-0.40834948420524597,0.04082280024886131,-0.009952801279723644
1772025725414809300,8.700809326171875,-0.4425086975097656,0.015729695558547974,-0.00018173269927501678
1772025725424807400,8.710807373046874,-0.46975043416023254,0.0029055082704871893,0.010455731302499771
1772025725434804700,8.7208046875,-0.4861561059951782,0.005958882626146078,0.02768983133137226
1772025725444800300,8.73080029296875,-0.5007651448249817,0.021199887618422508,0.036754168570041656
1772025725454798300,8.74079833984375,-0.5113293528556824,0.029420431703329086,0.03770652413368225
1772025725464795400,8.75079541015625,-0.49675461649894714,0.029972238466143608,0.041167836636304855
1772025725474793500,8.76079345703125,-0.4567679762840271,0.019003387540578842,0.047218725085258484
1772025725484790300,8.770790283203125,-0.396173357963562,-0.02572173811495304,0.05768361687660217
1772025725494787300,8.780787353515626,-0.34244635701179504,-0.0984109416604042,0.06615954637527466
1772025725504785400,8.790785400390625,-0.30929771065711975,-0.1805042177438736,0.06970714032649994
1772025725514782500,8.800782470703124,-0.2909928262233734,-0.2452336996793747,0.0702928975224495
1772025725524779300,8.810779296875,-0.2782597243785858,-0.2896517515182495,0.07216110080480576
1772025725534777300,8.82077734375,-0.2859427034854889,-0.34483370184898376,0.07187361270189285
1772025725544774400,8.8307744140625,-0.31803059577941895,-0.3846341073513031,0.052704449743032455
1772025725554772500,8.8407724609375,-0.37868067622184753,-0.38795825839042664,0.030873658135533333
1772025725564769500,8.85076953125,-0.44106149673461914,-0.35563066601753235,0.015507484786212444
1772025725574766300,8.860766357421875,-0.49156907200813293,-0.29943060874938965,0.014277566224336624
1772025725584764400,8.870764404296875,-0.5333274006843567,-0.2516689598560333,0.024982942268252373
1772025725594761500,8.880761474609375,-0.5360007882118225,-0.23443114757537842,0.052426084876060486
1772025725604759600,8.890759521484375,-0.506439208984375,-0.22116513550281525,0.09720315039157867
1772025725614756400,8.90075634765625,-0.43912819027900696,-0.20694944262504578,0.155738964676857
1772025725624753400,8.91075341796875,-0.3474541902542114,-0.19779296219348907,0.2036023586988449
1772025725634751200,8.920751220703124,-0.2400403916835785,-0.19915510714054108,0.24024544656276703
1772025725644748500,8.93074853515625,-0.13007208704948425,-0.1879304051399231,0.255544513463974
1772025725654745300,8.940745361328124,-0.026401128619909286,-0.1433139145374298,0.2509605288505554
1772025725664743400,8.950743408203126,0.056834638118743896,-0.07931548357009888,0.23414188623428345
1772025725674740200,8.960740234375,0.1131163239479065,-0.018450835719704628,0.20885956287384033
1772025725684738300,8.97073828125,0.1503497213125229,0.028684718534350395,0.18162395060062408
1772025725694735400,8.9807353515625,0.17609025537967682,0.05644224211573601,0.15923357009887695
1772025725704732400,8.990732421875,0.1782868355512619,0.06743257492780685,0.14795666933059692
1772025725714730500,9.00073046875,0.16621257364749908,0.06184602156281471,0.15017321705818176
1772025725724727300,9.010727294921875,0.13950826227664948,0.04136285185813904,0.16364321112632751
1772025725734725400,9.020725341796876,0.1145368218421936,0.014951893128454685,0.18653814494609833
1772025725744722400,9.030722412109375,0.0981365367770195,-0.011270656250417233,0.21994031965732574
1772025725754719500,9.040719482421874,0.0911930724978447,-0.02858644351363182,0.26024866104125977
1772025725764717300,9.05071728515625,0.09768639504909515,-0.046125225722789764,0.29965147376060486
1772025725774714400,9.06071435546875,0.1124841719865799,-0.0682218074798584,0.3250025808811188
1772025725784712200,9.070712158203126,0.12885808944702148,-0.08596644550561905,0.33657506108283997
1772025725794709500,9.08070947265625,0.14736782014369965,-0.0933498740196228,0.31967195868492126
1772025725804706300,9.090706298828126,0.16330577433109283,-0.09787671267986298,0.2932283580303192
1772025725814704400,9.100704345703125,0.17927198112010956,-0.09382319450378418,0.25840288400650024
1772025725824701200,9.110701171875,0.18838052451610565,-0.078155018389225,0.2204752117395401
1772025725834698500,9.120698486328125,0.19043642282485962,-0.07277798652648926,0.1787879467010498
1772025725844696300,9.1306962890625,0.18704648315906525,-0.08075495809316635,0.133697971701622
1772025725854693400,9.140693359375,0.1601887196302414,-0.0962691679596901,0.08204981684684753
1772025725864691500,9.15069140625,0.11208751052618027,-0.12376497685909271,0.009827286936342716
1772025725874688500,9.1606884765625,0.04076250270009041,-0.153960719704628,-0.0721001923084259
1772025725884685300,9.170685302734375,-0.03084723651409149,-0.16852262616157532,-0.16003698110580444
1772025725894683400,9.180683349609374,-0.09237413108348846,-0.1551712602376938,-0.24198369681835175
1772025725904680400,9.190680419921875,-0.1273036152124405,-0.10991322994232178,-0.31287598609924316
1772025725914678300,9.20067822265625,-0.13703760504722595,-0.034298017621040344,-0.3632577359676361
1772025725924675600,9.210675537109376,-0.12075316905975342,0.06960654258728027,-0.4005443751811981
1772025725934672400,9.22067236328125,-0.07846739143133163,0.173052117228508,-0.41271549463272095
1772025725944670500,9.23067041015625,-0.0022636977955698967,0.26517191529273987,-0.40177977085113525
1772025725954667300,9.240667236328125,0.09334365278482437,0.3430831730365753,-0.3850979208946228
1772025725964665300,9.250665283203125,0.1885567158460617,0.39623773097991943,-0.35655122995376587
1772025725974662400,9.260662353515626,0.26938295364379883,0.4246751666069031,-0.31139975786209106
1772025725984659500,9.270659423828125,0.3229633569717407,0.4310808479785919,-0.2628503143787384
1772025725994657300,9.2806572265625,0.3583208918571472,0.4079497158527374,-0.2102596014738083
1772025726004654300,9.290654296875,0.3822062611579895,0.36225998401641846,-0.16301405429840088
1772025726014651400,9.3006513671875,0.3907226622104645,0.2968021333217621,-0.1154150441288948
1772025726024649500,9.3106494140625,0.3967379629611969,0.2164287120103836,-0.07894305884838104
1772025726034646500,9.320646484375,0.3986676037311554,0.12913066148757935,-0.04603331536054611
1772025726044644400,9.330644287109376,0.3793996274471283,0.04323972389101982,-0.021031826734542847
1772025726054641400,9.340641357421875,0.352753221988678,-0.031165121123194695,0.0012138878228142858
1772025726064638500,9.350638427734374,0.3321145176887512,-0.08786142617464066,0.01640509068965912
1772025726074636500,9.360636474609375,0.3253217935562134,-0.12105577439069748,0.03326990082859993
1772025726084633300,9.37063330078125,0.32263731956481934,-0.14919792115688324,0.04271293804049492
1772025726094631400,9.38063134765625,0.3201136589050293,-0.18241524696350098,0.04803645983338356
1772025726104628200,9.390628173828125,0.3152081370353699,-0.20755495131015778,0.05141840875148773
1772025726114625500,9.40062548828125,0.30724596977233887,-0.22487980127334595,0.06455544382333755
1772025726124623400,9.410623291015625,0.29558664560317993,-0.22904765605926514,0.07343362271785736
1772025726134620400,9.420620361328124,0.2806239426136017,-0.22509951889514923,0.08432169258594513
1772025726144618500,9.430618408203125,0.26926568150520325,-0.23057618737220764,0.08735816925764084
1772025726154615300,9.440615234375,0.25613582134246826,-0.24264778196811676,0.08667439967393875
1772025726164612400,9.4506123046875,0.24190682172775269,-0.2554861009120941,0.0825643464922905
1772025726174610400,9.4606103515625,0.22420725226402283,-0.2722301483154297,0.08085598796606064
1772025726184607500,9.470607421875,0.21177774667739868,-0.2810947597026825,0.07818510383367538
1772025726194604300,9.480604248046875,0.2114972323179245,-0.2849464416503906,0.08435892313718796
1772025726204602400,9.490602294921874,0.21966300904750824,-0.28037700057029724,0.08812276273965836
1772025726214599400,9.500599365234375,0.2355133593082428,-0.2756865918636322,0.09554605931043625
1772025726224597500,9.510597412109375,0.2551504671573639,-0.2630232572555542,0.10822030901908875
1772025726234594300,9.52059423828125,0.28597626090049744,-0.25279542803764343,0.12270764261484146
1772025726244591400,9.53059130859375,0.32059788703918457,-0.2443915605545044,0.14550508558750153
1772025726254589400,9.54058935546875,0.36737221479415894,-0.2355906069278717,0.1810801923274994
1772025726264586500,9.55058642578125,0.4197757840156555,-0.21106208860874176,0.227937713265419
1772025726274584300,9.560584228515625,0.4820607602596283,-0.19347535073757172,0.2624448835849762
1772025726284581400,9.570581298828126,0.5214877724647522,-0.20444464683532715,0.28389400243759155
1772025726294578400,9.580578369140625,0.5240477919578552,-0.23185309767723083,0.25549834966659546
1772025726304576500,9.590576416015624,0.500968337059021,-0.26352524757385254,0.1903422772884369
1772025726314573300,9.6005732421875,0.46658220887184143,-0.29304006695747375,0.09711398929357529
1772025726324571400,9.6105712890625,0.4340144097805023,-0.31494882702827454,-0.001348937745206058
1772025726334568400,9.620568359375,0.40697965025901794,-0.3066398501396179,-0.10060200840234756
1772025726344565500,9.6305654296875,0.388595312833786,-0.29182708263397217,-0.17453323304653168
1772025726354563600,9.6405634765625,0.3890397548675537,-0.27052316069602966,-0.20878055691719055
1772025726364560400,9.650560302734375,0.40387406945228577,-0.2607397735118866,-0.20803621411323547
1772025726374558500,9.660558349609374,0.4339774250984192,-0.270194411277771,-0.16265113651752472
1772025726384555300,9.67055517578125,0.47609907388687134,-0.2823927402496338,-0.09934832900762558
1772025726394552600,9.680552490234374,0.5221160650253296,-0.2913167476654053,-0.026136167347431183
1772025726404550400,9.69055029296875,0.5559581518173218,-0.2821328341960907,0.04445171356201172
1772025726414547500,9.70054736328125,0.5700718760490417,-0.2589428126811981,0.10490760207176208
1772025726424544300,9.710544189453126,0.5605896711349487,-0.2251371592283249,0.15205566585063934
1772025726434542300,9.720542236328125,0.5236274600028992,-0.20205740630626678,0.17388281226158142
1772025726444540000,9.730539794921874,0.47076931595802307,-0.17822957038879395,0.1742335557937622
1772025726454538000,9.7405380859375,0.41530823707580566,-0.1482701301574707,0.1635977327823639
1772025726464535000,9.75053515625,0.365739107131958,-0.1257251352071762,0.1505783498287201
1772025726474531800,9.76053173828125,0.31840744614601135,-0.09275602549314499,0.142588272690773
1772025726484530000,9.770530029296875,0.266388475894928,-0.05924973636865616,0.13190101087093353
1772025726494527000,9.78052685546875,0.22946514189243317,-0.026159627363085747,0.12757182121276855
1772025726504525000,9.790525146484375,0.2066413164138794,-0.006072734482586384,0.1321391463279724
1772025726514521900,9.80052197265625,0.1876722127199173,0.0013124869437888265,0.15134280920028687
1772025726524519000,9.810518798828125,0.1644316017627716,0.0042717913165688515,0.1714896261692047
1772025726534516700,9.820516845703125,0.11975926160812378,0.027881231158971786,0.1949273645877838
1772025726544514000,9.83051416015625,0.07635293155908585,0.06805980950593948,0.2052503079175949
1772025726554512000,9.840511962890625,0.0348258875310421,0.12044046819210052,0.2085854560136795
1772025726564509000,9.850509033203124,0.01076023280620575,0.1740240752696991,0.19101791083812714
1772025726574505700,9.860505615234375,0.0034710238687694073,0.22249352931976318,0.14702096581459045
1772025726584503800,9.87050390625,0.0007474092999473214,0.25567224621772766,0.0758780837059021
1772025726594500900,9.8805009765625,-0.004925019107758999,0.2707603871822357,-0.026823870837688446
1772025726604498000,9.890497802734375,-0.010625248774886131,0.28983527421951294,-0.1490539014339447
1772025726614496000,9.90049609375,-0.020616332069039345,0.3124788701534271,-0.27554580569267273
1772025726624492800,9.910492919921875,-0.0439956933259964,0.3279781937599182,-0.39437177777290344
1772025726634491000,9.920490966796875,-0.06691484898328781,0.3315424919128418,-0.492436945438385
1772025726644488000,9.930488037109376,-0.06824163347482681,0.3497513234615326,-0.5478410720825195
1772025726654486000,9.940486083984375,-0.034055836498737335,0.40116116404533386,-0.5530065298080444
1772025726664483800,9.95048388671875,0.03230374678969383,0.4412960708141327,-0.520545482635498
1772025726674481000,9.96048095703125,0.1222737655043602,0.45121678709983826,-0.4553934633731842
1772025726684477700,9.970477783203124,0.22977785766124725,0.4935469329357147,-0.3726256191730499
1772025726694475800,9.980475830078126,0.3347559869289398,0.5433791279792786,-0.29139184951782227
1772025726704472800,9.990472900390625,0.4415748417377472,0.5602153539657593,-0.24028022587299347
1772025726714470000,10.000469970703126,0.5438255667686462,0.5502268671989441,-0.2284983992576599
1772025726724468000,10.010468017578125,0.6235531568527222,0.5202156901359558,-0.2553393244743347
1772025726734464800,10.02046484375,0.6718297600746155,0.5184606909751892,-0.31000855565071106
1772025726744462800,10.030462890625,0.7074974775314331,0.5541345477104187,-0.36559006571769714
1772025726754460000,10.0404599609375,0.7216487526893616,0.6146095991134644,-0.42872509360313416
1772025726764457000,10.05045703125,0.7236663103103638,0.6879485249519348,-0.4867101013660431
1772025726774454800,10.060454833984375,0.7092803120613098,0.7463341951370239,-0.5467211008071899
1772025726784451800,10.070451904296876,0.6814790368080139,0.756777822971344,-0.6003142595291138
1772025726794450000,10.080449951171875,0.6517713665962219,0.7519397139549255,-0.6200663447380066
1772025726804447000,10.090447021484374,0.6322490572929382,0.7373341917991638,-0.6033576726913452
1772025726814443800,10.10044384765625,0.6188673973083496,0.6931973099708557,-0.5542155504226685
1772025726824441900,10.11044189453125,0.6031326651573181,0.6048136949539185,-0.47839006781578064
1772025726834439000,10.12043896484375,0.5865458846092224,0.5030417442321777,-0.3852003216743469
1772025726844437000,10.13043701171875,0.5572670698165894,0.4008660912513733,-0.29288026690483093
1772025726854433800,10.140433837890624,0.5310767292976379,0.28778165578842163,-0.21143333613872528
1772025726864430800,10.150430908203125,0.519034743309021,0.1877906322479248,-0.13666801154613495
1772025726874429000,10.160428955078125,0.5145694017410278,0.1176578626036644,-0.06642648577690125
1772025726884426000,10.170426025390626,0.5194275379180908,0.08413026481866837,0.012882184237241745
1772025726894424000,10.180424072265625,0.5283516645431519,0.08188766241073608,0.10132157802581787
1772025726904420900,10.1904208984375,0.5514373183250427,0.10517354309558868,0.18122626841068268
1772025726914418000,10.20041796875,0.5875884294509888,0.14189276099205017,0.2351965606212616
1772025726924415700,10.210415771484374,0.6493088006973267,0.16168271005153656,0.272379070520401
1772025726934413000,10.2204130859375,0.7244495749473572,0.16583819687366486,0.28610169887542725
1772025726944409900,10.230409912109375,0.8023467659950256,0.17885997891426086,0.27536463737487793
1772025726954408000,10.240407958984376,0.8773664236068726,0.19066737592220306,0.25781238079071045
1772025726964404700,10.25040478515625,0.9480054378509521,0.20249979197978973,0.24078811705112457
1772025726974402800,10.26040283203125,1.019021987915039,0.24993641674518585,0.225133016705513
1772025726984400000,10.27039990234375,1.0907834768295288,0.3217461407184601,0.21243134140968323
1772025726994397000,10.28039697265625,1.1741372346878052,0.38356736302375793,0.21432282030582428
1772025727004395000,10.29039501953125,1.253037452697754,0.41568267345428467,0.23099419474601746
1772025727014391800,10.300391845703125,1.2886395454406738,0.41935521364212036,0.24643848836421967
1772025727024390000,10.310389892578126,1.2862858772277832,0.40570253133773804,0.26298415660858154
1772025727034387000,10.320386962890625,1.267126441001892,0.3824343681335449,0.28806811571121216
1772025727044384000,10.330384033203124,1.2554370164871216,0.36456936597824097,0.32941848039627075
1772025727054381800,10.3403818359375,1.2565386295318604,0.37465566396713257,0.38182079792022705
1772025727064379000,10.35037890625,1.270634651184082,0.4076647460460663,0.4469265639781952
1772025727074376700,10.360376708984376,1.2854660749435425,0.43502283096313477,0.5176272988319397
1772025727084374000,10.3703740234375,1.3017332553863525,0.4420035183429718,0.5864306092262268
1772025727094370800,10.380370849609376,1.308406949043274,0.4317324757575989,0.6431220769882202
1772025727104369000,10.390368896484375,1.301163911819458,0.4091840386390686,0.6635485291481018
1772025727114365700,10.40036572265625,1.2919728755950928,0.3668929636478424,0.6478898525238037
1772025727124363800,10.41036376953125,1.292037844657898,0.32710665464401245,0.6060124635696411
1772025727134360800,10.42036083984375,1.2999014854431152,0.28470417857170105,0.5463908314704895
1772025727144358000,10.43035791015625,1.2933239936828613,0.22169700264930725,0.47281622886657715
1772025727154356000,10.44035595703125,1.2823035717010498,0.16181963682174683,0.38430482149124146
1772025727164352800,10.450352783203124,1.271622657775879,0.12328609079122543,0.2942633330821991
1772025727174349800,10.460349853515625,1.2640113830566406,0.1093553677201271,0.1917809247970581
1772025727184348000,10.470347900390625,1.2565441131591797,0.11458581686019897,0.0836416557431221
1772025727194345000,10.480344970703126,1.256333827972412,0.13763710856437683,-0.024459240958094597
1772025727204342800,10.4903427734375,1.253199815750122,0.1760563999414444,-0.1264018565416336
1772025727214340000,10.500340087890624,1.2403984069824219,0.21919314563274384,-0.21208347380161285
1772025727224337000,10.5103369140625,1.2204548120498657,0.2568158805370331,-0.2899572253227234
1772025727234335000,10.5203349609375,1.2006149291992188,0.3016650974750519,-0.34436309337615967
1772025727244331800,10.530331787109375,1.1897857189178467,0.3591422438621521,-0.38095173239707947
1772025727254329900,10.540329833984375,1.195248007774353,0.41153407096862793,-0.3873580992221832
1772025727264327000,10.550326904296876,1.226029872894287,0.46857738494873047,-0.35157346725463867
1772025727274324000,10.560323974609375,1.2721797227859497,0.5422324538230896,-0.290194034576416
1772025727284321800,10.57032177734375,1.3136615753173828,0.6010435819625854,-0.21814754605293274
1772025727294318800,10.58031884765625,1.3514759540557861,0.6432340145111084,-0.14557793736457825
1772025727304317000,10.59031689453125,1.3816919326782227,0.6542224884033203,-0.09648709744215012
1772025727314314000,10.60031396484375,1.4044034481048584,0.6533544659614563,-0.07636431604623795
1772025727324310800,10.610310791015625,1.4194766283035278,0.6245082020759583,-0.09525598585605621
1772025727334308900,10.620308837890626,1.410996913909912,0.5885641574859619,-0.14497941732406616
1772025727344306000,10.630305908203125,1.3928991556167603,0.5010923743247986,-0.20043282210826874
1772025727354303700,10.6403037109375,1.365139365196228,0.40590861439704895,-0.24933622777462006
1772025727364301000,10.650301025390625,1.323137640953064,0.3245285451412201,-0.28933557868003845
1772025727374297900,10.6602978515625,1.266779899597168,0.2682564854621887,-0.3142702877521515
1772025727384296000,10.6702958984375,1.2154844999313354,0.24858157336711884,-0.3216134309768677
1772025727394292700,10.680292724609375,1.1517640352249146,0.2638627290725708,-0.3158113658428192
1772025727404290000,10.6902900390625,1.0951396226882935,0.29383182525634766,-0.2975844144821167
1772025727414288000,10.700287841796875,1.054998517036438,0.33055904507637024,-0.27567121386528015
1772025727424285000,10.710284912109374,1.0429173707962036,0.3672446310520172,-0.24530185759067535
1772025727434282800,10.72028271484375,1.0580008029937744,0.40027424693107605,-0.21858417987823486
1772025727444280000,10.730280029296875,1.0757521390914917,0.42915114760398865,-0.20494906604290009
1772025727454277000,10.740277099609376,1.0841087102890015,0.4287441670894623,-0.20550425350666046
1772025727464275200,10.750275146484375,1.0736448764801025,0.4112224280834198,-0.2234254628419876
1772025727474272000,10.76027197265625,1.0503088235855103,0.40245935320854187,-0.23922409117221832
1772025727484270000,10.77027001953125,1.026650309562683,0.4081350862979889,-0.2540610730648041
1772025727494267000,10.780266845703125,1.0059574842453003,0.4119204580783844,-0.2683597505092621
1772025727504264200,10.79026416015625,1.000653862953186,0.43644922971725464,-0.2716663181781769
1772025727514262000,10.800261962890625,1.0001033544540405,0.5019397139549255,-0.2767397165298462
1772025727524259000,10.810259033203126,1.021675705909729,0.5462195873260498,-0.28279387950897217
1772025727534257200,10.820257080078125,1.0539475679397583,0.5186570882797241,-0.2773963212966919
1772025727544254000,10.83025390625,1.0839107036590576,0.4749203026294708,-0.23138752579689026
1772025727554251000,10.8402509765625,1.0870615243911743,0.4689004719257355,-0.16099272668361664
1772025727564249000,10.8502490234375,1.084459900856018,0.4824669063091278,-0.0767337754368782
1772025727574246100,10.86024609375,1.0918445587158203,0.4627096951007843,-0.00004698755219578743
1772025727584244000,10.870243896484375,1.0959141254425049,0.404376357793808,0.04046075791120529
1772025727594241000,10.880240966796874,1.1073484420776367,0.34542402625083923,0.0499633252620697
1772025727604238000,10.890238037109375,1.1288771629333496,0.3113901615142822,0.027813546359539032
1772025727614236200,10.900236083984375,1.1590518951416016,0.3068603277206421,-0.008077348582446575
1772025727624233000,10.91023291015625,1.181070327758789,0.3136069178581238,-0.019709503278136253
1772025727634231000,10.92023095703125,1.1766096353530884,0.3429959714412689,-0.007129724137485027
1772025727644228000,10.93022802734375,1.1614890098571777,0.3828224837779999,0.02027100697159767
1772025727654225200,10.94022509765625,1.1258925199508667,0.42717188596725464,0.13498179614543915
1772025727664223000,10.950222900390624,1.087215781211853,0.3581528663635254,0.2472532093524933
1772025727674220000,10.960219970703125,1.0776385068893433,0.23889538645744324,0.3273216784000397
1772025727684217000,10.970217041015625,1.1011606454849243,0.08393324166536331,0.3682105243206024
1772025727694215200,10.980215087890626,1.118849277496338,-0.04207653924822807,0.4005059599876404
1772025727704212000,10.9902119140625,1.114119529724121,-0.08183752745389938,0.39475542306900024
1772025727714210000,11.0002099609375,1.0934062004089355,-0.03914801776409149,0.35066044330596924
1772025727724207000,11.01020703125,1.0613490343093872,0.03085397183895111,0.2943721413612366
1772025727734204200,11.0202041015625,1.035354495048523,0.08006846159696579,0.2512245774269104
1772025727744202200,11.0302021484375,1.0365478992462158,0.13754720985889435,0.20624354481697083
1772025727754199000,11.040198974609375,1.0534842014312744,0.12034901231527328,0.14578086137771606
1772025727764197000,11.050197021484376,1.064083218574524,0.06632199138402939,0.08042129874229431
