time,seconds_elapsed,z,y,x
1772025692483743500,0.083743408203125,-1.0976970375180244,-0.5832061309129,-0.1469156314499676
1772025692493740300,0.093740234375,-1.1359931581646203,-0.608724895311892,-0.07328150931000708
1772025692503738400,0.10373828125,-1.122084459799528,-0.5096414207473396,0.020223142208904026
1772025692513735200,0.113735107421875,-1.088499585583806,-0.38241935467422006,0.09199526986926794
1772025692523732500,0.123732421875,-1.0228712213754654,-0.3617828093588352,0.10780775602906942
1772025692533730300,0.133730224609375,-0.9943296020239591,-0.29296529372036456,0.20597280057445166
1772025692543727400,0.143727294921875,-1.0311416215926408,-0.19875527041107416,0.365498322750628
1772025692553725400,0.153725341796875,-0.996273137307167,-0.1278504271045327,0.5067623581796884
1772025692563722500,0.163722412109375,-0.8610814075291157,-0.08612754687964916,0.6007612229563295
1772025692573720600,0.173720458984375,-0.7315180390268564,-0.05967150163054466,0.6549494708701967
1772025692583717400,0.18371728515625,-0.6385474943846464,-0.02338993567675352,0.7197280863814055
1772025692593714400,0.19371435546875,-0.5303817186981439,0.04386778329908848,0.7744485414758324
1772025692603712300,0.203712158203125,-0.34901977389752864,0.13158639876246453,0.7890658265016972
1772025692613709600,0.21370947265625,-0.10913725106716156,0.19513883347958325,0.7466722074083983
1772025692623707400,0.223707275390625,0.10712474220097064,0.287852480751276,0.6772754305772483
1772025692633704400,0.233704345703125,0.2625771697193384,0.3735840140506625,0.623392156959325
1772025692643701200,0.243701171875,0.4406102623581886,0.4269891487628221,0.6000608196020126
1772025692653699300,0.25369921875,0.6059317574620247,0.47523178614526984,0.5993349895454942
1772025692663696400,0.2636962890625,0.7059750169694423,0.5571452224612236,0.5434760319404304
1772025692673694500,0.273694580078125,0.7774860094755888,0.6855448078811168,0.5245664565481245
1772025692683691300,0.283691162109375,0.8848124117285012,0.7694970565482974,0.5228082147039472
1772025692693689300,0.293689453125,1.0061305144548416,0.7152423192694782,0.575379528940469
1772025692703686400,0.303686279296875,1.1603513543516397,0.5995002631098032,0.6566448766112327
1772025692713683500,0.313683349609375,1.2949994787722825,0.5377545855537057,0.7744161005109548
1772025692723681500,0.323681640625,1.3563444665729998,0.5338745292499661,0.889510798677802
1772025692733678300,0.33367822265625,1.408536426103115,0.511903228199482,1.004715240829438
1772025692743676400,0.343676513671875,1.3317664901554584,0.4209194734603166,1.1389829876303672
1772025692753673200,0.353673095703125,1.224517829313874,0.29645342809706926,1.3328374803878367
1772025692763671300,0.36367138671875,1.1182827294290065,0.1479199861869216,1.5919855524413287
1772025692773668400,0.37366845703125,0.9363292484760284,-0.02132511210143566,1.8291902343645692
1772025692783665400,0.38366552734375,0.7402461198836564,-0.2514779758170247,2.0233792197734117
1772025692793663200,0.393663330078125,0.6222317348778248,-0.441122303533554,2.1092574680671095
1772025692803660300,0.403660400390625,0.46950844006240366,-0.45207624374628064,2.083849470566213
1772025692813658400,0.413658447265625,0.24083763159811494,-0.3251794641047716,1.9958327489390968
1772025692823655400,0.423655517578125,0.055445408368110655,-0.1982525815859437,1.8074297995857893
1772025692833653500,0.433653564453125,-0.0914893661737442,-0.1058890629261732,1.6444252031221984
1772025692843650300,0.443650390625,-0.23221534920334816,0.010888181500136852,1.5287160263188182
1772025692853647400,0.4536474609375,-0.32510347625911235,0.12837941941469908,1.3825371847108006
1772025692863645400,0.4636455078125,-0.3208487414240837,0.2287707617074251,1.1855727432392538
1772025692873642500,0.473642578125,-0.22833646194338797,0.3242112035945058,1.029696098959446
1772025692883640300,0.483640380859375,-0.08456921152174472,0.4325476596727967,0.9222770499870181
1772025692893637400,0.493637451171875,0.10641922428011893,0.5127510772004723,0.869026667445153
1772025692903634400,0.503634521484375,0.3316431071609258,0.531690755470097,0.8201426634192466
1772025692913632500,0.513632568359375,0.5308890836983918,0.5041384394168853,0.8029284937679767
1772025692923629300,0.52362939453125,0.6616004531919956,0.46692952948510646,0.8247970650963484
1772025692933627400,0.53362744140625,0.7421130827993154,0.41347997110933066,0.969283569703251
1772025692943624400,0.54362451171875,0.8134592401325702,0.29501141259521246,1.1403211043663322
1772025692953622300,0.553622314453125,0.8364835573673248,0.1349266491010785,1.2818088655486701
1772025692963619600,0.56361962890625,0.8025497235834598,0.014184884957969188,1.3945409262374042
1772025692973616400,0.573616455078125,0.7613684028893709,-0.05965396597385406,1.4871402994796632
1772025692983614500,0.583614501953125,0.7432084768205881,-0.12624445321261882,1.5908200157932937
1772025692993611300,0.593611328125,0.671724956843257,-0.18604601096361875,1.6413221225403247
1772025693003609300,0.603609375,0.5467769731819629,-0.21998890483677386,1.6451101166464388
1772025693013606400,0.6136064453125,0.4630851290166378,-0.18430442799329758,1.5567977730736136
1772025693023604500,0.6236044921875,0.44140112047493457,-0.10704583174586295,1.480344647990167
1772025693033601300,0.633601318359375,0.43116088148951526,-0.05998918927758932,1.4083207375258207
1772025693043598300,0.643598388671875,0.37618893585205077,-0.041019992652535434,1.288855276928842
1772025693053596400,0.653596435546875,0.3096516401052475,-0.035785014608502384,1.1685732392519712
1772025693063593500,0.663593505859375,0.2731950098454952,-0.02696487155407667,1.0873623982474208
1772025693073591600,0.673591552734375,0.23023381999731063,-0.021693068630993365,1.098757067964971
1772025693083588400,0.68358837890625,0.0781874015301466,-0.014230185404419898,1.2005157530881463
1772025693093585400,0.69358544921875,-0.19481997678875923,-0.04457300895899534,1.2404045497536658
1772025693103583200,0.703583251953125,-0.4391232386708259,-0.06106821668595075,1.2244802737824618
1772025693113580500,0.71358056640625,-0.618885347059369,0.003262508927285671,1.1736836410682647
1772025693123578400,0.723578369140625,-0.7832610857456922,0.0727691758736968,1.069637429529801
1772025693133575400,0.733575439453125,-0.9297785116583108,0.1229801907196641,0.9371735172804444
1772025693143573200,0.7435732421875,-1.1390233196407555,0.15011018970757722,0.8682072408210486
1772025693153570300,0.7535703125,-1.3349421975821256,0.11521510967612265,0.7981894825473427
1772025693163567400,0.7635673828125,-1.290406890285015,0.059935705524683,0.6571326601281762
1772025693173565400,0.7735654296875,-0.9935825830489396,0.010110475125908852,0.5819271239530295
1772025693183562200,0.783562255859375,-0.7374637956887483,-0.17768647115826605,0.671987699432671
1772025693193560300,0.793560302734375,-0.8623463128983974,-0.3260530320689082,0.8093878990404307
1772025693203557400,0.803557373046875,-1.2144745742052794,-0.2652519418865442,0.9519540300440043
1772025693213555500,0.813555419921875,-1.4065467135906218,-0.2686395384982228,1.0878338882166891
1772025693223552500,0.823552490234375,-1.4231348602980374,-0.47524932180196044,1.1751193729598075
1772025693233549300,0.83354931640625,-1.3633616518586873,-0.6714218822434544,1.116158430751413
1772025693243547400,0.84354736328125,-1.344682085829973,-0.633374767921865,0.9735915690954774
1772025693253544400,0.85354443359375,-1.3457961845517157,-0.41371611795276403,0.8294949405889958
1772025693263542500,0.86354248046875,-1.2028946110486984,-0.21055384475439787,0.6002114801190793
1772025693273539300,0.873539306640625,-0.9364870693862438,-0.1555120487511158,0.3188276839252561
1772025693283536400,0.883536376953125,-0.7227846974730491,-0.10397913765162228,0.08327668749317527
1772025693293534200,0.8935341796875,-0.566959929510951,0.05820902786254883,-0.038542131296917796
1772025693303531500,0.903531494140625,-0.3763087628394365,0.2608233117893338,-0.10991145031005144
1772025693313529600,0.913529541015625,-0.14638240135610103,0.39784021116793156,-0.21404190606586634
1772025693323526400,0.9235263671875,0.08612930044531822,0.5116071678623557,-0.34877778183519836
1772025693333524500,0.9335244140625,0.238696527916193,0.5974500525817275,-0.4613935226678848
1772025693343521300,0.943521240234375,0.33572540803849693,0.6498717292144894,-0.540173775524646
1772025693353518600,0.9535185546875,0.39497430034279823,0.6413242656216025,-0.5842078553013503
1772025693363516400,0.963516357421875,0.47586920726597304,0.6082458796232938,-0.5801025388743728
1772025693373513500,0.973513427734375,0.5432821168035269,0.6070467329666018,-0.5615528097704052
1772025693383511300,0.98351123046875,0.5928109946042299,0.6096548696383833,-0.5651160552099347
1772025693393508400,0.99350830078125,0.6138035137504338,0.6302665727734565,-0.5563384361229836
1772025693403505400,1.00350537109375,0.6033961015045642,0.6859028275385498,-0.5364841272264719
1772025693413500200,1.013500244140625,0.5601964267253875,0.7121101587235927,-0.5634951029445976
1772025693423497000,1.0234970703125,0.5843500402510166,0.7234688803449273,-0.634945451304689
1772025693433495000,1.0334951171875,0.6493307542055845,0.6913020562335849,-0.7149714664388448
1772025693443491800,1.043491943359375,0.6373451328575611,0.6352689111053943,-0.7406230634372681
1772025693453490000,1.053489990234375,0.5496066436499357,0.6207976104214787,-0.751769822808355
1772025693463487200,1.0634873046875,0.4645090243399143,0.6571998801454901,-0.7758627921879291
1772025693473484000,1.073484130859375,0.3860819688349962,0.7586161815717816,-0.8039319717220962
1772025693483482000,1.083482177734375,0.27047113783955573,0.8218386536821722,-0.8298617280747741
1772025693493479000,1.09347900390625,0.17910802839398382,0.7821402650222182,-0.8492212391916661
1772025693503477000,1.10347705078125,0.12237900995612144,0.7281266430228949,-0.8181719478681683
1772025693513474000,1.11347412109375,0.03795651342868805,0.6582809533804654,-0.7779759118843823
1772025693523472100,1.12347216796875,0.04167115003764629,0.5904305292084813,-0.8427866030342877
1772025693533469000,1.133468994140625,0.27271453285217284,0.5436553340300917,-0.9405376599512993
1772025693543466000,1.143466064453125,0.5284989736914635,0.5521624656125903,-1.0131080983825027
1772025693553463800,1.1534638671875,0.6787608468294143,0.5536296155557036,-0.9623287821292876
1772025693563461000,1.163461181640625,0.7988537916749715,0.42737668677568436,-0.8008223883341997
1772025693573459200,1.173459228515625,0.9200526519358158,0.21616846976578236,-0.6046670712884515
1772025693583456000,1.1834560546875,1.0085030888050794,0.03367167571634054,-0.42588374480418856
1772025693593453000,1.193453125,0.9775777891874313,-0.08199263903200626,-0.3172819888532162
1772025693603451100,1.203451171875,0.9174176272571086,-0.2005135122552514,-0.23317279605865476
1772025693613448200,1.2134482421875,0.856992676910758,-0.3675701605886221,-0.16025705132111906
1772025693623446000,1.223446044921875,0.7476888371050358,-0.5011655610859393,-0.08037599761560558
1772025693633443000,1.233443115234375,0.6652163056015968,-0.5732856254011393,-0.03105557493381202
1772025693643441000,1.24344091796875,0.5973264262020588,-0.6324833720400929,-0.020759221846982836
1772025693653438200,1.253438232421875,0.5494014764666557,-0.664246291525662,-0.03225296802483499
1772025693663435000,1.26343505859375,0.49203591369092464,-0.6671078184366226,-0.05252718283385038
1772025693673433000,1.27343310546875,0.4601899920970201,-0.6599801585137843,-0.09028810062520205
1772025693683430000,1.283429931640625,0.5281278022915125,-0.6439727343037724,-0.11329568592086434
1772025693693428000,1.293427978515625,0.5243880312412977,-0.6038748249322176,-0.12342289298586546
1772025693703425000,1.303425048828125,0.42425124823153015,-0.5620742032960057,-0.12388152347356081
1772025693713422000,1.313422119140625,0.39392274546325207,-0.5098854586362839,-0.12054660689719021
1772025693723420200,1.323420166015625,0.42428398145735263,-0.4611164592921734,-0.08870959926210344
1772025693733417000,1.3334169921875,0.43099663083851336,-0.44889878275394435,-0.06281133402623236
1772025693743415000,1.3434150390625,0.4129506865382194,-0.4404711461484432,-0.04217274288423359
1772025693753412000,1.353412109375,0.38517069920897484,-0.43753041652143,-0.041937984280288214
1772025693763410200,1.36341015625,0.3872141877353191,-0.4313642951071262,-0.08489340197481214
1772025693773407000,1.373406982421875,0.39918636507987976,-0.4513049671128392,-0.1262619158040732
1772025693783404000,1.383404052734375,0.3724386434078216,-0.4785951250985265,-0.13093779866062105
1772025693793401900,1.39340185546875,0.34448329951167106,-0.5090130597159266,-0.13494878786765038
1772025693803399200,1.403399169921875,0.27822131357491015,-0.5237170001119374,-0.09307480873428285
1772025693813397000,1.41339697265625,0.1627794094055891,-0.5296329461574554,-0.05332154808193445
1772025693823394000,1.42339404296875,0.07988777570724487,-0.5565805743157863,-0.008858356172963976
1772025693833390800,1.433390869140625,-0.029462825849652288,-0.6001169337034226,-0.010739639874920248
1772025693843389000,1.443388916015625,-0.20229367367029188,-0.6326122591167688,-0.030760318314284083
1772025693853386200,1.45338623046875,-0.33280981285274025,-0.6494485353663564,-0.05006166950315237
1772025693863384000,1.463384033203125,-0.3896241714864969,-0.6131923961147666,-0.09046813336722552
1772025693873381000,1.473381103515625,-0.44513037013113493,-0.5445844315737486,-0.1377957017313689
1772025693883379000,1.48337890625,-0.5653244372636079,-0.5126353418663144,-0.18707440416328608
1772025693893376000,1.4933759765625,-0.6931921077638864,-0.5324696308881044,-0.22692739886306226
1772025693903373000,1.503373046875,-0.7440987036585808,-0.5495654348567128,-0.24820874488800762
1772025693913371100,1.51337109375,-0.7001736372143029,-0.5696650968164205,-0.24053338795453308
1772025693923368000,1.523367919921875,-0.6057195760160684,-0.7353291217476129,-0.16358583041764796
1772025693933366000,1.533365966796875,-0.7472796717822552,-0.8179907460823654,-0.01942797324322164
1772025693943363000,1.543363037109375,-1.0988228266775608,-0.7048924824297428,0.2488898590199649
1772025693953360100,1.553360107421875,-1.2380904275923967,-0.6714131144151091,0.4555561217512935
1772025693963358200,1.563358154296875,-1.2115566409319638,-0.7109665416464209,0.601800429810956
1772025693973355000,1.57335498046875,-1.2356015333861112,-0.6915913945689797,0.755173493772
1772025693983353000,1.58335302734375,-1.3220686874836682,-0.5522790777295827,0.8363425414614379
1772025693993350100,1.59335009765625,-1.3798515988886355,-0.3276613440483808,0.7866228903289884
1772025694003348200,1.60334814453125,-1.3682938475638626,-0.12203472656309604,0.6617221068102866
1772025694013345000,1.613344970703125,-1.3105997834861278,0.0347691155642271,0.5673116655580699
1772025694023342000,1.623342041015625,-1.2016408115953205,0.16170242782384156,0.5239032433990389
1772025694033340000,1.63333984375,-1.034414359652996,0.28492081121355295,0.47470871211923654
1772025694043337200,1.643337158203125,-0.8306529515177011,0.4066764285743236,0.4263152680892497
1772025694053335000,1.6533349609375,-0.5885276181966066,0.4986462717413902,0.4082442624129355
1772025694063332000,1.66333203125,-0.39269700306057925,0.5959770574197173,0.35141448701433836
1772025694073329000,1.673328857421875,-0.2856383118331432,0.6734022424057126,0.3274425136659294
1772025694083327000,1.683326904296875,-0.23306524403095244,0.680898735640943,0.32886728577204044
1772025694093324000,1.693323974609375,-0.16333178259134293,0.6932172422051429,0.2768625924423337
1772025694103322000,1.703322021484375,-0.01573240666091442,0.7777703793749213,0.2447933834865689
1772025694113319200,1.713319091796875,0.18998072006404398,0.837995715495944,0.1909448158558458
1772025694123317000,1.72331689453125,0.45256256595849986,0.7866027973890304,0.17872560494765638
1772025694133314000,1.73331396484375,0.6756868462115526,0.7048626718133687,0.21348383379168806
1772025694143311000,1.74331103515625,0.7576701328933239,0.6620093262538314,0.343778366112709
1772025694153309200,1.75330908203125,0.7688742484748363,0.6348954016178846,0.487712570599094
1772025694163306000,1.763305908203125,0.7911854490041732,0.5769239819034934,0.5925430643830448
1772025694173304000,1.773303955078125,0.8008008340895175,0.5116004458606243,0.6661255294010042
1772025694183300900,1.78330078125,0.8108458427637815,0.4108949230521917,0.7402981423318385
1772025694193298200,1.793298095703125,0.8306587967365979,0.29805764842331406,0.8299166731324046
1772025694203296000,1.8032958984375,0.7764759556502103,0.20133593455404042,0.9586269319366663
1772025694213293000,1.81329296875,0.6502694963604212,0.11376549538969993,1.0391177881035953
1772025694223291100,1.823291015625,0.5248474654465913,0.039647535255551335,1.0994927618283779
1772025694233288000,1.833287841796875,0.4020943614810705,0.0052644963994622224,1.1316407351087778
1772025694243286000,1.8432861328125,0.23456278911232947,0.06941109761744738,1.119726717692241
1772025694253283000,1.853282958984375,0.08027472919821739,0.20485826346129177,1.1116334276076405
1772025694263280000,1.863280029296875,-0.059139586710929865,0.29861148291379214,1.0628756072446703
1772025694273278000,1.87327783203125,-0.16759470073282717,0.35567835500389333,0.9432523257374763
1772025694283275000,1.88327490234375,-0.20710604238808153,0.456724946334958,0.7726940990239382
1772025694293273000,1.893273193359375,-0.14676643223762512,0.58562108310014,0.6740959968235344
1772025694303270100,1.903270263671875,0.05126198520362377,0.6682748163893818,0.6773360016580671
1772025694313267000,1.913266845703125,0.30037410867214204,0.6807549432560801,0.595446384609118
1772025694323265000,1.92326513671875,0.5765782372057437,0.6777882024049758,0.5363347088184207
1772025694333262000,1.933261962890625,0.7857973262250423,0.6559054564207792,0.4861792966172099
1772025694343260200,1.94326025390625,0.9000549890458583,0.5976289162799716,0.4169313536722213
1772025694353257000,1.953257080078125,0.9603472529232502,0.4958654088512063,0.3815676332157105
1772025694363255000,1.963255126953125,0.9740940387248992,0.375608505615592,0.4438027017239481
1772025694373252000,1.973252197265625,0.9347124609291553,0.2189049089923501,0.6252736598569899
1772025694383249200,1.983249267578125,0.9236381092071533,0.03570902676284313,0.772916217342019
1772025694393247200,1.993247314453125,0.8799211325556039,-0.1075908984079957,0.8509991355843841
1772025694403244000,2.003244140625,0.749376351800561,-0.2642205530121922,0.9546344282343983
1772025694413241600,2.01324169921875,0.6546130785226821,-0.46181233260184523,0.9975838545795529
1772025694423238400,2.02323828125,0.6105120709896087,-0.5780784126356244,0.9754671537090093
1772025694433235500,2.0332353515625,0.5106920988440513,-0.5728773368611931,0.9769557848315685
1772025694443233500,2.043233642578125,0.37991409385502334,-0.5653539556190371,0.9461744237292558
1772025694453230600,2.053230712890625,0.32718963488340375,-0.5949897999480367,0.8494905576523393
1772025694463228400,2.063228515625,0.34229952573180195,-0.6146493169248104,0.7596404100529849
1772025694473225500,2.0732255859375,0.28508769221305846,-0.5994345043972135,0.6823306681402027
1772025694483223600,2.0832236328125,0.21524492518007754,-0.5999170272171497,0.6168818252172321
1772025694493220600,2.093220703125,0.19809505293667315,-0.601807663269341,0.5964009088549762
1772025694503217400,2.103217529296875,0.13112696455717085,-0.5621747410610318,0.6340224181756376
1772025694513215500,2.113215576171875,-0.0470645335137844,-0.541892416010797,0.6862089708782733
1772025694523212500,2.123212646484375,-0.20750994701385497,-0.5579951172888279,0.6897286694370209
1772025694533210600,2.133210693359375,-0.3084136227428913,-0.5662602568089962,0.6571706540510058
1772025694543207400,2.14320751953125,-0.4235574207484722,-0.5362099864602089,0.5709394276011734
1772025694553204500,2.15320458984375,-0.5083452434569598,-0.49111353814899916,0.46251920222956683
1772025694563202600,2.16320263671875,-0.5802613096326589,-0.434992130215466,0.43888636117503044
1772025694573199600,2.17319970703125,-0.7228004795640707,-0.4035203026309609,0.4218234365627169
1772025694583197700,2.18319775390625,-0.8031248931229114,-0.47702480704188344,0.40812786949165164
1772025694593194500,2.193194580078125,-0.7587059056818485,-0.7613394690558314,0.5170334306947887
1772025694603191600,2.203191650390625,-0.7971306211441754,-1.0441931186065077,0.6557767154745757
1772025694613189400,2.213189453125,-1.0736462998449803,-0.9666714875087141,0.7827678954012691
1772025694623186700,2.223186767578125,-1.278430036765337,-0.7331754508450626,0.8380700228411704
1772025694633184500,2.2331845703125,-1.245546004295349,-0.6159969321414828,0.7184867080181837
1772025694643181600,2.243181640625,-1.2246651288300752,-0.5222229621618986,0.5291742426045238
1772025694653179400,2.253179443359375,-1.3345733642697333,-0.37502895216196774,0.30824728973265736
1772025694663176400,2.263176513671875,-1.4206716850548982,-0.179622407656908,0.021642343090754
1772025694673173500,2.273173583984375,-1.405882696723938,0.004648410327732563,-0.2751066521530971
1772025694683171600,2.283171630859375,-1.2731436207950115,0.1374623050585389,-0.6459564554668963
1772025694693168400,2.29316845703125,-1.0382201816767453,0.2441863575041294,-1.0335410839498043
1772025694703166500,2.30316650390625,-1.0107710337370635,0.27566636839509007,-1.2661854722201824
1772025694713163500,2.31316357421875,-1.208538754415512,0.27445640808343885,-1.318935650154948
1772025694723160600,2.32316064453125,-1.3676637329667807,0.2589087103396654,-1.2616641954034566
1772025694733158700,2.33315869140625,-1.3762521130919456,0.2754031874142587,-1.2771608936123549
1772025694743155500,2.343155517578125,-1.314396253159642,0.3565495848804712,-1.4011043764062225
1772025694753153500,2.353153564453125,-1.2080740595132111,0.45723348037898537,-1.5615497899062931
1772025694763150300,2.363150390625,-1.062255137258768,0.5649309079013765,-1.7593072814516721
1772025694773148400,2.3731484375,-0.8445914604991674,0.7201354981385171,-1.9457934373982249
1772025694783145500,2.3831455078125,-0.5511491969168186,0.8279802251771092,-2.064418647778779
1772025694793142500,2.393142578125,-0.2263432422995567,0.8510606565132737,-2.1508253038607537
1772025694803140400,2.403140380859375,0.09739595986902713,0.8331396537669002,-2.1692140702493488
1772025694813137400,2.413137451171875,0.2688642871648073,0.8046706612601876,-2.0580852069735527
1772025694823135500,2.423135498046875,0.2425391748189926,0.766193777219206,-1.8664594961814582
1772025694833132500,2.433132568359375,0.13965747701525688,0.7170575519979,-1.7451937081642448
1772025694843129300,2.44312939453125,0.04958265381455421,0.6402675961755215,-1.6459306392490862
1772025694853127400,2.45312744140625,0.00888181011378765,0.524906940548867,-1.4661023337565362
1772025694863124700,2.463124755859375,0.02641103706359863,0.43076179916933177,-1.311311731147766
1772025694873122600,2.47312255859375,0.1309516079902649,0.42110213655084366,-1.2080597387269139
1772025694883119600,2.48311962890625,0.2616612239181995,0.4788318564638495,-1.0947849494636057
1772025694893116400,2.493116455078125,0.38928631783425804,0.5424123482316732,-0.9541551933500915
1772025694903114500,2.503114501953125,0.5043079507648944,0.5794277814179658,-0.8143459598392248
1772025694913111600,2.513111572265625,0.6210773041456937,0.5743371802806854,-0.6750040515791624
1772025694923109600,2.523109619140625,0.6592290478855372,0.5486459819242357,-0.5482017087554559
1772025694933106400,2.5331064453125,0.6583212853908539,0.5188567005991935,-0.45175479323957113
1772025694943104500,2.5431044921875,0.683927435812354,0.4849596916943788,-0.3838519447606057
1772025694953101300,2.553101318359375,0.767917970663309,0.4404135707423091,-0.34500648313555865
1772025694963098600,2.5630986328125,0.8684533976018428,0.36445787378698585,-0.30301318847145886
1772025694973096700,2.5730966796875,0.9779366856276989,0.2969552401393652,-0.24352033134344964
1772025694983093500,2.583093505859375,1.0623737952023744,0.27039514999389647,-0.20104871511049568
1772025694993091600,2.593091552734375,1.1516273651480675,0.24003859017491339,-0.12678670686315743
1772025695003088400,2.60308837890625,1.2235907775968313,0.19473171398341654,-0.04084182307403535
1772025695013085700,2.613085693359375,1.218639877191186,0.11431114657372235,0.05735635655596852
1772025695023083500,2.62308349609375,1.1774269923150538,-0.01417524034678936,0.1331976333513856
1772025695033080600,2.63308056640625,1.1579922240048646,-0.13697247571498156,0.230664393434301
1772025695043078400,2.643078369140625,1.1432687021255492,-0.24285540116131304,0.3446854710202664
1772025695053075500,2.653075439453125,1.1159347049981354,-0.3472577326610684,0.4174428833909333
1772025695063072500,2.663072509765625,1.1127525678306818,-0.41105040587484837,0.46295551128759976
1772025695073070600,2.673070556640625,1.084991285201907,-0.4212459289357066,0.4997627816159278
1772025695083067400,2.6830673828125,0.9685071785032748,-0.45979368625581263,0.5661217251211405
1772025695093065500,2.6930654296875,0.8550392047554254,-0.5271227169021964,0.5449747460655868
1772025695103062300,2.703062255859375,0.7895423579722642,-0.5449313453152775,0.4479843713227659
1772025695113060400,2.713060302734375,0.7046972521185875,-0.4846905193641782,0.3072092153891921
1772025695123057700,2.7230576171875,0.6223690975219011,-0.4222288024932146,0.1278766575243324
1772025695133054500,2.733054443359375,0.589908843421936,-0.38688831678181884,-0.0040931875977665184
1772025695143052500,2.743052490234375,0.5091197349607944,-0.3994502767130732,-0.050126551432907576
1772025695153049300,2.75304931640625,0.39920039360523224,-0.4691355150967836,-0.08623619488589465
1772025695163047700,2.763047607421875,0.3612625848770141,-0.536299126048386,-0.08313881339244544
1772025695173044500,2.77304443359375,0.3168231391698122,-0.5675432823568582,-0.05838270392902195
1772025695183041500,2.78304150390625,0.18169804488718508,-0.5695484846994281,-0.02414433424063027
1772025695193039400,2.793039306640625,0.020897826600074765,-0.6015457974627614,0.0032698154509067535
1772025695203036700,2.80303662109375,-0.06968377707898617,-0.646207653748989,-0.0250019009180367
1772025695213034500,2.813034423828125,-0.15585457857847212,-0.6494812685921788,-0.0471779307603836
1772025695223031600,2.823031494140625,-0.2301654309362173,-0.5841416581973433,-0.07825579059123992
1772025695233029600,2.833029541015625,-0.2530442022204399,-0.492937830966711,-0.12481295910477637
1772025695243026400,2.8430263671875,-0.2914168952345848,-0.42439767096489667,-0.2059824451856315
1772025695253023700,2.853023681640625,-0.3534650628685951,-0.37095834172219033,-0.27580168521255255
1772025695263021600,2.863021484375,-0.4897714758902788,-0.29814795705527064,-0.32072087726071474
1772025695273018600,2.8730185546875,-0.6569505815595388,-0.25193068802058693,-0.37636034689620135
1772025695283016400,2.883016357421875,-0.7258300565183162,-0.2345826628565788,-0.4385262956909835
1772025695293013500,2.893013427734375,-0.683418317246437,-0.25583997041881085,-0.474160942043364
1772025695303010600,2.903010498046875,-0.5698872151345015,-0.34647885724306104,-0.45337329781949515
1772025695313008600,2.913008544921875,-0.6170832660734653,-0.4240340983495116,-0.36955139753371474
1772025695323005400,2.92300537109375,-0.8030448136240244,-0.3955854179784655,-0.1666957060664892
1772025695333003500,2.93300341796875,-0.9490402614891529,-0.3659203475549817,0.08616028010547161
1772025695343000300,2.943000244140625,-0.9358072704285383,-0.4483353036522865,0.3075710344389081
1772025695352997600,2.95299755859375,-0.9182739518254995,-0.5297983658522367,0.48750090060979123
1772025695362995700,2.96299560546875,-1.0931640702635048,-0.4979147425964474,0.6515813096113503
1772025695372992500,2.972992431640625,-1.3410522048950195,-0.31912498637139797,0.7584124756932258
1772025695382990600,2.982990478515625,-1.4220640161961315,-0.1675929471671581,0.7420520002618431
1772025695392987400,2.9929873046875,-1.3386147486150264,-0.08147387585490941,0.49625937660485503
1772025695402984700,3.002984619140625,-1.2565858692258596,0.028279753544926643,0.12411927775219082
1772025695412982800,3.012982666015625,-1.1649988878965376,0.2060162013247609,-0.22084683684036135
1772025695422979800,3.022979736328125,-1.0862959380596875,0.3575312893941998,-0.46963308935537934
1772025695432978000,3.03297802734375,-0.9485656297147274,0.4741662027403712,-0.7299811848483979
1772025695442974700,3.042974609375,-0.7568547248572111,0.5707815336257219,-0.9199828015699982
1772025695452972800,3.052972900390625,-0.540588639935851,0.6628507455140352,-1.0537846844248473
1772025695462969900,3.062969970703125,-0.2701514043658972,0.7410606511369348,-1.1392590280927717
1772025695472967000,3.072966796875,0.1100982050538063,0.7413429752096533,-1.1147289824701845
1772025695482964700,3.08296484375,0.44292029286622997,0.6317769773364067,-0.9716536598354577
1772025695492961800,3.0929619140625,0.6341361076831817,0.44685324840098617,-0.7876030604727566
1772025695502959600,3.102959716796875,0.6941343570500612,0.345499783077836,-0.6122609604835509
1772025695512957000,3.11295703125,0.7095178041428327,0.3754644209697842,-0.4458313580073416
1772025695522953700,3.12295361328125,0.7127507947146892,0.422940457893908,-0.23876710893437264
1772025695532951800,3.132951904296875,0.640827129754424,0.3923705475851893,-0.028957214415073394
1772025695542948600,3.142948486328125,0.48092415256798265,0.3287503083288669,0.14578721194192767
1772025695552946700,3.15294677734375,0.271399358600378,0.24030571667850015,0.223506995960325
1772025695562943700,3.16294384765625,0.14886486582159994,0.12106325118243694,0.18883900268301368
1772025695572940800,3.17294091796875,0.1831692864835262,0.025825638391077516,0.15012874827757478
1772025695582939000,3.18293896484375,0.2719610841363668,-0.004165595246851444,0.1568042805187404
1772025695592935700,3.192935791015625,0.3235287742882967,0.031524142293632026,0.243260182569921
1772025695602933800,3.202933837890625,0.3084703213661909,0.12797931418120861,0.34372195975035424
1772025695612930800,3.212930908203125,0.22661562950015066,0.3002250555902719,0.4295535924233496
1772025695622928000,3.222927978515625,0.05194821390211582,0.5041363935902714,0.5080028597600758
1772025695632925700,3.23292578125,-0.16376140618026255,0.6355582494407892,0.5487849520035087
1772025695642922800,3.2429228515625,-0.31410277429521083,0.6492451217487454,0.5103207813136279
1772025695652920800,3.2529208984375,-0.2889893758267164,0.624760376572609,0.37096301789730785
1772025695662918000,3.26291796875,-0.15161913296580315,0.6931374549672007,0.12262027136608958
1772025695672914700,3.272914794921875,0.030466449934244154,0.8603402337729931,0.006347323200106621
1772025695682912800,3.282912841796875,0.34502398225963116,1.0336731858968735,-0.056707975649833674
1772025695692909800,3.292909912109375,0.7106178743392229,1.1057385974153875,-0.12822408272251487
1772025695702908000,3.302907958984375,0.9322767582148312,1.0710191662117838,-0.10449848535060882
1772025695712904700,3.31290478515625,1.012595911076665,0.9858967047214507,-0.03707417763620615
1772025695722902800,3.32290283203125,1.0558119524687528,0.9042498103871941,0.08090250570774078
1772025695732899800,3.33289990234375,1.0837199500918389,0.7849924395829438,0.25413974237218495
1772025695742897000,3.34289697265625,1.1272539713919163,0.6052475745901466,0.39843846932202576
1772025695752895000,3.35289501953125,1.1497691700607537,0.41145284919589753,0.5094708864860237
1772025695762891800,3.362891845703125,1.1473831517070532,0.202062203001976,0.5975003214642405
1772025695772889900,3.372889892578125,1.110857547864318,-0.016300854198634623,0.6176975985795259
1772025695782886700,3.38288671875,1.0723960075229406,-0.20482582249641418,0.6239087281793355
1772025695792884000,3.392884033203125,1.050337904971838,-0.39674131001532076,0.6334095469743013
1772025695802881800,3.4028818359375,1.0161229161590337,-0.5662947436004877,0.6444343604661524
1772025695812878800,3.41287890625,0.9412164359956979,-0.7035287928611039,0.6622893122389912
1772025695822876700,3.422876708984375,0.8113140447974204,-0.7768065027788281,0.6981668274365365
1772025695832873700,3.432873779296875,0.7055547457307577,-0.8629536311417818,0.6869241334103048
1772025695842870800,3.442870849609375,0.5917822360783815,-0.9488190199539065,0.6641334788009524
1772025695852868900,3.452868896484375,0.4497206205308437,-1.0094225417375564,0.6681821696698665
1772025695862865700,3.46286572265625,0.29790625725388525,-1.0489277459129691,0.6380073961585759
1772025695872863700,3.47286376953125,0.19353402863144872,-1.0757445872984825,0.5782385716333985
1772025695882860800,3.48286083984375,0.131443775421381,-1.0741196164451539,0.5065127673327923
1772025695892857900,3.49285791015625,0.0949877296835184,-1.0330915866166352,0.47654886009320613
1772025695902856000,3.50285595703125,-0.04033142586648464,-0.9859319221653043,0.5033987269654869
1772025695912852700,3.512852783203125,-0.21943945426046846,-0.9717946757413446,0.5346932982869446
1772025695922850800,3.522850830078125,-0.4117974248498678,-0.9580600187689066,0.5522638801604509
1772025695932847600,3.53284765625,-0.5343102903187275,-0.9078757457993925,0.5388299597002566
1772025695942845000,3.542844970703125,-0.7199959435373544,-0.778312669558078,0.5255347170583904
1772025695952842800,3.5528427734375,-0.9943523983776569,-0.6949243383839726,0.5630567845925688
1772025695962839800,3.56283984375,-1.2133727504432201,-0.658990562954545,0.5569524763680994
1772025695972837600,3.572837646484375,-1.3176795126140117,-0.6281744227997959,0.5138743821419776
1772025695982834700,3.582834716796875,-1.3343600137799978,-0.5882406179487705,0.4146658198930323
1772025695992831700,3.592831787109375,-1.3040987310290335,-0.5903472348392009,0.2957748712483793
1772025696002829800,3.602829833984375,-1.2321323959708212,-0.7059902145385741,0.16699958438389
1772025696012826600,3.61282666015625,-1.3368459853768349,-0.644299774301052,0.05209938587583601
1772025696022824700,3.62282470703125,-1.5960159770011901,-0.3057590165808797,0.06439560754299163
1772025696032822000,3.632822021484375,-1.6256757867276668,-0.13035042722672224,0.07714527206607162
1772025696042818800,3.64281884765625,-1.4306892212003468,-0.2237063179247081,0.004363967363163829
1772025696052817000,3.65281689453125,-1.2293465646445751,-0.31283450792506334,-0.051352147705107924
1772025696062813700,3.662813720703125,-1.200268938720226,-0.19077990761771796,-0.1262085051164031
1772025696072811800,3.672811767578125,-1.1847902145594358,0.055994420552998775,-0.16738595335297285
1772025696082808800,3.682808837890625,-1.0274451051622628,0.19966230225339532,-0.2214831619825214
1772025696092807000,3.692806884765625,-0.826492324706912,0.1987299898393452,-0.2524171563632786
1772025696102803700,3.7028037109375,-0.7484393632113933,0.17609934809729455,-0.18083974755741655
1772025696112800800,3.71280078125,-0.7873176676601171,0.2128796573534608,-0.090548358996585
1772025696122798600,3.722798583984375,-0.7675321862161159,0.27884821330159903,-0.09199464881476015
1772025696132796000,3.7327958984375,-0.6870429374843835,0.3244862211436033,-0.15056644557509571
1772025696142794000,3.7427939453125,-0.6325023690015077,0.40981589564383025,-0.2199189083404839
1772025696152790800,3.752790771484375,-0.5823614967823029,0.5086591317117214,-0.3063588091049343
1772025696162787800,3.762787841796875,-0.5328840569078922,0.6143477036297321,-0.4262691639252007
1772025696172785700,3.77278564453125,-0.454356463637948,0.6931050140023232,-0.5167307944864035
1772025696182783000,3.782782958984375,-0.32558979847133157,0.7525900531500578,-0.6118634125333279
1772025696192780800,3.79278076171875,-0.2117214272290468,0.8121978418946265,-0.7798249738171696
1772025696202777900,3.80277783203125,-0.02114215674996376,0.8760951445266604,-0.8671397577200084
1772025696212774700,3.812774658203125,0.19718787496387957,0.9304100875601172,-0.9384651645261793
1772025696222772700,3.822772705078125,0.35861645428240296,0.8858902700930833,-0.9520205924741924
1772025696232769800,3.832769775390625,0.47529871390163897,0.8267159043297171,-0.930297055639699
1772025696242768000,3.842767822265625,0.522244589471817,0.7801093437165021,-0.858841665778309
1772025696252764700,3.8527646484375,0.5609709182292223,0.7627402757644652,-0.8088808263011277
1772025696262761700,3.86276171875,0.5941705925196409,0.7450988206118345,-0.7700400773838162
1772025696272759800,3.872759765625,0.5814256772369146,0.7085650334626435,-0.7441473651058972
1772025696282756900,3.8827568359375,0.5757663363009691,0.6447513174608349,-0.7161961128629744
1772025696292755000,3.8927548828125,0.5700210706472396,0.5767609002962708,-0.6712899264268577
1772025696302751700,3.902751708984375,0.6009270810425281,0.5372425443783402,-0.6189890996947884
1772025696312748800,3.912748779296875,0.6564473082125186,0.5069955824136734,-0.5871911819610744
1772025696322747000,3.922746826171875,0.6607932284623385,0.49118981825560326,-0.543317188116908
1772025696332744000,3.932743896484375,0.5882195751607417,0.4731210776016116,-0.505653885481134
1772025696342741800,3.94274169921875,0.47957215343713755,0.43056788403242824,-0.4396920880673453
1772025696352738800,3.95273876953125,0.4456085090368986,0.36611177847385407,-0.441279284193553
1772025696362735900,3.96273583984375,0.530745291313529,0.34195085842460393,-0.5152905690828338
1772025696372734000,3.97273388671875,0.7049614560127258,0.37421675899624823,-0.6410899454090744
1772025696382730800,3.982730712890625,0.9073878161519765,0.3868319104194641,-0.7454552328340709
1772025696392728800,3.992728759765625,1.1115057826399803,0.3602607143580913,-0.7990153389122336
1772025696402725600,4.0027255859375,1.2227280232876538,0.2742246451541781,-0.814717569630593
1772025696412723200,4.01272314453125,1.2499375172525644,0.14739333196431398,-0.7367574740502983
1772025696422721000,4.022720947265625,1.2223439924061297,-0.03161415866464376,-0.6230129483833908
1772025696432718300,4.03271826171875,1.2194102770417927,-0.1966594671756029,-0.5445015025306492
1772025696442716400,4.04271630859375,1.2469067712545394,-0.33559155252575873,-0.45400896537452934
1772025696452713200,4.052713134765625,1.2225929987311364,-0.4624810256436467,-0.3617407237827778
1772025696462710000,4.0627099609375,1.1405804859548807,-0.5772241338938474,-0.2642524825204164
1772025696472708400,4.072708251953125,1.0509002150297164,-0.7102277059778571,-0.13102321192175148
1772025696482705400,4.082705322265625,0.9374626364201307,-0.8346928745582699,-0.02371756019592285
1772025696492703200,4.092703125,0.8193950599223375,-0.9288222338467835,0.06075973525866866
1772025696502700300,4.1027001953125,0.7103425645291804,-0.937014308130741,0.09498371109552681
1772025696512697300,4.112697265625,0.6160106684058905,-0.9006946021236478,0.052422261154651636
1772025696522695400,4.1226953125,0.5408972674936056,-0.8418877544984221,-0.017124153280258177
1772025696532692200,4.132692138671875,0.5230325249791145,-0.7784900719515979,-0.1372314919773489
1772025696542690300,4.142690185546875,0.4532850350141525,-0.7368541393578052,-0.27207755012288687
1772025696552687000,4.15268701171875,0.30592882018983364,-0.6873783069185913,-0.37144656363055106
1772025696562684400,4.162684326171875,0.17772621864676474,-0.5872054296821355,-0.4253161740493029
1772025696572682200,4.17268212890625,0.1287111355870962,-0.5099199454277753,-0.4589393344487995
1772025696582679300,4.18267919921875,0.09708265613615512,-0.47787280217334627,-0.4376460787903517
1772025696592677400,4.192677490234375,0.07464987505376339,-0.5082444134309888,-0.4016516592148691
1772025696602674200,4.202674072265625,0.04132043690383434,-0.5562450587511062,-0.4145384671863168
1772025696612671200,4.212671142578125,-0.01647299589514732,-0.5975688566558063,-0.4277179744940251
1772025696622669300,4.22266943359375,-0.08519698803126811,-0.6073150285139679,-0.4419065127138048
1772025696632666400,4.232666259765625,-0.12620879737734794,-0.5886114970877766,-0.41830424946062267
1772025696642664200,4.242664306640625,-0.14773556953072547,-0.5654844501309096,-0.37315724000595507
1772025696652661200,4.2526611328125,-0.19031740467250347,-0.571714868953079,-0.27737594879195093
1772025696662658300,4.262658203125,-0.24748598357141016,-0.6360754051826893,-0.17622144010700283
1772025696672656400,4.272656494140625,-0.2636889303535223,-0.6845993437245488,-0.10483787337280809
1772025696682653200,4.282653076171875,-0.24964286934435367,-0.6866283653341233,-0.062474722483009094
1772025696692651300,4.2926513671875,-0.19690555089116096,-0.6622821518458426,-0.09080306441001594
1772025696702648000,4.30264794921875,-0.17740940778255462,-0.6092717155396938,-0.12415296082608401
1772025696712645400,4.312645263671875,-0.20113982746005057,-0.5574160022266209,-0.14654935542084277
1772025696722643200,4.322643310546875,-0.23749475091099737,-0.5260914741583168,-0.18482750201933085
1772025696732640300,4.33264013671875,-0.3378326094508171,-0.4974250593833625,-0.20823088169954715
1772025696742638300,4.342638427734375,-0.4547738122671842,-0.4640756013587117,-0.2651817992597818
1772025696752635100,4.35263525390625,-0.5145598801881075,-0.4527069428652525,-0.3262337954632938
1772025696762632400,4.362632568359375,-0.5550175627827644,-0.5055896611385047,-0.32618082316704095
1772025696772630300,4.37263037109375,-0.6190671333670615,-0.6920343160308897,-0.2086138166025281
1772025696782627300,4.38262744140625,-0.8557359548479319,-0.8664888195306062,-0.06020458559393883
1772025696792625200,4.392625244140625,-1.2375211032718418,-0.7815706484407186,0.09470635545887053
1772025696802622200,4.402622314453125,-1.4729729501783846,-0.6520443970784544,0.16205182578340172
1772025696812619300,4.412619384765625,-1.5326462053745984,-0.7370872174613178,0.15847542860135436
1772025696822617300,4.422617431640625,-1.6488438963472842,-0.8710019130408764,0.14955357873812317
1772025696832614100,4.4326142578125,-1.965419782757759,-0.7438112650193274,0.20112704104371368
1772025696842612200,4.4426123046875,-2.2397294758468864,-0.43757250209748744,0.1441032043777406
1772025696852609300,4.452609375,-2.244492160204053,-0.14703472778499124,-0.0406464100997895
1772025696862606300,4.4626064453125,-2.039783242085576,0.032538433902710676,-0.20051168562434613
1772025696872604400,4.4726044921875,-1.82548641141057,0.24472689412161708,-0.33342202646695074
1772025696882601200,4.482601318359375,-1.6953303377121687,0.49082566111832854,-0.46992432738691564
1772025696892598300,4.492598388671875,-1.5298141968190668,0.6651447016701102,-0.5767659417975693
1772025696902596400,4.502596435546875,-1.334357675692439,0.782333595637232,-0.659131651925668
1772025696912593400,4.512593505859375,-1.117587732902169,0.8505226041138172,-0.6809622293312102
1772025696922591200,4.52259130859375,-0.8449643854647875,0.9140073804222046,-0.634578079297021
1772025696932588300,4.53258837890625,-0.5113040932625532,0.9816171277061104,-0.5791624815452844
1772025696942585300,4.54258544921875,-0.16137947947978973,1.0458191123731433,-0.550018512386456
1772025696952583400,4.55258349609375,0.1745733075737953,1.0113464955374598,-0.44504159586913883
1772025696962580200,4.562580322265625,0.46935529532730574,0.8709355698063969,-0.26669154623560604
1772025696972578300,4.572578369140625,0.7646703670442104,0.7770115238316356,-0.10428915344886482
1772025696982575000,4.5825751953125,0.949416693586111,0.8294168338514863,0.05348601792864501
1772025696992572400,4.592572509765625,0.8953338057428598,0.9033728814221919,0.31338914613313973
1772025697002570200,4.6025703125,0.7745160537540913,0.8269025129429995,0.5999527561176567
1772025697012567300,4.6125673828125,0.7037626016169786,0.6221852653875947,0.8331102084767072
1772025697022565400,4.6225654296875,0.6898878055214881,0.40585371401458975,1.0250962039485574
1772025697032562200,4.632562255859375,0.6506126107096671,0.2694873874992132,1.1200556573856622
1772025697042559200,4.642559326171875,0.6177677412062883,0.21835779650360346,1.1232149981994182
1772025697052557300,4.652557373046875,0.5831289740234613,0.24986674122810362,1.04723606649898
1772025697062554400,4.662554443359375,0.5478910719037056,0.3155871676340699,0.9689280342638492
1772025697072552200,4.67255224609375,0.4684171376943588,0.35604368118494745,0.9244513252861797
1772025697082549200,4.68254931640625,0.36966157990992066,0.38430268420279023,0.9095607762768864
1772025697092546300,4.69254638671875,0.2767512410223484,0.44033173767775297,0.9107173259008675
1772025697102544400,4.70254443359375,0.12074760936200618,0.5204398781374097,0.9103964233834296
1772025697112541200,4.712541259765625,-0.004282791885733604,0.6458928887113928,0.8142928414124995
1772025697122539300,4.722539306640625,-0.051399347847700116,0.7826505526319145,0.655269788865745
1772025697132536000,4.7325361328125,0.0357756622582674,0.8700827523693442,0.509289392439276
1772025697142533400,4.742533447265625,0.23570611392855642,0.9249591286778449,0.42245384342074394
1772025697152531200,4.75253125,0.46149581399858,0.9744397834226488,0.3748934161487967
1772025697162528300,4.7625283203125,0.687340459126234,1.0098977580338715,0.30424941573552783
1772025697172526300,4.7725263671875,0.8716659299075603,1.0357195970326663,0.2841800027836114
1772025697182523100,4.782523193359375,0.9997335068941116,0.9666633042022585,0.30694318486414846
1772025697192520200,4.792520263671875,1.0400491506695746,0.8155030209198594,0.38060076094493267
1772025697202518300,4.802518310546875,1.038444638082385,0.6419520421311259,0.5675071881301701
1772025697212515300,4.812515380859375,1.092083873811364,0.4461223037779331,0.766560418574512
1772025697222513200,4.82251318359375,1.1533861915141344,0.23440847533345222,0.9204453045152127
1772025697232510200,4.83251025390625,1.201807984855771,0.017004618553817272,0.9542261396944522
1772025697242507300,4.84250732421875,1.1998340544342994,-0.17185761887431145,1.0245618778761476
1772025697252505300,4.85250537109375,1.1130834072202442,-0.3186161600664258,1.087700398030132
1772025697262502100,4.862502197265625,1.0433470231711863,-0.4546022550925612,1.1011115952018649
1772025697272499200,4.872499267578125,1.0397411076337097,-0.5698156112030148,1.0687241871424018
1772025697282497300,4.882497314453125,1.0051268903702497,-0.6297767434298992,1.0264395813815295
1772025697292494300,4.892494384765625,0.8976689706921577,-0.6382490959599614,1.0224109834525734
1772025697302492200,4.9024921875,0.8156956208825111,-0.6769596426263451,1.0041533691629767
1772025697312489200,4.9124892578125,0.7883943569809198,-0.7602385220766067,0.9666022216647863
1772025697322486300,4.922486328125,0.723669079092145,-0.8109370281785726,0.914536372732371
1772025697332484400,4.932484375,0.6468284159958362,-0.8282453058540821,0.871154984710738
1772025697342481400,4.9424814453125,0.6085843177974224,-0.8601689688593148,0.8816514634795486
1772025697352479200,4.952479248046875,0.5903653550177812,-0.9116443045526742,0.8800457087833434
1772025697362476300,4.962476318359375,0.4904559510231018,-0.9371309202477336,0.8803476143393665
1772025697372473300,4.972473388671875,0.3160305274873972,-0.9627934770315885,0.9025710635200143
1772025697382471400,4.982471435546875,0.18881985959112643,-0.9793823543913662,0.9092997141879051
1772025697392468200,4.99246826171875,-0.000020458266139030454,-0.9779656194612383,0.8646393192064017
1772025697402466300,5.00246630859375,-0.21903028893768786,-0.9207825736455619,0.7845050944574177
1772025697412462800,5.012462890625,-0.4134147969186306,-0.836220230256021,0.6645371642310172
1772025697422460000,5.0224599609375,-0.6636170537114143,-0.7752490442037582,0.5447125149328261
1772025697432458000,5.0324580078125,-0.936501682433486,-0.7308785720795392,0.441127491165325
1772025697442454800,5.042454833984375,-1.1601029325485228,-0.7135236787833273,0.3742521225705743
1772025697452452900,5.052452880859375,-1.2828607126891611,-0.7749043224193155,0.32470264037325974
1772025697462449700,5.06244970703125,-1.3211731999486684,-0.9744215171135961,0.2479392802968621
1772025697472447000,5.072447021484375,-1.4527064072191715,-0.9184228587768971,0.15185527980923652
1772025697482444800,5.08244482421875,-1.7494319302558898,-0.47051630193069577,0.1574266502007842
1772025697492441900,5.09244189453125,-1.849201633518934,-0.10947364341467618,0.11981496815439313
1772025697502438700,5.102438720703125,-1.6199503948181866,-0.050708589104562996,-0.061272032162360844
1772025697512437000,5.11243701171875,-1.2126999657481907,-0.10560659272298216,-0.3215799052428454
1772025697522434000,5.12243408203125,-0.8454027768820523,-0.057331222114712,-0.5848982121856883
1772025697532432000,5.132431884765625,-0.6855214270055293,0.11564429487362503,-0.7473300867952406
1772025697542429000,5.142428955078125,-0.6731617116481066,0.25036563066095113,-0.7083601585403084
1772025697552426000,5.152426025390625,-0.7131985384821892,0.1551888081461191,-0.5543165018413215
1772025697562424000,5.162424072265625,-0.8588689921766519,-0.06155979959517717,-0.4511644261309877
1772025697572420900,5.1724208984375,-1.1241899076461792,-0.16603095854744315,-0.3354479793366045
1772025697582419000,5.1824189453125,-1.3831857117474078,-0.13654168308228254,-0.2769147610209882
1772025697592415700,5.192415771484375,-1.512657894834876,-0.03794964529648423,-0.32034557767491784
1772025697602413000,5.2024130859375,-1.513295608216524,0.1300768709823489,-0.4762928760381415
1772025697612411000,5.212410888671875,-1.4872364533305167,0.3323036168962717,-0.6422415265969932
1772025697622408000,5.222407958984375,-1.4231553185641765,0.5586591341555118,-0.8847380313180386
1772025697632406000,5.232406005859375,-1.2995675173401833,0.777038704099506,-1.1499195383168757
1772025697642402800,5.24240283203125,-1.080263672158122,0.997817444139719,-1.3727933509401977
1772025697652399900,5.25239990234375,-0.7482406257688998,1.1675436039432883,-1.56425057329759
1772025697662398000,5.26239794921875,-0.3888824132084846,1.257169952724129,-1.7180875284433363
1772025697672395000,5.27239501953125,-0.10061784452497959,1.2730403065510094,-1.7809800379469989
1772025697682392800,5.282392822265625,0.16713468200564383,1.2582730916604399,-1.7723801135145127
1772025697692390000,5.292389892578125,0.3757943835765123,1.2031535542458296,-1.6550187855899332
1772025697702387000,5.302386962890625,0.5183277082890272,1.1115066594228147,-1.4935979511864483
1772025697712385000,5.312385009765625,0.6029793373972178,1.0150193388313054,-1.407448923127353
1772025697722380000,5.322380126953125,0.7133131047725677,0.8949296088561415,-1.3361430978044866
1772025697732376800,5.332376953125,0.845946382239461,0.7506497327372431,-1.2348089217036962
1772025697742375000,5.342375,0.9369885891675949,0.6298594532772899,-1.1390278496854007
1772025697752371700,5.352371826171875,0.975140917429328,0.5274877508223057,-1.0470989961158483
1772025697762369800,5.362369873046875,1.0002367802411318,0.4723319730505347,-1.0014338810712098
1772025697772366800,5.372366943359375,0.9624491936385631,0.4106584839478135,-0.9309016704693436
1772025697782364000,5.382364013671875,0.8800579106777906,0.3225339180320501,-0.8450497987259179
1772025697792362000,5.392362060546875,0.7907377052366733,0.21837533216029403,-0.7315340403135866
1772025697802358800,5.40235888671875,0.7375380299687385,0.1362269180446863,-0.6329425139844417
1772025697812356900,5.41235693359375,0.7438643103808165,0.11120441273003816,-0.5623700444374233
1772025697822354000,5.42235400390625,0.7628577646642923,0.11869389170259237,-0.5001415518004447
1772025697832351000,5.43235107421875,0.8593728500455617,0.10050415501743555,-0.5210509592404589
1772025697842348800,5.442348876953125,0.9834054724276066,0.09952917250543832,-0.5700465338820592
1772025697852345900,5.452345947265625,1.0613982281684875,0.096404026222229,-0.6223722393270582
1772025697862343700,5.46234375,1.127362692463398,0.05806991165280342,-0.6668375501278787
1772025697872341000,5.472341064453125,1.2346990315884352,-0.0018637480452656744,-0.670759107485786
1772025697882337800,5.482337890625,1.2770458889305591,-0.06664104838222265,-0.6332092020966112
1772025697892335900,5.4923359375,1.154324933668971,-0.14586466109231114,-0.5485983433902263
1772025697902332700,5.502332763671875,1.041747771281004,-0.28574703290462494,-0.4489828077755868
1772025697912330000,5.512330078125,0.9956336703598498,-0.45017771664857864,-0.32736579516790804
1772025697922328000,5.522328125,0.9339712871730327,-0.5545201346546411,-0.20106741981096565
1772025697932324900,5.532324951171875,0.8412561785966157,-0.6097558457948267,-0.10032353775352239
1772025697942323000,5.542322998046875,0.7720335892885923,-0.6732423756688832,-0.0481257330045104
1772025697952319700,5.55231982421875,0.7052747597455978,-0.7404867967717349,-0.07037227079980075
1772025697962317000,5.562317138671875,0.6014157413423061,-0.7931614252522587,-0.158283997682482
1772025697972315000,5.57231494140625,0.45483810967504973,-0.8064682122014463,-0.2506220896400511
1772025697982312000,5.58231201171875,0.3467985907167196,-0.787928639165312,-0.3648035454194993
1772025697992309800,5.592309814453125,0.25555939991176124,-0.7627373531550169,-0.42945341998450454
1772025698002306800,5.602306884765625,0.13578969567120075,-0.7293257896795868,-0.44731012532301245
1772025698012304000,5.612303955078125,0.016621464455127716,-0.6894476605385541,-0.46398580418340857
1772025698022302000,5.622302001953125,-0.07562135043442249,-0.6522698763974011,-0.4879008597128093
1772025698032298800,5.632298828125,-0.10528934346735477,-0.6121745973743498,-0.5113604265596717
1772025698042296800,5.642296875,-0.20266309150457382,-0.5461728698089718,-0.5697160963512957
1772025698052294000,5.6522939453125,-0.3337012087345123,-0.4964185126893222,-0.6220209416713566
1772025698062291000,5.662291015625,-0.4367150084853172,-0.48956806227266786,-0.6184767662584781
1772025698072289000,5.6722890625,-0.5495885234713555,-0.5129034912832081,-0.5526518565647304
1772025698082285800,5.682285888671875,-0.6437047310173512,-0.5690504720494151,-0.4490455708134919
1772025698092283000,5.692282958984375,-0.7388467744797468,-0.6065387834444642,-0.413662049677968
1772025698102281000,5.702281005859375,-0.8259183242112398,-0.5879989181473851,-0.46150399730503555
1772025698112278000,5.712278076171875,-0.9281552943706511,-0.5482397392109036,-0.5303739737831056
1772025698122275800,5.72227587890625,-1.0088502948075533,-0.45486792029142376,-0.5951021012160926
1772025698132273000,5.73227294921875,-1.0745423719018696,-0.34059228342249986,-0.6582233049090951
1772025698142270000,5.74227001953125,-1.1171762294918297,-0.24936244496777651,-0.7197633768904954
1772025698152268000,5.75226806640625,-1.1242226408720015,-0.19114026536270975,-0.7465065685179084
1772025698162264800,5.762264892578125,-1.065576975157857,-0.16786299628019333,-0.7811761692304163
1772025698172263000,5.772262939453125,-1.0044932686418295,-0.15811200211644172,-0.7733857345499098
1772025698182259700,5.782259765625,-0.8884709342360496,-0.30321254696846006,-0.6518883297339081
1772025698192257000,5.792257080078125,-0.7814309477090835,-0.5444149202257395,-0.4885627576876431
1772025698202254800,5.8022548828125,-0.9668804540842771,-0.5493488694965839,-0.35064905559979376
1772025698212252000,5.812251953125,-1.166053949907422,-0.4112243011370301,-0.16962459912523625
1772025698222248700,5.822248779296875,-1.1021125158727167,-0.45162060893326994,-0.023250746401771903
1772025698232246800,5.832246826171875,-1.0699316632360218,-0.6148688048943877,0.11339710046872496
1772025698242243800,5.842243896484375,-1.1383411825954914,-0.6817030377611517,0.2534557786960155
1772025698252242000,5.852241943359375,-1.333937988975644,-0.5495023064926267,0.3948974357143044
1772025698262239000,5.862239013671875,-1.6133166558921337,-0.2935346180409193,0.5018351309105754
1772025698272235800,5.87223583984375,-1.771574788480997,-0.09067337361574172,0.5420789515588432
1772025698282233900,5.88223388671875,-1.7442402068316936,-0.0008899345770478248,0.39543161565624174
1772025698292231000,5.89223095703125,-1.5853098740696907,0.11399462797045708,0.20419804598689079
1772025698302229000,5.90222900390625,-1.4446207159191369,0.3222875420555472,0.10559227193668484
1772025698312225800,5.912225830078125,-1.2516419830828904,0.5745405938982964,-0.022730668050423262
1772025698322222800,5.922222900390625,-0.9438234036237001,0.7964443924456834,-0.19388181915581226
1772025698332220700,5.932220703125,-0.5929664774268866,0.9974284448221326,-0.36801162074580784
1772025698342218000,5.942218017578125,-0.31518121718168257,1.176130522763729,-0.4742858835972845
1772025698352215800,5.9522158203125,-0.06700608230233192,1.29492027605623,-0.5288916262708604
1772025698362215000,5.96221484375,0.14242460364103315,1.3406135212168098,-0.5419026451438665
1772025698372212000,5.9722119140625,0.32012334975898266,1.3509718336239456,-0.5216396823812276
1772025698382209800,5.982209716796875,0.5556032537162303,1.340851713886857,-0.4025861635860055
1772025698392206800,5.992206787109375,0.8690683146297932,1.2896814986199139,-0.2639478004854172
1772025698402205000,6.002204833984375,1.2291934199094772,1.2155910110145807,-0.08397204934619366
1772025698412201500,6.012201416015625,1.5262106193691491,1.1121370662808419,0.08044000276252627
1772025698422198300,6.0221982421875,1.6663368829399345,0.9899456878513098,0.29991065587885674
1772025698432196400,6.0321962890625,1.677041232305765,0.8717407487094402,0.4874298812001943
1772025698442193200,6.042193115234375,1.6056237633019685,0.7778881605356931,0.6687849578686058
1772025698452190500,6.0521904296875,1.4487807582080363,0.6567983136072755,0.8515093501288443
1772025698462188300,6.062188232421875,1.324749304869771,0.49533612428009505,1.0134723285850138
1772025698472185300,6.072185302734375,1.1812328143388031,0.32568478327840567,1.1433557228218763
1772025698482183200,6.08218310546875,1.0753513501971959,0.16921148827970026,1.1710285234495996
1772025698492180200,6.09218017578125,1.0120260022342205,0.04026332906633615,1.1548650318950413
1772025698502177300,6.10217724609375,0.8430454001009464,0.002837269252538681,1.1301307689372448
1772025698512175400,6.11217529296875,0.5788695630133152,0.02052870102673769,1.040984677954018
1772025698522172200,6.122172119140625,0.3526011395156383,0.03216214793622493,0.9033794572934508
1772025698532170200,6.132170166015625,0.11727321124970912,0.09296090003103018,0.8288486055094748
1772025698542167300,6.142167236328125,-0.2914771009892225,0.18936025007814167,0.8437558864578604
1772025698552164400,6.152164306640625,-0.6822346604198217,0.19800737465322016,0.8708111397091299
1772025698562162400,6.162162353515625,-0.8048480636537074,0.21015081691145895,0.7592603977594524
1772025698572159200,6.1721591796875,-0.7238701546221971,0.298833601231873,0.577422213749215
1772025698582156300,6.18215625,-0.5963111116796732,0.3952244757115841,0.42059221426732835
1772025698592154400,6.192154296875,-0.3863046716749668,0.46515141389667986,0.25780513301193714
1772025698602151400,6.2021513671875,-0.03105097182393074,0.5568304574236274,0.04320318191051483
1772025698612149200,6.212149169921875,0.3119844669669866,0.634534751611948,-0.10960026546902954
1772025698622146300,6.222146240234375,0.5626502496182918,0.6302236104145645,-0.19572401295639574
1772025698632143400,6.232143310546875,0.7038339132875203,0.5137020943149924,-0.19410320682153104
1772025698642141400,6.242141357421875,0.802028914579749,0.3282268689766526,-0.10576675172075628
1772025698652138200,6.25213818359375,0.8747329162627459,0.14799831212013959,0.1169165798317641
1772025698662136300,6.26213623046875,0.9217115250587463,-0.05501783060580492,0.39873562563769516
1772025698672133000,6.272133056640625,0.976737246710062,-0.2754153162434697,0.5991127981621772
1772025698682130400,6.28213037109375,1.055996076864004,-0.4880974051982164,0.7013976991165429
1772025698692128300,6.292128173828125,1.1142156261205673,-0.6465101438269019,0.7394375069145113
1772025698702125300,6.302125244140625,1.1059808817386627,-0.7091571541368961,0.8014706231098622
1772025698712122000,6.3121220703125,1.1053887610644102,-0.792651722164452,0.8773146763842552
1772025698722120200,6.3221201171875,0.9993816247165203,-0.907480170610547,0.9309455826763063
1772025698732117500,6.332117431640625,0.8736930518209933,-0.9972375984251498,0.9476417928680777
1772025698742115300,6.342115234375,0.7996148391753435,-1.0191504472866655,0.9291220935761928
1772025698752112400,6.3521123046875,0.6944383084326982,-0.9829209037810563,0.9031789662852883
1772025698762109200,6.362109130859375,0.55819619281888,-0.964724737355113,0.838406049862504
1772025698772107300,6.372107177734375,0.45328737310171124,-0.9216028039872646,0.7652106114007532
1772025698782104300,6.382104248046875,0.3672954353004694,-0.8481368780210614,0.7071054823040962
1772025698792102400,6.392102294921875,0.3029091801077127,-0.7533978624016046,0.6335543622724712
1772025698802099200,6.40209912109375,0.30558453679680825,-0.6534814441442489,0.5310970273606479
1772025698812096300,6.41209619140625,0.2962614126563072,-0.6047808338612317,0.47130825602598486
1772025698822094000,6.422093994140625,0.18168635444939135,-0.6092588560581207,0.43774902770817276
1772025698832091400,6.43209130859375,-0.0046808512926101685,-0.6068181849077343,0.4269675945181399
1772025698842088200,6.442088134765625,-0.21664427058398722,-0.5928340832188725,0.430303022551164
1772025698852086300,6.452086181640625,-0.41071956648528574,-0.6047247197598219,0.42596382430307567
1772025698862083000,6.4620830078125,-0.5528267747402191,-0.5884826100111007,0.3955623293638229
1772025698872081200,6.4720810546875,-0.6659504650950432,-0.5561868988230824,0.3472771680139005
1772025698882078500,6.482078369140625,-0.8095698314785957,-0.46799102123677727,0.3056495283244178
1772025698892075300,6.4920751953125,-0.8771914153307676,-0.3544999588742852,0.2229724872248247
1772025698902073300,6.5020732421875,-0.8901853369385003,-0.2692728679656982,0.10783497282955795
1772025698912070400,6.5120703125,-0.9177303464680909,-0.21821458864063023,0.01334744775313884
1772025698922068500,6.522068359375,-0.8717249666184187,-0.19871406161785124,-0.02257065518312156
1772025698932065300,6.532065185546875,-0.7338929514646529,-0.2708423092395067,0.0021289748527109622
1772025698942062300,6.542062255859375,-0.5560562581807375,-0.4452262317210436,0.04931227590795606
1772025698952060200,6.55206005859375,-0.6157493871212005,-0.35591947028338905,0.1609309685273096
1772025698962057500,6.562057373046875,-0.7954471981018781,-0.16833587448894977,0.33879089655634015
1772025698972054300,6.57205419921875,-0.7572358331292868,-0.2691103708803654,0.3659022273764014
1772025698982052400,6.58205224609375,-0.5858709662079811,-0.521315784189105,0.34381025908831503
1772025698992049200,6.592049072265625,-0.5207096349895001,-0.6458858744487166,0.37236977942269295
1772025699002047200,6.602047119140625,-0.5993593933343887,-0.6153367146670818,0.4204197803098708
1772025699012044300,6.612044189453125,-0.7043582294225692,-0.485531938624382,0.4203778408642858
1772025699022041300,6.622041259765625,-0.7591010424792766,-0.3668216803088784,0.3858357755215838
1772025699032039400,6.632039306640625,-0.7000695923179387,-0.32016046689897776,0.2783691062814556
1772025699042036200,6.6420361328125,-0.6324509310752153,-0.2681999780371785,0.18787640472855419
1772025699052033300,6.652033203125,-0.6811439425736665,-0.158335289478302,0.12059072916670702
1772025699062031400,6.66203125,-0.7052525479137897,-0.036872225323319435,0.03716821259520948
1772025699072028400,6.6720283203125,-0.6163514446675777,0.07160685409605502,-0.07727620496936143
1772025699082026200,6.682026123046875,-0.495949872264266,0.1710837118923664,-0.17641358341192825
1772025699092023300,6.692023193359375,-0.3885837225228548,0.28377397926598785,-0.2511117728531361
1772025699102020400,6.702020263671875,-0.2729395737797022,0.41863457739353177,-0.37787451431881636
1772025699112018400,6.712018310546875,-0.13928689013719558,0.5562547033622861,-0.4332640277812257
1772025699122015200,6.72201513671875,-0.040700259178876874,0.6580681874126195,-0.47627917630635197
1772025699132013300,6.732013427734375,0.026588731718063353,0.6773427967250347,-0.49403143488969653
1772025699142010000,6.742010009765625,0.12926935399174688,0.6888458952531218,-0.49251671947780995
1772025699152007400,6.75200732421875,0.2390273673057556,0.7314940736293792,-0.47477279033139347
1772025699162005200,6.762005126953125,0.3387771968245506,0.707241968165338,-0.47646403135396537
1772025699172002300,6.772002197265625,0.4496539850354194,0.6534516335278749,-0.48238889135830104
1772025699181999000,6.7819990234375,0.4422615366965532,0.6428790938481688,-0.4481104819204658
1772025699191997200,6.7919970703125,0.30650983494818207,0.6500418250843882,-0.3942581148974597
1772025699201994200,6.801994140625,0.19839725075364112,0.6142202778577804,-0.40809871646240353
1772025699211992300,6.811992431640625,0.1996042884558439,0.5776029040783643,-0.5008170399092138
1772025699221989400,6.8219892578125,0.3226969996392727,0.6025400691971182,-0.5706458514820784
1772025699231986200,6.831986083984375,0.4270879329621792,0.6525009086742997,-0.6012581761604174
1772025699241984300,6.841984375,0.48931145716309543,0.6338190045580268,-0.6212211695957929
1772025699251981300,6.851981201171875,0.48793081645965575,0.6070180913940072,-0.6352066595241427
1772025699261978400,6.861978271484375,0.4522217896968126,0.6215446293964981,-0.6321414997998624
1772025699271976200,6.87197607421875,0.45365386832654475,0.6762982561081647,-0.6305689167208969
1772025699281973200,6.88197314453125,0.4428980810344219,0.7162631867498159,-0.599106514551863
1772025699291971300,6.891971435546875,0.3691793493509292,0.7379805130392313,-0.5892438036419451
1772025699301968400,6.901968505859375,0.24344284566044805,0.7599117743402719,-0.6457569143068045
1772025699311965200,6.911965087890625,0.21058394763171673,0.7857394585579633,-0.7660092874977737
1772025699321963300,6.92196337890625,0.25503742186427114,0.8220780153959989,-0.8811289009101688
1772025699331960300,6.931960205078125,0.34778117201328274,0.8097717837914824,-0.9918980640280991
1772025699341958400,6.94195849609375,0.5032394447505474,0.7445525849059224,-1.0885307844396679
1772025699351955500,6.95195556640625,0.6341437064677476,0.6413999612063169,-1.0833284665562213
1772025699361952300,6.9619521484375,0.7590209629803896,0.5227896561339497,-1.0435272020436823
1772025699371950300,6.971950439453125,0.9259276814490556,0.37845717304497956,-0.9658848671756685
1772025699381947400,6.981947509765625,1.0461176569283008,0.15797025555819272,-0.7947684951227157
1772025699391944400,6.9919443359375,1.0456903714269399,-0.0927187618382275,-0.5847654526514933
1772025699401942300,7.0019423828125,1.001217023450136,-0.33713016026988624,-0.46131837507244194
1772025699411939300,7.011939208984375,0.9302969825744628,-0.5833829487845301,-0.36883934027422216
1772025699421937700,7.021937744140625,0.8495862000465393,-0.7942321232236921,-0.20198442505802958
1772025699431934700,7.031934814453125,0.7499591201245784,-0.9369694460757076,-0.08719192470815032
1772025699441931800,7.041931884765625,0.662687079384923,-1.0035814144939184,-0.015320318728685379
1772025699451929900,7.051929931640625,0.58038990444839,-1.0533810720600187,0.019244579500332475
1772025699461926700,7.0619267578125,0.49098845046460626,-1.1168237627923487,-0.008224442183598876
1772025699471924700,7.0719248046875,0.406698055884242,-1.1432247168533503,-0.06426076564956457
1772025699481921800,7.081921875,0.32472762868404387,-1.0965795777954161,-0.11383772037569433
1772025699491918800,7.0919189453125,0.21909633991122243,-1.033659888023883,-0.16456943462751805
1772025699501916700,7.101916748046875,0.09136544753313064,-0.9592638416007161,-0.26365407823584974
1772025699511913700,7.111913818359375,-0.012682371440529822,-0.860880185868591,-0.3301441738400608
1772025699521910800,7.121910888671875,-0.11342530364990233,-0.7370736273273826,-0.3341683147896081
1772025699531908900,7.131908935546875,-0.1671235760897398,-0.6634240153573453,-0.334079905853793
1772025699541905700,7.14190576171875,-0.19251169984638689,-0.6244198925718665,-0.3620401451207697
1772025699551903700,7.15190380859375,-0.23886428569853305,-0.6023045068755746,-0.38004816856347023
1772025699561900800,7.16190087890625,-0.3023322570025921,-0.6147985161371529,-0.34867351774312555
1772025699571897900,7.17189794921875,-0.430829457578063,-0.6522079170770942,-0.32177469716258345
1772025699581896000,7.18189599609375,-0.5520592974990606,-0.6387682975284755,-0.2900496985346079
1772025699591892700,7.191892822265625,-0.6134101305186748,-0.5614965495385229,-0.29047559579648075
1772025699601889800,7.201889892578125,-0.6531190405726433,-0.47967108376696704,-0.2773494991764426
1772025699611887600,7.2118876953125,-0.7153864039152861,-0.42565000911355017,-0.2137952378284186
1772025699621885000,7.221885009765625,-0.8369096738249063,-0.4197681114681065,-0.11926986495964229
1772025699631882800,7.2318828125,-1.0347393538236618,-0.4121168660625815,-0.08902582560442387
1772025699641879800,7.2418798828125,-1.1386445494562387,-0.3773544725000858,-0.11369849456809461
1772025699651876600,7.251876708984375,-1.1805571070343255,-0.33992388264164325,-0.13881291594989598
1772025699661874700,7.261874755859375,-1.1119488502323627,-0.3241149036131799,-0.1668056692469865
1772025699671871700,7.271871826171875,-1.0190735826581716,-0.43746860333159565,-0.09622085167504847
1772025699681868800,7.281868896484375,-1.0795137305736542,-0.5645135592721402,0.01828713264502585
1772025699691867000,7.291866943359375,-1.364234927561879,-0.5005317932270467,0.11013707575947046
1772025699701863700,7.30186376953125,-1.5907318991184234,-0.37979587430283424,0.13649974363669753
1772025699711861800,7.31186181640625,-1.5890730259954928,-0.4001508261978626,0.0982389865644276
1772025699721858800,7.32185888671875,-1.4789631305038928,-0.4430805979944765,0.0711834410522133
1772025699731856000,7.33185595703125,-1.5194740045905113,-0.32157018756642936,0.06829911778755486
1772025699741853700,7.341853759765625,-1.6673323237180708,-0.05582315563932061,0.12481478573568165
1772025699751850800,7.351850830078125,-1.61917941044569,0.1413642809331417,0.15360468075983225
1772025699761847800,7.361847900390625,-1.3837468527615069,0.20820508967116474,0.10363514651954174
1772025699771846000,7.371845947265625,-1.1347878740280866,0.273847190143913,0.10067439701780677
1772025699781842700,7.3818427734375,-0.9936953957736492,0.3679821023903787,0.14430807930007575
1772025699791840800,7.3918408203125,-0.9336538917869329,0.4413140267133713,0.1727012300916016
1772025699801837600,7.401837646484375,-0.8640373347252607,0.4953742643333971,0.10106288487873971
1772025699811835000,7.4118349609375,-0.8163947090625763,0.5568304574236274,-0.02932977405451238
1772025699821832700,7.421832763671875,-0.7349678872197866,0.6163482297971844,-0.1196858253493905
1772025699831829800,7.431829833984375,-0.5437129094362259,0.6773677850358187,-0.1439079740665853
1772025699841827800,7.441827880859375,-0.3109539548754692,0.7091513089179993,-0.12390760776288806
1772025699851824600,7.45182470703125,0.011630816560983658,0.6945027519710362,-0.1318665308780968
1772025699861821700,7.46182177734375,0.3196504715502262,0.749929163377732,-0.10668328204378486
1772025699871819800,7.47181982421875,0.535187657675147,0.8854048246636986,0.01569609323851764
1772025699881816800,7.48181689453125,0.7215577860265969,0.9731434600017964,0.1550247036255896
1772025699891813600,7.491813720703125,0.9638193129479885,0.9522637535803019,0.2851583462964743
1772025699901811700,7.501811767578125,1.1578647982329129,0.869435978898406,0.38693515159823
1772025699911808800,7.511808837890625,1.1963672551065683,0.7972884420543909,0.5015818868018687
1772025699921806800,7.521806884765625,1.158461595082283,0.7619216528579592,0.5938116960793733
1772025699931803600,7.5318037109375,1.1487807435452937,0.7543009487211704,0.7233335635274648
1772025699941801000,7.541801025390625,1.134444175156951,0.7144681200265884,0.8238604418333619
1772025699951798800,7.551798828125,1.0777578268170356,0.6027572190791368,0.9097715694833546
1772025699961795800,7.5617958984375,1.0028986929267645,0.46172406979650255,0.9679706604737788
1772025699971792600,7.571792724609375,0.9529612343251704,0.313574658767879,1.0181607055969535
1772025699981790700,7.581790771484375,0.907578954809904,0.21457272500693797,1.0411663911964744
1772025699991787800,7.591787841796875,0.8246405593603849,0.22427695741951464,1.0196408611521124
1772025700001785900,7.601785888671875,0.7086433593958615,0.2781532167747617,1.0314080905091016
1772025700011782700,7.61178271484375,0.4839110594242811,0.3451037694975734,0.9617509091760963
1772025700021779700,7.62177978515625,0.12282733824551105,0.44086423711925743,0.8158069723024964
1772025700031777800,7.63177783203125,-0.26935060937702654,0.5311603018552065,0.6574470598395914
1772025700041774800,7.64177490234375,-0.5862883148372173,0.6617176498308778,0.514342072718963
1772025700051771600,7.651771728515625,-0.7372270643234252,0.762464673693478,0.3947165992546826
1772025700061769700,7.661769775390625,-0.6886679083377123,0.8128750105038285,0.29608733473103493
1772025700071766800,7.671766845703125,-0.46474283309578895,0.830410667194426,0.15825809605624525
1772025700081764600,7.6817646484375,-0.10966156720221042,0.881731981369853,-0.023996084876358507
1772025700091762000,7.691761962890625,0.21786358324587343,1.0045067126452922,-0.20748433764856308
1772025700101758700,7.7017587890625,0.5317407320916653,1.065632796998322,-0.3264851033432409
1772025700111756800,7.7117568359375,0.7626596117436886,1.0069733950197697,-0.32622805984225123
1772025700121753600,7.721753662109375,0.8261667460143566,0.8396551731407642,-0.24056911685504018
1772025700131751700,7.731751708984375,0.7766565729141235,0.6454533282503485,0.011622340993583202
1772025700141748700,7.741748779296875,0.7044774718880653,0.44759529893994326,0.2898340830225497
1772025700151745800,7.751745849609375,0.6660398969441652,0.2539458272352815,0.44176586213409896
1772025700161743600,7.76174365234375,0.6236591373324394,0.04344955788701772,0.4740466680139303
1772025700171740700,7.77174072265625,0.5994079086512327,-0.16199994946569204,0.44479521989263593
1772025700181737700,7.78173779296875,0.581085485497117,-0.28335195446163414,0.4313716016307473
1772025700191735800,7.79173583984375,0.5191384401500225,-0.2894710218638182,0.4276609105445444
1772025700201732900,7.80173291015625,0.4405892195701599,-0.3125701579004526,0.42285153750143945
1772025700211730700,7.811730712890625,0.3974403981953859,-0.39419016422778363,0.35352746058031914
1772025700221727700,7.821727783203125,0.3814192377209663,-0.4326669021382928,0.2432960576009005
1772025700231724800,7.831724853515625,0.37030689207613465,-0.38397476742267606,0.148797645804286
1772025700241723000,7.841722900390625,0.3375117069333792,-0.33043329297974705,0.048763007994741196
1772025700251719700,7.8517197265625,0.29765491284132,-0.33607378308475017,-0.020942177198454738
1772025700261716700,7.861716796875,0.23651450770199298,-0.3766252814427018,-0.07304141694381833
1772025700271714600,7.871714599609375,0.17456863139867781,-0.43159211251363155,-0.0802802090909332
1772025700281711900,7.8817119140625,0.10443477246463298,-0.4980548817194998,-0.054493222209811204
1772025700291709700,7.891709716796875,0.04598492158353328,-0.5806012091115117,-0.01221687282063067
1772025700301706800,7.901706787109375,0.024687282010912893,-0.6587590922862291,0.0331833076775074
1772025700311703800,7.911703857421875,-0.015234978532791137,-0.714916448315978,0.07950732502229511
1772025700321702000,7.921701904296875,-0.09412439085245132,-0.7531374578997493,0.11801321596205235
1772025700331698700,7.93169873046875,-0.22572014196515083,-0.7852148501619696,0.14491192694474012
1772025700341695700,7.94169580078125,-0.35778994033038614,-0.826917564381659,0.13653152701444923
1772025700351693800,7.95169384765625,-0.3881634512841701,-0.8090759104818105,0.10347929837070405
1772025700361691000,7.96169091796875,-0.3874818987607956,-0.7308359019815921,0.06894870427008717
1772025700371689000,7.97168896484375,-0.39584289987087246,-0.7032391622647642,0.04108461885396391
1772025700381685800,7.981685791015625,-0.34211890846788884,-0.837835264237225,0.12243567204680293
1772025700391682800,7.991682861328125,-0.3097323041260242,-1.0646978542357683,0.2488141634352505
1772025700401680600,8.0016806640625,-0.5591425337582826,-0.9288634426400065,0.4040628850750625
1772025700411678000,8.011677978515625,-0.8706260654658079,-0.6023506841048598,0.5334438827477396
1772025700421674500,8.021674560546876,-0.9029512950092553,-0.572392768214643,0.4780000818148255
1772025700431672600,8.031672607421875,-0.7730570871174335,-0.7425105576843023,0.31953466315083207
1772025700441669400,8.04166943359375,-0.7301590256333351,-0.7528998497515916,0.18877192879617213
1772025700451667500,8.05166748046875,-0.8315887710630894,-0.5533373546108603,0.10946449199384077
1772025700461664500,8.06166455078125,-0.9167834210067987,-0.3343725321248174,0.05397708024806343
1772025700471661600,8.07166162109375,-0.9036609045833349,-0.2447825698316097,-0.004042740618740208
1772025700481659400,8.081659423828125,-0.8916028025209903,-0.243064367736876,-0.03445999709941679
1772025700491656400,8.091656494140626,-0.9680418990790843,-0.20850831040143966,-0.019408042416756505
1772025700501654500,8.101654541015625,-1.1245172399044037,-0.12476064439564942,0.019138242182182148
1772025700511651600,8.111651611328124,-1.2322609907865523,-0.015909809054434298,-0.004469528363179415
1772025700521648400,8.1216484375,-1.2200760474741459,0.08540537008494138,-0.08928376415455713
1772025700531646500,8.131646484375,-1.1799158865213393,0.18983575863540172,-0.2043991032506339
1772025700541643500,8.1416435546875,-1.0908253981828688,0.31821780839860436,-0.30935393580030646
1772025700551640600,8.151640625,-0.9412298799991607,0.457868271151185,-0.42279410822577773
1772025700561638700,8.161638671875,-0.7132756953716277,0.6057517247200012,-0.5459541490243748
1772025700571635500,8.171635498046875,-0.49169922908246516,0.7901410545177757,-0.6574298895090818
1772025700581633500,8.181633544921874,-0.29168460626006126,0.9122966309815644,-0.7199004472736269
1772025700591630300,8.19163037109375,-0.08865209692120551,0.9512056228294968,-0.7433114257384091
1772025700601627600,8.201627685546875,0.10342822577059269,0.9510749821871518,-0.7532999549850821
1772025700611625500,8.21162548828125,0.2612520585954189,0.9479021973699331,-0.725577689192444
1772025700621622500,8.22162255859375,0.3745189568132162,0.9142027568638325,-0.6926584392786026
1772025700631619300,8.231619384765626,0.5160644395321607,0.845034235830605,-0.6650264090526848
1772025700641617700,8.24161767578125,0.6716098060309886,0.7984870041891932,-0.6283586202602833
1772025700651614500,8.251614501953124,0.7699561984926462,0.762337832443416,-0.5653611525448039
1772025700661612500,8.261612548828126,0.8398813831120729,0.7429837281540036,-0.525199457222037
1772025700671609300,8.271609375,0.8674152867257594,0.7492977336063981,-0.4833803866136819
1772025700681606700,8.281606689453126,0.8556196349918842,0.7200546879872679,-0.40700449148491025
1772025700691604700,8.291604736328125,0.7869856592267751,0.6475774807974696,-0.3287236029850319
1772025700701601500,8.3016015625,0.7032008760809898,0.5851347608879208,-0.2724447394674644
1772025700711598300,8.311598388671875,0.6363713193893432,0.5818737132653594,-0.24425112983603028
1772025700721596400,8.321596435546875,0.5682856251567602,0.6616828707784413,-0.2221642761144787
1772025700731593700,8.33159375,0.5534902070850134,0.7690303158193826,-0.2601682454140857
1772025700741591600,8.341591552734375,0.552453849774599,0.8736828226879239,-0.35612777927182615
1772025700751588600,8.351588623046876,0.5542518391072749,0.9053548490196466,-0.48655119866952296
1772025700761585400,8.36158544921875,0.5166477923780679,0.8947691575974226,-0.6172583303794265
1772025700771583500,8.37158349609375,0.48849312651753424,0.8788602253258228,-0.6650139148972928
1772025700781580500,8.38158056640625,0.44800621782839295,0.8525266374126076,-0.6665143825881182
1772025700791577600,8.39157763671875,0.4913870943933725,0.8100985315278172,-0.7000815750166773
1772025700801575400,8.401575439453126,0.6018009412676095,0.7668205308154225,-0.7436020792480558
1772025700811572500,8.411572509765625,0.6710188544005156,0.7181041384413838,-0.7316204034227878
1772025700821570300,8.4215703125,0.7050088022857904,0.6194762986898422,-0.6632252779148519
1772025700831567600,8.431567626953125,0.7311082891821861,0.44507074889838694,-0.5484111867876723
1772025700841564400,8.441564453125,0.7263800916165113,0.2510461602710187,-0.4374130737520754
1772025700851562500,8.4515625,0.702609339928627,0.07111001048982143,-0.3492982985779643
1772025700861559300,8.461559326171875,0.6722855133354664,-0.07728884525522589,-0.30628864821186286
1772025700871556600,8.471556640625,0.633947307112813,-0.19285306062996385,-0.31055147502180186
1772025700881554700,8.4815546875,0.5281166963756084,-0.320601050273329,-0.33745442378818985
1772025700891551500,8.491551513671874,0.4340793992847204,-0.43243119368627664,-0.3981770419068634
1772025700901549600,8.501549560546875,0.3339876244604587,-0.5055465526491403,-0.45615182262212034
1772025700911546400,8.51154638671875,0.29327216771245,-0.5329740732789039,-0.50844724252671
1772025700921543700,8.521543701171876,0.2771691741734743,-0.5478821579448878,-0.5587948893643915
1772025700931541500,8.53154150390625,0.21819909881055355,-0.5630022779263556,-0.6165982590354979
1772025700941538600,8.54153857421875,0.16100947712361813,-0.5317207122169435,-0.6757045279987156
1772025700951535400,8.551535400390625,0.11951894434988498,-0.4741733631335199,-0.7319009739298373
1772025700961533400,8.561533447265624,0.047049335944652555,-0.4248192573778331,-0.7889649964757263
1772025700971530500,8.571530517578125,-0.03072539313137531,-0.4118878796122968,-0.8340314880400895
1772025700981528600,8.581528564453125,-0.12653846772313118,-0.42372810114026066,-0.8409028351143002
1772025700991525400,8.591525390625,-0.2238736373156309,-0.413001832203567,-0.8446050506331026
1772025701001522400,8.6015224609375,-0.27291093220710755,-0.3797752699062228,-0.8515518010310829
1772025701011520500,8.6115205078125,-0.28319851746559144,-0.36448709988147016,-0.8663545256264508
1772025701021517600,8.621517578125,-0.2803805374354124,-0.35013635683730243,-0.8796223688047379
1772025701031514400,8.631514404296874,-0.269198633685708,-0.3657167878068983,-0.8845886859752238
1772025701041512400,8.641512451171875,-0.2440682840824127,-0.40214550714641806,-0.8919264815174043
1772025701051509500,8.651509521484375,-0.3141296623021364,-0.45716129192560906,-0.871077681690827
1772025701061507600,8.661507568359376,-0.3965355583101511,-0.5232466061212122,-0.8121884895443916
1772025701071504600,8.671504638671875,-0.4223071284264326,-0.5837311777003109,-0.7596450862281025
1772025701081501400,8.68150146484375,-0.4601759635716676,-0.6048565294459461,-0.7147917990230024
1772025701091499500,8.69149951171875,-0.5270797545433044,-0.6075049981281161,-0.7229165802244096
1772025701101496600,8.70149658203125,-0.5725339302510023,-0.5914265545085072,-0.7275008392747491
1772025701111493600,8.71149365234375,-0.5814899746447801,-0.5493152594879269,-0.7326228584636002
1772025701121491500,8.721491455078125,-0.6152788470000028,-0.4907470429241657,-0.7520951092399656
1772025701131488500,8.731488525390626,-0.6095645610064268,-0.41544513370245695,-0.7669924533162266
1772025701141486300,8.741486328125,-0.597644990631938,-0.3329305166229605,-0.7626230791255831
1772025701151483600,8.751483642578124,-0.6064052201926707,-0.27632643973901866,-0.7133660770688206
1772025701161480400,8.76148046875,-0.623831571289897,-0.29582024476006624,-0.6176703452464193
1772025701171478500,8.771478515625,-0.6041846215337514,-0.4151357754923403,-0.465140381046012
1772025701181475300,8.781475341796876,-0.7071417226612567,-0.45285088138058777,-0.31069727670066055
1772025701191472600,8.79147265625,-0.9295365195959806,-0.2958293048493564,-0.23193163689114152
1772025701201470700,8.801470703125,-1.069254202365875,-0.22116423222646117,-0.1990465084426105
1772025701211467500,8.811467529296875,-1.1556494602710008,-0.22570538278743624,-0.23014219619110227
1772025701221465600,8.821465576171875,-1.250932373508811,-0.16096198472008108,-0.21742299987152217
1772025701231462400,8.83146240234375,-1.2928455156087875,-0.059761518001556393,-0.1951614837028086
1772025701241459700,8.841459716796875,-1.2955220413416624,0.10538052888214587,-0.1815429273907095
1772025701251457500,8.85145751953125,-1.3036603396117687,0.26001696384251116,-0.16539996716752647
1772025701261454600,8.86145458984375,-1.2560650602221488,0.32688919063210486,-0.16978037420883774
1772025701271451400,8.871451416015624,-1.2187947754919528,0.3358870283409953,-0.14974179478660224
1772025701281449500,8.881449462890625,-1.251258536723256,0.367009019574523,-0.09709142396450042
1772025701291446500,8.891446533203125,-1.2499673278689383,0.38048371043652296,-0.004275777623057365
1772025701301444600,8.901444580078126,-1.1940864506930111,0.3933943376749754,0.12280519947893917
1772025701311441400,8.91144140625,-1.1039590205222367,0.375556190906465,0.22318134420253335
1772025701321438500,8.9214384765625,-0.9928566068619489,0.3445382445693016,0.29196071978770194
1772025701331436300,8.931436279296875,-0.8558294783502817,0.33855858563780783,0.3153022862780839
1772025701341433600,8.94143359375,-0.7169260345727205,0.3513900101602077,0.33840405266322193
1772025701351430400,8.951430419921875,-0.5493313338398933,0.38395050976425404,0.35838761396259067
1772025701361428500,8.961428466796875,-0.31841537679731846,0.3876853123784065,0.3589212824478745
1772025701371425300,8.97142529296875,-0.09506079491972923,0.4708621927589178,0.3566560409296304
1772025701381423400,8.98142333984375,0.11746434990763664,0.6627680356666446,0.3571519346877932
1772025701391420700,8.991420654296874,0.32810207355320453,0.8282689789906144,0.3476592261340469
1772025701401417500,9.00141748046875,0.5440022477716208,0.9027478813916444,0.3566915506344288
1772025701411415600,9.01141552734375,0.81275079960227,0.9206097012966871,0.3551360648207366
1772025701421412900,9.021412841796876,1.08621702760458,0.8780226054579019,0.37392055252864953
1772025701431410000,9.031409912109375,1.3172750234663486,0.8041545284315943,0.43933001328930255
1772025701441408000,9.041407958984376,1.467427591010928,0.689809771849215,0.5762845149561763
1772025701451404800,9.05140478515625,1.5929717869997024,0.6194543791189789,0.7907976917956024
1772025701461403000,9.06140283203125,1.5973562856942414,0.5382262947186828,1.0056981874521822
1772025701471400000,9.07139990234375,1.5257821648240089,0.37583120845556256,1.1944529459178448
1772025701481397000,9.08139697265625,1.4662638079285621,0.19871727648824453,1.3270239718034862
1772025701491395000,9.09139501953125,1.4025339708179234,0.01657470270395279,1.4288693122968077
1772025701501392000,9.101391845703125,1.2419009257912634,-0.159152158819139,1.4731377853512764
1772025701511389000,9.111388916015626,1.104412024986744,-0.302559928278625,1.5206377876728772
1772025701521386800,9.12138671875,1.0116922402352093,-0.41890053485333917,1.54324563306123
1772025701531384000,9.131384033203124,0.8914274459540843,-0.49491409947574133,1.535179815505445
1772025701541382000,9.1413818359375,0.6760866591840982,-0.5154901467755436,1.53882606305331
1772025701551379000,9.15137890625,0.4446662597507238,-0.5471516517132521,1.5397592522501944
1772025701561375700,9.161375732421876,0.19632219804525375,-0.5460097882017493,1.4733420757517217
1772025701571373800,9.171373779296875,-0.04278934041261673,-0.4658464104235172,1.3387483118668198
1772025701581371000,9.181370849609374,-0.260177707362175,-0.28729806173890826,1.1774092374626546
1772025701591368000,9.191367919921875,-0.452066306874156,-0.06937690308690071,0.9945571271695196
1772025701601365800,9.20136572265625,-0.5368143820941448,0.08567103528380393,0.7912268769931048
1772025701611362800,9.21136279296875,-0.4568003496587276,0.20354571955800055,0.6209990512777119
1772025701621359900,9.22135986328125,-0.34258652597963807,0.3000724953770637,0.4695514754865318
1772025701631358000,9.23135791015625,-0.20167349594533443,0.4310015992745757,0.319109058149904
1772025701641355000,9.24135498046875,0.05707797800600528,0.5578393422052264,0.2116195742897689
1772025701651352800,9.251352783203124,0.3051227645039558,0.6457622480690479,0.13486213249750434
1772025701661350000,9.261349853515625,0.44884208413064475,0.6576835720092058,0.07512984059043228
1772025701671347000,9.271346923828125,0.5442424862682819,0.6193281223908066,0.08293320781774818
1772025701681345000,9.281344970703126,0.6024456689119339,0.5126067002937197,0.1830834348309785
1772025701691341800,9.291341796875,0.5583054984122514,0.3565241581782698,0.32814211330264803
1772025701701339000,9.3013388671875,0.4784767594158649,0.19015607663094997,0.47192003124877807
1772025701711337000,9.3113369140625,0.4333697897106409,0.03483195166736841,0.5413911884903907
1772025701721331700,9.321331787109376,0.405982016569376,-0.10094780713170766,0.5454153294399381
1772025701731329800,9.331329833984375,0.3348193991094827,-0.22127485299408434,0.46784167589396236
1772025701741326800,9.341326904296874,0.2638379834353924,-0.31380846752375363,0.45717283623293037
1772025701751324000,9.351323974609375,0.2508732879221439,-0.3950654857575893,0.4595160383582115
1772025701761322000,9.361322021484375,0.24872107832431792,-0.4580713925078511,0.48769452348574993
1772025701771319000,9.371319091796876,0.2347135957598686,-0.5021159936785697,0.5315988394029438
1772025701781315800,9.38131591796875,0.186176067084074,-0.5334489973142743,0.5462783760100602
1772025701791314000,9.39131396484375,0.14570318692028522,-0.5281386159464717,0.5276403841007501
1772025701801311000,9.40131103515625,0.13224281684458256,-0.5025453250065446,0.5114729470234364
1772025701811308800,9.411308837890624,0.05668342573046684,-0.4650894545763731,0.4711924476265907
1772025701821306000,9.42130615234375,-0.020168927803635595,-0.43457799645662304,0.44999556501470506
1772025701831303000,9.431302978515625,-0.1272954235702753,-0.38934535454511643,0.43596521303132174
1772025701841301000,9.441301025390626,-0.240046773481369,-0.334009544031322,0.4062744236446917
1772025701851297800,9.4512978515625,-0.33427813183963295,-0.3061179130211472,0.357627004853636
1772025701861295000,9.461295166015624,-0.3827414262354374,-0.2936635051175952,0.31857159027233717
1772025701871293000,9.47129296875,-0.4004910179376602,-0.2729375279530883,0.3165193339176476
1772025701881290000,9.4812900390625,-0.4300497053772211,-0.24935236196517943,0.315280147511512
1772025701891287800,9.491287841796876,-0.4266068714469671,-0.22652444408535957,0.3208971836756915
1772025701901284900,9.501284912109375,-0.3865490018248558,-0.20670769072026013,0.33502127835713325
1772025701911282000,9.511281982421876,-0.3358890741676092,-0.17496435271799562,0.33600195995755494
1772025701921280000,9.521280029296875,-0.250073077455163,-0.15839695653766392,0.3378446652147919
1772025701931277000,9.531277099609374,-0.20966332565546034,-0.16356763717383146,0.3521044420398772
1772025701941273900,9.54127392578125,-0.20623861190378664,-0.19062866257876157,0.4081379159616306
1772025701951272000,9.55127197265625,-0.21242577610611915,-0.25128888298571106,0.46362489844914523
1772025701961269000,9.56126904296875,-0.19653671757876873,-0.32500644562542436,0.5503922410696744
1772025701971266000,9.57126611328125,-0.12261223419010639,-0.4582125545442104,0.6578633124902844
1772025701981264000,9.581263916015626,-0.04465864141583442,-0.6825029559671878,0.7992080119401216
1772025701991261000,9.591260986328125,-0.12025310384333134,-0.8018076730445027,0.9440554588139056
1772025702001258800,9.6012587890625,-0.3296463803857565,-0.6376686657235026,1.0951151312660425
1772025702011256000,9.611256103515625,-0.457907434117794,-0.49478170526772736,1.1795725529763847
1772025702021252900,9.6212529296875,-0.46312195389568805,-0.5677323751881719,1.1680257614370435
1772025702031251000,9.6312509765625,-0.5303782115668058,-0.6111752110734582,1.071858978036791
1772025702041247700,9.641247802734375,-0.664292761015892,-0.44279929683506486,0.933565921242535
1772025702051245000,9.6512451171875,-0.727602326887846,-0.18552023352384567,0.7937148213513195
1772025702061243000,9.661242919921875,-0.6802455324292183,0.00990969185680151,0.6808172679025679
1772025702071240000,9.671239990234374,-0.5417886633753777,0.1512462080001831,0.6169890849839895
1772025702081238000,9.681238037109376,-0.40919805600643155,0.2835933620020747,0.5379240603690967
1772025702091234800,9.69123486328125,-0.40908465875983235,0.40451632793098685,0.48096050252299755
1772025702101231900,9.70123193359375,-0.37833705379664895,0.4555789911702275,0.3485565037673339
1772025702111230000,9.71122998046875,-0.3182254071831703,0.49330111132115123,0.23597700329180807
1772025702121227000,9.72122705078125,-0.22973989900052547,0.5446107350587844,0.13612988741099832
1772025702131223800,9.731223876953125,-0.16415829654335976,0.5681631678208708,0.10578622360620647
1772025702141222000,9.741221923828125,-0.11246434966325759,0.570397210483253,0.10750373158119618
1772025702151219000,9.751218994140626,-0.036842414706945416,0.5427534167543053,0.12897380511127413
1772025702161217000,9.761217041015625,0.11303835015892982,0.5201365112766623,0.15835669759251175
1772025702171213800,9.7712138671875,0.3040297085702419,0.5514136930719018,0.2069074510760605
1772025702181211000,9.7812109375,0.4428244312763214,0.5840113098159432,0.294897942283377
1772025702191209000,9.791208984375,0.5632955617845058,0.5082312616884708,0.3873428556162864
1772025702201206000,9.8012060546875,0.5833405709475279,0.4067451098963618,0.4504595292646438
1772025702211202800,9.811202880859375,0.4688339018017053,0.27048633540868755,0.5320107812047005
1772025702221201000,9.821200927734376,0.2961234654903412,0.1524491540491581,0.6020921062339097
1772025702231198000,9.831197998046875,0.18560323563218115,0.11143266852796077,0.6278509629990905
1772025702241196000,9.841196044921874,0.12142623927593231,0.06519494122713804,0.6434023140046745
1772025702251192800,9.85119287109375,0.04974164376854896,0.03766425248384476,0.6751422179408371
1772025702261190000,9.86118994140625,0.024198621711134908,0.03461860117763281,0.69094966259934
1772025702271188000,9.87118798828125,0.05499357294738293,0.10571107601076364,0.7113466270051896
1772025702281185000,9.88118505859375,0.05837853921055793,0.20728432156443594,0.6996921373076737
1772025702291182000,9.89118212890625,0.1116273143172264,0.30817747589945793,0.5786085739895701
1772025702301180000,9.901179931640625,0.20353636720776558,0.43451282226592297,0.4675700193457305
1772025702311177000,9.911177001953124,0.23864918164312837,0.5814338605433702,0.4716487765593454
1772025702321177000,9.921177001953126,0.2138444107323885,0.7135761396229267,0.5150871554652229
1772025702331174000,9.931173828125,0.16586217785179613,0.8322165475726128,0.529887505440414
1772025702341171000,9.9411708984375,0.19841770901978015,0.8796326710030437,0.4902082964049652
1772025702351168800,9.951168701171875,0.3024883243471384,0.8577467101484537,0.40871443720795214
1772025702361166000,9.961166015625,0.4276058193564415,0.8075152370363473,0.35692660149931904
1772025702371163000,9.971162841796875,0.5155974065423011,0.7745189763635396,0.3466972492340952
1772025702381161000,9.981160888671875,0.5490642073363066,0.7521630599096417,0.3573847935955971
1772025702391157800,9.99115771484375,0.5841103862762451,0.6916808264181018,0.35111784215532243
1772025702401155000,10.001155029296875,0.5975643266111612,0.5560667795747518,0.41355639734640715
1772025702411153000,10.01115283203125,0.5408487521767616,0.3688935181468725,0.4328183663729578
1772025702421149700,10.021149658203125,0.6739969934284686,0.13173515958338974,0.43792862205877897
1772025702431147500,10.0311474609375,0.7886474549591541,0.10889204413443804,0.417360648467578
1772025702441144800,10.041144775390626,0.6775280901640653,0.1946370214372873,0.43231860015727575
1772025702451141600,10.0511416015625,0.5427975481569767,0.12140899588018655,0.387338910093531
1772025702461139700,10.0611396484375,0.4431237064838409,-0.03121639151871204,0.3036934988858178
1772025702471136500,10.071136474609375,0.3220943575710058,-0.10706833583861589,0.24840879750475287
1772025702481133800,10.0811337890625,0.20416881989240646,-0.14193842755928635,0.24764159425823015
1772025702491132000,10.0911318359375,0.12338146499693393,-0.2026905640333891,0.25481457289382814
1772025702501128700,10.101128662109375,0.032177930027246476,-0.28673224454969165,0.2903603353863582
1772025702511126800,10.111126708984376,-0.08194178562760353,-0.36018384972959755,0.26075097720548507
1772025702521123600,10.12112353515625,-0.11807108362913131,-0.4288257165402174,0.19108429739177227
1772025702531121000,10.131120849609376,-0.12050853990912437,-0.46635187572762365,0.18336868151314556
1772025702541118700,10.14111865234375,-0.1652104359447956,-0.4474474149018526,0.20861549710296093
1772025702551115800,10.15111572265625,-0.1649713664919138,-0.4411602974563837,0.2402660787878558
1772025702561112600,10.161112548828125,-0.12073299631476402,-0.4741645953051746,0.31574122568462043
1772025702571110700,10.171110595703125,-0.08090367475152015,-0.4969315767779946,0.3792796318763867
1772025702581107700,10.181107666015626,-0.16926526429355143,-0.5173619319967925,0.4538278731865808
1772025702591105800,10.191105712890625,-0.3449766359865665,-0.5456422700636089,0.5481638974957168
1772025702601102600,10.2011025390625,-0.49350306363403795,-0.5729188379153609,0.5909833773182704
1772025702611099600,10.211099609375,-0.5352390956014395,-0.5557309717491269,0.5806605380833149
1772025702621097500,10.221097412109375,-0.46973815716505046,-0.49552697067707774,0.509489737316966
1772025702631094800,10.2310947265625,-0.2657008546978235,-0.47130876748263834,0.3979075042504817
1772025702641091600,10.241091552734375,-0.21796938170790672,-0.37362887610569595,0.31111652502603826
1772025702651089700,10.251089599609376,-0.27836744404733177,-0.21101006408929823,0.30314152755886314
1772025702661086500,10.26108642578125,-0.33101065447628497,-0.10421981453970074,0.3607911679729819
1772025702671084500,10.27108447265625,-0.41479602214396,-0.03586363280266523,0.40853506205305457
1772025702681081900,10.281081787109375,-0.5293254876434803,0.038894378800690174,0.44553076762557026
1772025702691078700,10.29107861328125,-0.6151940913259982,0.16760405308306217,0.4525955914452672
1772025702701076700,10.30107666015625,-0.6187883164256811,0.2782601842805743,0.4774111760109663
1772025702711073500,10.311073486328125,-0.49312838510274887,0.26769612016826866,0.5096032806940376
1772025702721070800,10.32107080078125,-0.23192717991173267,0.28373613147363064,0.38446561967954035
1772025702731068700,10.331068603515625,-0.07466741071045398,0.46606034543514246,0.2314858658850193
1772025702741065700,10.341065673828124,-0.19722820697426796,0.6617391310103238,0.19821846012063324
1772025702751062500,10.3510625,-0.47851533786058426,0.757703450641036,0.17152824078947304
1772025702761060600,10.361060546875,-0.7041232516229152,0.8108597251586616,0.19564437184892594
1772025702771057700,10.3710576171875,-0.7505629312366247,0.8613988029152154,0.25889965025037526
1772025702781055700,10.3810556640625,-0.7197101123332977,0.8603858264803886,0.31806371381543574
1772025702791052500,10.391052490234374,-0.6882920607626438,0.8326872338242829,0.39972602491453285
1772025702801049600,10.401049560546875,-0.7074696394413709,0.7610486694157124,0.5143296516288072
1772025702811047700,10.411047607421875,-0.7140338202625512,0.6388580216385423,0.608096242019534
1772025702821044700,10.421044677734375,-0.746343852236867,0.5378448941856623,0.6830653390903025
1772025702831041500,10.43104150390625,-0.7549959452480077,0.4717987429566681,0.7638271211531013
1772025702841039600,10.44103955078125,-0.7481874342769383,0.42716465146020055,0.8927244269620627
1772025702851036700,10.45103662109375,-0.8062965088963508,0.369109937376529,1.0565881975382565
1772025702861034800,10.46103466796875,-0.8637818986594676,0.274634248868376,1.120537741814181
1772025702871031800,10.47103173828125,-0.8352034544289112,0.24209479205235837,1.170661297572404
1772025702881028600,10.481028564453124,-0.7734609917432069,0.3253377234064042,1.2921117945067584
1772025702891026700,10.491026611328126,-0.6418962202906608,0.49605172520354385,1.3596706883862615
1772025702901023700,10.501023681640625,-0.3845779940128326,0.6392142877303063,1.3434855695217847
1772025702911020800,10.511020751953126,-0.045836453023552895,0.709201139409095,1.2511974541857838
1772025702921018600,10.5210185546875,0.3557587267637253,0.7441250071436166,1.0853061963699757
1772025702931015700,10.531015625,0.7566653397649526,0.8749829455010593,0.8603875069808214
1772025702941012700,10.5410126953125,1.1047346810698508,1.0405641144543885,0.6909672713212669
1772025702951010800,10.5510107421875,1.3922650902599096,1.1050339562773703,0.6100160311009735
1772025702961007600,10.561007568359376,1.5186492442041635,1.08085491604954,0.679002985022217
1772025702971005700,10.571005615234375,1.396005445832014,1.0422307324923574,0.9030847121305763
1772025702981002500,10.58100244140625,1.239559331101179,0.9661411800242959,1.0997430102624
1772025702990999800,10.590999755859375,1.2224492063462733,0.8393373393632471,1.3202774201527236
1772025703000998000,10.600997802734375,1.2277876447647809,0.6757989282839,1.5499090364731847
1772025703010994700,10.61099462890625,1.1788789446890353,0.5545261260040104,1.6778329672053456
1772025703020991500,10.620991455078125,1.1302151592850684,0.49514644692689175,1.697453175085038
1772025703030989600,10.630989501953126,1.0484715265780686,0.4122822857573628,1.6725955049432812
1772025703040987000,10.64098681640625,0.8957710281163453,0.3099254886105656,1.617041375503689
1772025703050984700,10.650984619140624,0.713881260049343,0.19721067131757736,1.5726071904934942
1772025703060981800,10.660981689453125,0.6016594869703054,0.05640431652814149,1.5085776397839188
1772025703070978600,10.670978515625,0.587853664457798,0.007475742708146571,1.4030590176053344
1772025703080976600,10.6809765625,0.5984112988293171,0.03270765298977494,1.2290136794283986
1772025703090973700,10.6909736328125,0.6188900232344865,0.010559095676243305,1.0939943836078048
1772025703100970800,10.700970703125,0.6329553734660148,-0.050307314827293156,1.0634456622175872
1772025703110968600,10.710968505859375,0.5755664298146963,-0.12546017096713186,1.051059497244656
1772025703120965600,10.720965576171874,0.5393845248430967,-0.20182474098429082,1.0279624070346354
1772025703130962700,10.730962646484375,0.5718728359937667,-0.2514335521534085,0.9885590557985007
1772025703140960800,10.740960693359375,0.5486363373130559,-0.2826448291055858,0.9410480936914681
1772025703150957600,10.75095751953125,0.45997021186649795,-0.3410406117118895,0.8530845635563135
1772025703160955600,10.76095556640625,0.3438707205712795,-0.42886663307249545,0.734489090726897
1772025703170952400,10.770952392578126,0.2909597991168499,-0.4889265494987368,0.6150209997814148
1772025703180949800,10.78094970703125,0.21942016503810882,-0.4787966390199959,0.5551361476611346
1772025703190947800,10.79094775390625,0.11592296568453311,-0.46113984016776083,0.5241536379635334
1772025703200944600,10.800944580078125,0.05613982037305831,-0.44185675528794527,0.488973749641329
1772025703210941700,10.810941650390625,0.07085106729269028,-0.42671310830041764,0.4569115549482405
1772025703220939500,10.820939453125,0.0764051942884922,-0.4122140428267419,0.45293592931553717
1772025703230936800,10.830936767578125,0.061701546153426164,-0.42141368671804663,0.44918812108933925
1772025703240934700,10.8409345703125,0.03559095334112644,-0.41103301634863015,0.4734539628177881
1772025703250931700,10.850931640625,0.11153963603377341,-0.3936674555279314,0.49480201740339397
1772025703260928500,10.860928466796874,0.2117138284444809,-0.3998167719379067,0.4982150407172739
1772025703270926600,10.870926513671876,0.2559808401942253,-0.4458024241738021,0.5142489876080304
1772025703280923600,10.880923583984375,0.24755729524195194,-0.4998502407036721,0.48293446947708724
1772025703290920700,10.890920654296876,0.20760522408187387,-0.5290517852686345,0.43313802678138014
1772025703300918500,10.90091845703125,0.17505612265467643,-0.5581307263672352,0.4087541846964508
1772025703310915600,10.91091552734375,0.13306114749014378,-0.6202157188802957,0.3809734667148441
1772025703320912600,10.92091259765625,0.08298340363502502,-0.6688343499682843,0.44905996466502546
1772025703330910700,10.93091064453125,0.06470774223208427,-0.7042832644902169,0.5455713237192481
1772025703340907500,10.940907470703126,0.06638941170871257,-0.7234696109972893,0.6213637198716402
1772025703350905600,10.950905517578125,0.09824936182796955,-0.7161508124165237,0.6876136500444263
1772025703360903000,10.96090283203125,0.10750000525414943,-0.6975595091931521,0.760700951956585
1772025703370899700,10.970899658203125,0.13122399519085884,-0.7321756261527538,0.7979159993682057
1772025703380897800,10.980897705078124,0.1591319928139448,-0.7682892881937324,0.7719928188867866
1772025703390894600,10.99089453125,0.133957804068923,-0.7159361467525363,0.78008296716623
1772025703400892000,11.000891845703125,0.020208675292134284,-0.6868094209894537,0.8019496387984603
1772025703410889700,11.0108896484375,-0.07397299870550632,-0.7177836743153632,0.7940154847983271
1772025703420886500,11.020886474609375,-0.18266776670217513,-0.7216754210568964,0.7687788983415812
1772025703430883300,11.03088330078125,-0.3016892829239368,-0.7250729545406996,0.7386544667780399
1772025703440881400,11.04088134765625,-0.37201486503779885,-0.7538844768747687,0.7398235836226492
1772025703450878500,11.05087841796875,-0.40300270849764347,-0.8237814583130181,0.8291207735143601
1772025703460876500,11.06087646484375,-0.4512386238783598,-0.8868291583783924,0.9361728888705372
1772025703470873300,11.070873291015625,-0.5063613761633634,-0.8549567871689796,0.9534422227751463
1772025703480870400,11.080870361328126,-0.5577332514822483,-0.6668662647657096,0.9292189780794083
1772025703490868200,11.0908681640625,-0.6034995618790387,-0.4699862867072224,0.9284883257173001
1772025703500865500,11.100865478515624,-0.685775694027543,-0.39660672385022044,0.9341174176454543
1772025703510862300,11.1108623046875,-0.7998445562779903,-0.3271381969571113,0.9164205059785395
1772025703520860400,11.1208603515625,-0.8561147250324487,-0.1523586992867291,0.8785214948907494
1772025703530857200,11.130857177734375,-0.8021785521835089,0.023226854069530962,0.8171516649097204
1772025703540854500,11.1408544921875,-0.7018710887819528,0.14060118760615586,0.7005033806253225
1772025703550852600,11.1508525390625,-0.6231652163356542,0.23391543111950158,0.5573148068744689
1772025703560849400,11.160849365234375,-0.5780120694011449,0.30424525101706384,0.45100598416626453
1772025703570847500,11.170847412109374,-0.5305652585715055,0.3871666953317821,0.3973297774277627
1772025703580844300,11.18084423828125,-0.4982505504220724,0.49157443365901704,0.4118454652426764
1772025703590841600,11.190841552734375,-0.452252769356966,0.5696662658601999,0.44468744866922494
1772025703600839400,11.20083935546875,-0.3401508232653141,0.5998746493801475,0.40584808799140154
1772025703610836500,11.21083642578125,-0.22286475253403185,0.6114290397040546,0.35540414117239416
1772025703620833300,11.220833251953126,-0.12785831815004348,0.6216435597263276,0.33982188357189297
1772025703630831400,11.230831298828125,-0.056532034561038016,0.690850513073802,0.27997381979804487
1772025703640828400,11.240828369140624,-0.0063303720653057095,0.7771826426148414,0.19967649517552927
1772025703650826500,11.250826416015625,-0.020731822383403778,0.7971411425381898,0.1442833101850003
1772025703660823300,11.2608232421875,-0.040814825469255446,0.7971798671133816,0.1295705288954079
1772025703670820400,11.2708203125,-0.019635259318351743,0.7762192044101655,0.18149207398630676
1772025703680818400,11.280818359375,0.06369593484103679,0.7135393147438764,0.212166832908988
1772025703690815500,11.2908154296875,0.0593430003285408,0.6288578750193119,0.18600798050817102
1772025703700812300,11.300812255859375,-0.11251052689254283,0.5485610801197588,0.13573462274940684
1772025703710810400,11.310810302734374,-0.30526714141070843,0.5285403286151588,0.10131927079260349
1772025703720807400,11.320807373046875,-0.36832887000143527,0.4348999218873679,0.04523193865860812
1772025703730804500,11.330804443359375,-0.40058863309323783,0.24769436562508343,-0.01771258416008204
1772025703740802600,11.340802490234376,-0.4455383664101362,0.16765841361880301,-0.008563766273716465
1772025703750799400,11.35079931640625,-0.3846083891510963,0.20351737024635075,0.02823027011370286
1772025703760797400,11.36079736328125,-0.2535503981769085,0.2943710688650608,0.011857601921027526
1772025703770794500,11.37079443359375,-0.14662380889654159,0.36070173612385986,-0.07929943615896627
1772025703780791600,11.38079150390625,-0.027325813820958136,0.4218339579567313,-0.13142932677092029
1772025703790789400,11.390789306640626,0.09725859722495078,0.39700726747512816,-0.18618225936284288
1772025703800786400,11.400786376953125,0.199117381721735,0.3616995149895549,-0.2139698454766534
1772025703810783500,11.410783447265626,0.33271862743794917,0.3280655409350991,-0.20961574192037805
1772025703820781600,11.420781494140625,0.5054314018368721,0.31614918543100357,-0.1722898545454256
1772025703830778400,11.4307783203125,0.6741273418098688,0.2874444844722748,-0.08507557187499477
1772025703840775400,11.440775390625,0.8532628427326678,0.229909556479007,-0.07189750760570168
1772025703850773200,11.450773193359375,1.0170388619601727,0.13998495540395378,-0.15136851920560002
1772025703860770600,11.4607705078125,1.0480939254373312,-0.0033417116433382033,-0.16584350968394426
1772025703870768400,11.470768310546875,0.9181862735420465,-0.1754765400238335,-0.0738688807439059
1772025703880765400,11.480765380859374,0.7666302689403295,-0.3390817327290773,0.024827055807784198
1772025703890762200,11.49076220703125,0.810585730522871,-0.4587869934312999,0.1115975767660886
1772025703900760300,11.50076025390625,0.8184861283838748,-0.4815278175495565,0.2131465646613389
1772025703910757600,11.510757568359375,0.7444634453177451,-0.4994536426015198,0.2505214057445526
1772025703920754400,11.52075439453125,0.6086883626937866,-0.5568170134201645,0.2010880242075771
1772025703930752500,11.53075244140625,0.4313122726589441,-0.6120081547662616,0.14633549347445368
1772025703940749300,11.540749267578125,0.2864852840512991,-0.6478999907501042,0.06516381543651223
1772025703950746600,11.55074658203125,0.23399112670421598,-0.6131571786709129,-0.06181304370388388
1772025703960744400,11.560744384765625,0.34724516544044015,-0.5164421868033707,-0.1733931213459
1772025703970741500,11.570741455078124,0.4743897823631763,-0.4411997526839375,-0.2416871245669201
1772025703980739300,11.5807392578125,0.5321978282094001,-0.3983244875535369,-0.22945815944969652
1772025703990736400,11.590736328125,0.46206689188480377,-0.410720004876703,-0.14276629321817308
1772025704000733400,11.6007333984375,0.34905776782035824,-0.47679742802679537,-0.11433628101497888
1772025704010731500,11.6107314453125,0.28381226544976235,-0.5149646615967154,-0.12315627793893218
1772025704020728300,11.620728271484374,0.2785848861902952,-0.5115583602845668,-0.16710428686738013
1772025704030725400,11.630725341796875,0.31123803251385684,-0.49876551420688625,-0.19626915268376469
1772025704040723200,11.64072314453125,0.3194540721952915,-0.5227760660000145,-0.2452551557794213
1772025704050720500,11.650720458984376,0.2972247047305107,-0.5826785999074577,-0.2924894929021597
1772025704060717300,11.66071728515625,0.282471956756711,-0.6229721779815852,-0.28695984276048836
1772025704070715400,11.67071533203125,0.27262276291549203,-0.6248797651685774,-0.2416096388839185
1772025704080712200,11.680712158203125,0.3262900556951761,-0.6152125037655234,-0.2882879495590925
1772025704090710500,11.69071044921875,0.3703051385104656,-0.6129834295392036,-0.3642327597942203
1772025704100707600,11.70070751953125,0.29690029508173466,-0.6171287126503885,-0.4374312669958919
1772025704110704400,11.710704345703125,0.17051555661559104,-0.6804995071902871,-0.48910643611028787
1772025704120702500,11.720702392578126,0.0635690935909748,-0.7833341509819031,-0.470780140498653
1772025704130699500,11.730699462890625,-0.05461421824097633,-0.8198750985242426,-0.4017583344597369
1772025704140696600,11.740696533203124,-0.12986907345056534,-0.8158398516587912,-0.3581675414711237
1772025704150694400,11.7506943359375,-0.11803542779386043,-0.806033181785047,-0.3702679483052343
1772025704160691500,11.76069140625,-0.08863865291774273,-0.7808264059446751,-0.3820407306201756
1772025704170688500,11.7706884765625,-0.18538579348921774,-0.7632561163321137,-0.38952933280989527
1772025704180686600,11.7806865234375,-0.36634675627350805,-0.7664676257245242,-0.3820010561969131
1772025704190683400,11.790683349609376,-0.5376256984770298,-0.7512023981839417,-0.39066878516860304
1772025704200681500,11.800681396484375,-0.6572481032013893,-0.7301129945345223,-0.3936201092548668
1772025704210678300,11.81067822265625,-0.7302320908695459,-0.8010211988419293,-0.3560562484055757
1772025704220675600,11.820675537109375,-0.7464134103417396,-0.8625915198311209,-0.43457149365060027
1772025704230673400,11.83067333984375,-0.8711053734153509,-0.6372723598822951,-0.5456169894918799
1772025704240670500,11.84067041015625,-1.0161755231291054,-0.42138402223214505,-0.4814594284884631
1772025704250667300,11.850667236328125,-1.0366671070158482,-0.5030487444840371,-0.4491860021974891
1772025704260665300,11.860665283203126,-1.01728611471951,-0.6168158473089337,-0.414708343860507
1772025704270662400,11.870662353515625,-1.0020347695738077,-0.5415481326177716,-0.2899295792862773
1772025704280659500,11.880659423828124,-1.0259878920912742,-0.45795624169558286,-0.18160400992818176
1772025704290657500,11.890657470703125,-0.9383148693352937,-0.43348610956668854,-0.03143390672691166
1772025704300654300,11.900654296875,-0.8185176925659179,-0.38615181920081376,0.22090894229114055
1772025704310652400,11.91065234375,-0.8244570194870233,-0.3515373096764087,0.5039163210988045
1772025704320649500,11.9206494140625,-1.0058289011597632,-0.3481757242888212,0.6464345213074236
1772025704330646500,11.930646484375,-1.1639923412024975,-0.3220207078129053,0.6775409496456384
1772025704340644400,11.940644287109375,-1.1611363672494888,-0.26695699223875996,0.617305676652491
1772025704350641400,11.950641357421874,-1.0817805064618586,-0.16053367630541324,0.509457150221616
1772025704360638500,11.960638427734375,-1.0098357987135649,0.00734422528296709,0.3689880645625293
1772025704370636500,11.970636474609375,-0.8631447697997092,0.13548194489628076,0.13689495349936187
1772025704380633300,11.98063330078125,-0.6604109511464834,0.2302627538308501,-0.11025661048591136
1772025704390630400,11.99063037109375,-0.48156829569041726,0.3322995252430439,-0.10007423916757106
1772025704400628200,12.000628173828124,-0.15834055017530918,0.5497174105480312,0.043897155524045224
1772025704410625500,12.01062548828125,0.15679390525519846,0.829782306163013,0.21679785371050236
1772025704420622800,12.020622802734374,0.33935119732022284,1.017927627493441,0.3868772108659148
1772025704430621000,12.030620849609376,0.5020674783617258,1.0516817207962275,0.4377244777888059
1772025704440618000,12.040617919921875,0.8275824580311775,0.9565957914352416,0.35673327088430523
1772025704450615800,12.05061572265625,1.2039701313257216,0.8307365381479263,0.39961043571084737
1772025704460613000,12.060613037109375,1.2824889567673206,0.6665548607289791,0.6865886178456246
1772025704470610000,12.07060986328125,1.563227806121111,0.5913967438921331,1.1778601230353116
1772025704480608000,12.08060791015625,1.79189803006351,0.6194432732030749,1.6771286183282732
1772025704490604800,12.090604736328125,1.0783622224509715,0.501098925590515,1.625412459616363
1772025704500602000,12.10060205078125,0.7214537411302328,0.23768296695947647,1.305901396536827
1772025704510600000,12.110599853515625,0.2781932565242052,-0.05513765759319067,1.0988109901092946
1772025704520597000,12.120596923828124,0.15274141499400137,-0.14916647911667824,1.1683939371623098
1772025704530593800,12.13059375,0.13047346908450125,-0.14918430703431368,1.4936004354044794
1772025704540591900,12.140591796875,0.4683937568187713,-0.2699287015259266,1.4717656202152372
1772025704550589000,12.1505888671875,1.070851116168499,-0.3675213530108332,1.118857168316096
1772025704560587000,12.1605869140625,1.396940096333623,-0.3754471775740385,1.027712670057267
