time,seconds_elapsed,z,y,x
1772025751572547000,0.077547119140625,-0.011586392897367476,-0.87504212834239,-0.6955452467612921
1772025751582544100,0.087544189453125,-0.13288462187945843,-0.8283689322337507,-0.6630123658165336
1772025751592541200,0.097541259765625,-0.21926526673734187,-0.7498243878290056,-0.6726178140297532
1772025751602539000,0.1075390625,-0.24016718499064443,-0.6115797002211213,-0.7411726601440459
1772025751612536000,0.1175361328125,-0.20073066213726995,-0.47559565102159973,-0.8796062213875353
1772025751622534100,0.1275341796875,-0.17066285613179205,-0.40437867302596564,-0.9319048561625182
1772025751632531200,0.13753125,-0.21773615747392178,-0.5025245744794606,-0.819368537241593
1772025751642528000,0.147528076171875,-0.39921149952113627,-0.707633597831428,-0.6367241514150053
1772025751652526000,0.157526123046875,-0.6437737046003341,-0.7637514986336231,-0.4810177491355687
1772025751662523100,0.167523193359375,-0.7050397819459437,-0.7166855038151144,-0.3523700341735035
1772025751672520200,0.177520263671875,-0.6839858880013227,-0.7284905078992248,-0.3474555202554911
1772025751682518300,0.187518310546875,-0.8294009056299925,-0.7696881952062249,-0.3905830796465277
1772025751692515000,0.19751513671875,-1.1060340732306242,-0.7821811815544962,-0.35039705360010265
1772025751702513200,0.20751318359375,-1.3854016342312097,-0.6936883668482303,-0.30378844716027376
1772025751712510200,0.21751025390625,-1.5588146658539772,-0.514898318362236,-0.30184060102812943
1772025751722507300,0.22750732421875,-1.5737503691792487,-0.30053631349653004,-0.33708580967150625
1772025751732505000,0.237505126953125,-1.4650152691721916,-0.12213088041394948,-0.4466638633087277
1772025751742502100,0.247502197265625,-1.2887234672427177,0.03936725700944662,-0.5544617555309087
1772025751752499200,0.257499267578125,-1.2696283061504363,0.1923626467645168,-0.5300673189867288
1772025751762497300,0.267497314453125,-1.2708441116809843,0.3086661361992359,-0.44287638065926727
1772025751772494000,0.277494140625,-1.0640221469312905,0.4490554346203804,-0.352921603641659
1772025751782492200,0.2874921875,-0.7849234659999609,0.6016390287041664,-0.3099587332930416
1772025751792489000,0.297489013671875,-0.5486830990642309,0.7186807692855596,-0.26879772473461927
1772025751802486300,0.307486328125,-0.409855643132329,0.8349749063700437,-0.1367730806853622
1772025751812484000,0.317484130859375,-0.2777525270193815,0.9432684000894427,-0.036112931388616556
1772025751822481200,0.327481201171875,-0.07509002003669739,1.0466843509003518,0.013811667731404303
1772025751832478000,0.33747802734375,0.16294366005659103,1.1548805217251181,0.03766016083061695
1772025751842476000,0.34747607421875,0.3260281898885965,1.2595759909525512,0.07919073335379362
1772025751852473000,0.35747314453125,0.49481823788583273,1.2835241450339554,0.1319317781340331
1772025751862471200,0.36747119140625,0.7368442024856805,1.2173945533052086,0.22260149848796426
1772025751872468200,0.37746826171875,0.9473907407164573,1.1322945959076285,0.34836379420682784
1772025751882465000,0.387465087890625,1.0622212349891662,1.0171209872856735,0.5375667348314076
1772025751892463000,0.397463134765625,1.089812421748042,0.904167977322638,0.7793732114616782
1772025751902460200,0.407460205078125,1.1169658016115427,0.8412494565948844,0.9481530303258449
1772025751912457200,0.417457275390625,1.10264735340178,0.7727350155562162,1.089883514222875
1772025751922455000,0.427455078125,1.102598838084936,0.652595308959484,1.2061551472146064
1772025751932452000,0.4374521484375,0.9806541278928518,0.46209787154495713,1.3046879290938376
1772025751942450000,0.447449951171875,0.8147305752426386,0.19014584749788044,1.3721018615446985
1772025751952447200,0.457447265625,0.6057698448985814,0.0666083151564002,1.391076172736287
1772025751962444000,0.467444091796875,0.45571372346580025,0.02355243276208639,1.3827046502321958
1772025751972442000,0.477442138671875,0.3522714691698551,-0.008325053013861178,1.3149762450046836
1772025751982439200,0.487439208984375,0.15556933189630506,0.036163200271129604,1.2677378162287174
1772025751992436200,0.497436279296875,-0.1224853929400444,0.10807108314037323,1.1821350238755344
1772025752002434000,0.50743408203125,-0.38079613738656043,0.1714671582520008,1.0427017840702086
1772025752012431000,0.51743115234375,-0.5444809711992741,0.22885493285953998,0.8005144914288074
1772025752022429200,0.52742919921875,-0.5356833322376012,0.3239212807372212,0.41313663756437596
1772025752032426200,0.53742626953125,-0.4253963266134262,0.4282882486626506,0.14931253652386367
1772025752042423000,0.547423095703125,-0.14718319634497165,0.5002960847750306,-0.045765945070609444
1772025752052421000,0.557421142578125,0.016419219881296156,0.4823015784010291,-0.20788784041553734
1772025752062418200,0.567418212890625,0.12059738723635673,0.40182518915086984,-0.2882578466817736
1772025752072415200,0.577415283203125,0.3310650150120258,0.33552520929127927,-0.3787674080379307
1772025752082413300,0.587413330078125,0.4854658876508474,0.31261925773918625,-0.3679897742401808
1772025752092410000,0.59741015625,0.49507367395162577,0.2540083710774779,-0.19090638354159892
1772025752102408200,0.607408203125,0.42059331024587154,0.12023498366475105,0.08047704683728515
1772025752112405000,0.617405029296875,0.36383623475730414,-0.06666472151875495,0.30477709287144245
1772025752122402300,0.62740234375,0.4177683159530163,-0.19534458518475292,0.3950356020759791
1772025752132400000,0.637400146484375,0.4247808250635862,-0.29968641866892576,0.4814558482918888
1772025752142397200,0.647397216796875,0.351838922971487,-0.4099094191461801,0.5523991969779134
1772025752152394000,0.65739404296875,0.34784722298681736,-0.48791357306391,0.607249854323268
1772025752162392000,0.66739208984375,0.3601835574686527,-0.51986120146662,0.6574479366224258
1772025752172389000,0.67738916015625,0.26154607310593125,-0.5372144873276352,0.648820758856833
1772025752182387200,0.68738720703125,0.12309680283665657,-0.5644222277268767,0.6516195957951247
1772025752192384300,0.69738427734375,0.09251812469959259,-0.5408943448841571,0.5539462072242051
1772025752202381000,0.707381103515625,0.13637187947332857,-0.4696949025452137,0.37353915199562904
1772025752212379100,0.717379150390625,0.10449731630682944,-0.40904315770566463,0.19261808283030984
1772025752222376200,0.727376220703125,0.019359949508309365,-0.3982970150247216,0.09751542153023182
1772025752232373200,0.737373291015625,-0.0654383945941925,-0.4078495640069246,0.09729892923533916
1772025752242371000,0.74737109375,-0.14146072704493998,-0.3852048937395215,0.14499533091187478
1772025752252368100,0.7573681640625,-0.18349895682930945,-0.29202742834836243,0.16766352818533778
1772025752262365200,0.767365234375,-0.21878771235346792,-0.21947189522534608,0.16985088216178118
1772025752272363300,0.77736328125,-0.2693862652122974,-0.19686083496659992,0.16110073560364543
1772025752282360000,0.787360107421875,-0.311877499461174,-0.20137714334726334,0.15097615888714788
1772025752292358100,0.797358154296875,-0.4343453567445278,-0.2003770263940096,0.19068726089820265
1772025752302355000,0.80735498046875,-0.4961620537102222,-0.1722375581026077,0.20349325871840118
1772025752312352300,0.817352294921875,-0.44667759957313535,-0.13165887947678565,0.18024083181619643
1772025752322350000,0.82735009765625,-0.30673838300704953,-0.12512597057670355,0.12904774713031947
1772025752332347100,0.83734716796875,-0.17114157955944537,-0.18617255995273588,0.02350866668559611
1772025752342344000,0.847343994140625,-0.17499942403137683,-0.23545330821126698,0.06999152785390615
1772025752352342000,0.857342041015625,-0.23381810822486876,-0.2577458040401339,0.24809132905341683
1772025752362339000,0.867339111328125,-0.18834990399181842,-0.2732809345632791,0.39069786513261495
1772025752372337200,0.877337158203125,-0.07486205649971961,-0.28786563249379393,0.45592561265081166
1772025752382334200,0.887334228515625,-0.025339023917913435,-0.31505817532390357,0.49848048672042783
1772025752392331000,0.8973310546875,-0.03661269760429859,-0.3810875215485692,0.5444558367580175
1772025752402329000,0.9073291015625,-0.008987608575820922,-0.4631617013841867,0.5816779714975506
1772025752412326100,0.917326171875,0.02652735691964626,-0.5479729049682617,0.594018836024031
1772025752422323200,0.9273232421875,0.080517890304327,-0.5865060492411256,0.5676320566188544
1772025752432321000,0.937321044921875,0.100434304651618,-0.6067448274105787,0.5561039697799831
1772025752442318000,0.947318115234375,0.013671382477879523,-0.6527475769117475,0.5452318626318127
1772025752452316200,0.957316162109375,-0.06843932997584343,-0.7251742229580879,0.5768915044059977
1772025752462313200,0.967313232421875,-0.10130816487669944,-0.9204448661237955,0.7214062487266958
1772025752472310500,0.977310546875,-0.15750409935116766,-1.2122387779772281,0.8961199876844882
1772025752482308600,0.98730859375,-0.24628303752243516,-1.3750953442722558,0.9180103324532508
1772025752492305400,0.997305419921875,-0.4397118522137403,-1.253925417844951,0.8645598972946404
1772025752502302700,1.007302734375,-0.7133639581769704,-1.0516939957559108,0.8731132791716605
1772025752512300500,1.017300537109375,-0.8837135105758905,-1.0084566193148494,0.8661286079160868
1772025752522297600,1.027297607421875,-0.9388672425210476,-1.015036874487996,0.7890544283248484
1772025752532295700,1.037295654296875,-1.0022311689287424,-0.8653557238474487,0.631894904627651
1772025752542292500,1.04729248046875,-0.9398924939155578,-0.5344549594864249,0.32609310835096983
1772025752552289500,1.05728955078125,-0.6904150442659854,-0.16514935340732334,0.00781935024773702
1772025752562287600,1.06728759765625,-0.463405447012186,0.11772621571421622,-0.15605242097182198
1772025752572284700,1.07728466796875,-0.28092998801171776,0.3349892027184367,-0.21490456904349847
1772025752582281500,1.087281494140625,-0.1603834541797638,0.5386892360553145,-0.2775667221236974
1772025752592279600,1.097279541015625,-0.07897592155933379,0.7213868133738637,-0.38039552069641647
1772025752602276600,1.107276611328125,0.09721768069267273,0.8238125841036439,-0.43294908008053895
1772025752612273700,1.117273681640625,0.206972771397233,0.9820154793739319,-0.4637724171610549
1772025752622271500,1.127271484375,0.23803017296195028,1.0828171560332178,-0.3913238515438512
1772025752632268500,1.1372685546875,0.16485037046074866,1.068600122371316,-0.2140173196138814
1772025752642266600,1.1472666015625,0.1251771162420511,1.043420672929287,-0.1049877667048946
1772025752652263700,1.157263671875,0.16168284634053706,1.0249541651293634,-0.04175954984030686
1772025752662260500,1.167260498046875,0.12072773561775683,1.0185270546913145,-0.022976532570272684
1772025752672258600,1.177258544921875,0.0547375523597002,0.9730600195020437,-0.017489945252193138
1772025752682255600,1.187255615234375,0.005575169783830642,0.9278285466343164,-0.01991466078162193
1772025752692252700,1.197252685546875,0.022626257827877996,0.9128583565175533,-0.05045256851688027
1772025752702250500,1.20725048828125,0.03190320473909378,0.9427256715148686,-0.08387649828353896
1772025752712247600,1.21724755859375,0.013980594557523726,0.9359560312494635,-0.15615860302634535
1772025752722245600,1.22724560546875,0.01083119061589241,0.8929638617411255,-0.25041432864088564
1772025752732242700,1.23724267578125,0.06322130306661129,0.8322907818526029,-0.3341026291422546
1772025752742239500,1.247239501953125,0.15865853008329867,0.757621325315535,-0.37067061082199215
1772025752752237600,1.257237548828125,0.23900690903961658,0.6787585087418556,-0.3847013646641746
1772025752762234600,1.267234619140625,0.2573831082075834,0.6395072793275117,-0.36049371939636765
1772025752772231700,1.277231689453125,0.2360731936752796,0.6169134624645114,-0.29838633238840845
1772025752782229800,1.287229736328125,0.20930676730275152,0.6127291625171899,-0.24329196594767272
1772025752792226600,1.2972265625,0.21054127753376958,0.6107356506124139,-0.19750103256627916
1772025752802224600,1.307224609375,0.2093517754882574,0.6035013154447079,-0.0894208528039977
1772025752812221400,1.317221435546875,0.23393618164658544,0.6069254446744918,-0.0459735599393025
1772025752822218800,1.32721875,0.3832014449626207,0.5897507302507757,-0.07335344203505664
1772025752832216600,1.337216552734375,0.5518091221302748,0.5443707888230681,-0.13407500070780515
1772025752842213600,1.347213623046875,0.6765618754804134,0.46877018891572947,-0.10165427490063011
1772025752852210400,1.35721044921875,0.7554466116249561,0.39356034189164635,-0.050854683044366536
1772025752862208500,1.36720849609375,0.8263970476388931,0.30986615963876246,-0.03548475302029401
1772025752872205600,1.37720556640625,0.8093962284773588,0.13583645742237568,0.07443791280351579
1772025752882202600,1.38720263671875,0.7275655020087957,-0.06416296783089637,0.14967833762895316
1772025752892200400,1.397200439453125,0.7229910337001085,-0.20394173313826322,0.18733904644884167
1772025752902197500,1.407197509765625,0.6858528509169817,-0.35961803254038094,0.22059487137328831
1772025752912195600,1.417195556640625,0.5419178427129984,-0.5607856247901917,0.18441556021757421
1772025752922192600,1.427192626953125,0.4218663989216089,-0.7154369650587439,0.19591222900487482
1772025752932189700,1.437189697265625,0.299620659956336,-0.8469149350106716,0.26146657812893387
1772025752942187500,1.4471875,0.17579495832324027,-0.9081459410429,0.30967615349199623
1772025752952184600,1.4571845703125,0.07323182494938373,-0.9218322288289665,0.26579657015725966
1772025752962181600,1.467181640625,0.04558218600153923,-0.8989964199036359,0.20430844755880534
1772025752972179700,1.4771796875,0.05033084183335304,-0.8384305997818708,0.17157697530202567
1772025752982176500,1.487176513671875,0.018799393016099928,-0.7713409308493137,0.17599822581037877
1772025752992174600,1.497174560546875,-0.008556231421232224,-0.6954501158237457,0.21448723868057132
1772025753002171400,1.50717138671875,-0.033950200396776195,-0.6403498676314949,0.2384156651481986
1772025753012168700,1.517168701171875,-0.0535392824858427,-0.5738955739930272,0.22195048723332583
1772025753022166500,1.52716650390625,-0.043432899013161656,-0.5271472668215632,0.20597886498905718
1772025753032163600,1.53716357421875,-0.034171734192967415,-0.4908706693038344,0.18377222081273792
1772025753042160400,1.547160400390625,-0.07723463084995746,-0.4802639350935817,0.1992093708541244
1772025753052158700,1.55715869140625,-0.08350947333574295,-0.4382195678293705,0.19825915745720266
1772025753062155500,1.567155517578125,-0.06484861200749874,-0.373700626167655,0.17701324807181953
1772025753072152600,1.577152587890625,-0.0844043763488531,-0.3503054297938943,0.22166443683356046
1772025753082150700,1.587150634765625,-0.08071253609359264,-0.3693053138181567,0.22658464983999727
1772025753092147700,1.597147705078125,-0.14470774614214896,-0.3872267549559474,0.20134002620726824
1772025753102145800,1.607145751953125,-0.24693010325431822,-0.431040177719295,0.1592345764055848
1772025753112142600,1.617142578125,-0.23087036433517932,-0.43627983193844555,0.12966989761665462
1772025753122139600,1.6271396484375,-0.22528876481056212,-0.39482144786864515,0.1390648448843509
1772025753132137500,1.637137451171875,-0.2896995699226856,-0.35261809065043925,0.14599690916985272
1772025753142134800,1.647134765625,-0.33099311881959437,-0.30540888796895743,0.10546068144626915
1772025753152131600,1.657131591796875,-0.36271395272910595,-0.2333335395783186,0.03623823826871812
1772025753162129700,1.667129638671875,-0.4265384823858738,-0.12838731046020985,-0.04042473017312586
1772025753172126500,1.67712646484375,-0.4731880053579807,-0.03586421732455492,-0.10878726858571171
1772025753182124500,1.68712451171875,-0.4800011925041675,0.00857990455776453,-0.13166406710855663
1772025753192121600,1.69712158203125,-0.4692489123433828,-0.05038987854421138,-0.08993979864418507
1772025753202118700,1.70711865234375,-0.49599897210299965,-0.14079554113447665,-0.05607230809479952
1772025753212116500,1.717116455078125,-0.5929980416089295,-0.046533787637948985,-0.0609848492514342
1772025753222113500,1.727113525390625,-0.6463590449184179,0.11149053619503975,-0.07520641295798122
1772025753232110600,1.737110595703125,-0.6066892978310585,0.1834507337734103,-0.13950564745441077
1772025753242108700,1.747108642578125,-0.6061304949045181,0.23624095145761964,-0.1671235760897398
1772025753252105500,1.75710546875,-0.5626204390019178,0.2807365112662315,-0.15214176860041914
1772025753262102500,1.7671025390625,-0.4549982686728239,0.3019584552541375,-0.08536072722561656
1772025753272100600,1.7771005859375,-0.38700609794259067,0.35307051059305666,-0.0040716333530843255
1772025753282097700,1.78709765625,-0.3085749507844448,0.4409720814079046,0.0889301101449877
1772025753292095700,1.797095703125,-0.2119792013823986,0.49250440798550843,0.2299913895435631
1772025753302092500,1.807092529296875,-0.18724457309842107,0.43791912357807156,0.40482013318315146
1772025753312089600,1.817089599609375,-0.2385170796960592,0.34898207223564387,0.5853781411897391
1772025753322087400,1.82708740234375,-0.2692208455175161,0.29096564433574673,0.783009741333127
1772025753332084700,1.837084716796875,-0.30446283929049966,0.2972928015306592,0.9615763563267886
1772025753342081500,1.84708154296875,-0.298427066257596,0.23928806406855582,1.0936497348885983
1772025753352079600,1.85707958984375,-0.2736100203871727,0.14732143577188253,1.1900756806816906
1772025753362076400,1.867076416015625,-0.29015841960608957,0.10755611935555934,1.2490975592970848
1772025753372074500,1.877074462890625,-0.3841694132119417,0.13709727113842962,1.2816332167208193
1772025753382071600,1.887071533203125,-0.4545435106426477,0.26181992161124945,1.2469804210126398
1772025753392068600,1.897068603515625,-0.4436480226188898,0.3856298411533236,1.1235371428258716
1772025753402066400,1.90706640625,-0.38810909074842925,0.4675967612221837,0.9647792440213262
1772025753412063500,1.9170634765625,-0.27941841440498827,0.6403615580692887,0.7768641512501985
1772025753422060500,1.927060546875,-0.17481062346100806,0.875834740024805,0.6737629654768854
1772025753432058600,1.93705859375,-0.007934300130605696,1.063823409488797,0.5919206216357648
1772025753442055700,1.9470556640625,0.2748188116550445,1.1520558196932076,0.4976703393813222
1772025753452052500,1.957052490234375,0.5845318265587091,1.210458032040298,0.4778794511098414
1772025753462050600,1.967050537109375,0.8308294771283864,1.2453566192030905,0.5370458527624606
1772025753472047000,1.977047119140625,1.0564666169852017,1.1789178153946995,0.6256820945274084
1772025753482045200,1.987045166015625,1.2553536970824002,1.04005791849792,0.7363068807385862
1772025753492042000,1.9970419921875,1.3550474124997853,0.8857549532756209,0.9391821536891162
1772025753502039300,2.007039306640625,1.3571616281747818,0.6993073757737874,1.1209328786116093
1772025753512037000,2.017037109375,1.3044342465937138,0.4631505954682827,1.2615607350289821
1772025753522034200,2.0270341796875,1.228132512679696,0.2809565837576985,1.376863230727613
1772025753532031000,2.037031005859375,1.1310685612440108,0.14707798240482806,1.4595806769028306
1772025753542029000,2.047029052734375,0.9930950917929411,0.032087329134345054,1.532986397114396
1772025753552026000,2.057026123046875,0.8611556418091059,-0.11338380259573459,1.6296876527175306
1772025753562024200,2.067024169921875,0.6625614071786403,-0.21778613409548997,1.717621956758201
1772025753572021000,2.07702099609375,0.5323702621668577,-0.2145262555167079,1.7982935763195156
1772025753582018000,2.08701806640625,0.36058161687552925,-0.22499475030004976,1.8874521614581345
1772025753592016000,2.097015869140625,0.1593681396573782,-0.20845950282365083,1.826830081104487
1772025753602013200,2.10701318359375,0.03500058623254299,-0.11785685635656118,1.658721147239208
1772025753612010000,2.117010009765625,-0.05707622444033622,-0.012426643113791942,1.509084420262277
1772025753622008000,2.127008056640625,-0.20793314086198805,0.12360212201029061,1.328333885358274
1772025753632004900,2.1370048828125,-0.36898236547410485,0.2643827578365803,1.2286376857228576
1772025753642002200,2.147002197265625,-0.4260615125238895,0.42359307658374307,1.1913818679094315
1772025753652000300,2.157000244140625,-0.4785469020426273,0.5796820484399795,1.0801910453133285
1772025753661997000,2.1669970703125,-0.5575111331641673,0.6309115926787257,0.994319884347543
1772025753671995100,2.1769951171875,-0.5362210923761129,0.6578244417846203,0.927653409263119
1772025753681992000,2.186991943359375,-0.5363578704982995,0.671847998701036,0.8520270903926342
1772025753691989200,2.1969892578125,-0.5948509759992361,0.6777320883035659,0.8057563376050442
1772025753701987000,2.206987060546875,-0.529572155880928,0.6981102749437094,0.7211911446712911
1772025753711984000,2.216984130859375,-0.39126960060596466,0.6709691700398922,0.6550410946764051
1772025753721981000,2.22698095703125,-0.36099253576397894,0.5732555225238204,0.7112179591242224
1772025753731979000,2.23697900390625,-0.302526318269968,0.4652355850487947,0.7943975429184734
1772025753741976000,2.24697607421875,-0.23215222083926199,0.316802973164618,0.8701021877221763
1772025753751973000,2.25697314453125,-0.17738485786318778,0.13040128063112497,0.9239572581589222
1772025753761971000,2.266970947265625,-0.1080722521841526,-0.03490764725208282,0.9340284972529858
1772025753771968000,2.276968017578125,-0.030055531045794486,-0.19659341620206833,0.924913755166158
1772025753781966000,2.286966064453125,-0.041507483908534044,-0.31996962050199507,0.9190697053130715
1772025753791963100,2.296963134765625,-0.08647475288212299,-0.3911605872735381,0.9254333951260894
1772025753801960000,2.3069599609375,-0.08274550322592258,-0.45407881574034686,0.9555751431506126
1772025753811958000,2.3169580078125,-0.08088380100727081,-0.5102703663006425,0.9682816261190921
1772025753821955300,2.326955322265625,-0.03054068421423435,-0.5273395745232701,0.955394014430046
1772025753831952100,2.3369521484375,0.05213818351626396,-0.5530445091441273,0.9558819440774619
1772025753841950200,2.3469501953125,0.06118658236861228,-0.6045224751859903,0.9505169829782097
1772025753851947000,2.356947021484375,0.02886193734705448,-0.6236354641959071,0.9668654757108539
1772025753861944300,2.3669443359375,0.047531566503643985,-0.5969242751419543,0.9657129446748643
1772025753871942100,2.376942138671875,0.06892799027562141,-0.5525681238040328,0.9903907282050698
1772025753881939200,2.386939208984375,0.0001502221256494522,-0.5477659842193127,1.0154382948957383
1772025753891937000,2.39693701171875,-0.03938859205842018,-0.5525310066640376,1.0011808561582118
1772025753901934000,2.40693408203125,-0.0058615855097770685,-0.4937257664740085,0.9627729457002132
1772025753911931100,2.41693115234375,0.020619594180583952,-0.4208201047390699,0.9085505032557993
1772025753921929200,2.42692919921875,0.05330138207674026,-0.38776685318201776,0.8692845877289771
1772025753931926000,2.436926025390625,0.026572949627041816,-0.3587172843083739,0.9037075932692736
1772025753941923000,2.446923095703125,-0.06603752953112126,-0.3244982038423419,0.9518559764970094
1772025753951921000,2.4569208984375,-0.07844751377105712,-0.30492841097563506,0.9156209530986845
1772025753961918200,2.466918212890625,-0.05602759217023849,-0.32139526939094065,0.8907007391147315
1772025753971915000,2.4769150390625,-0.08978665390908717,-0.40979339155107736,0.9185371328063309
1772025753981913000,2.4869130859375,-0.13447042976617812,-0.4528191710680723,0.9823059867531061
1772025753991910000,2.496909912109375,-0.2071861218869686,-0.37156799805313345,1.048577032779157
1772025754001908000,2.506907958984375,-0.2576157479196787,-0.24089228439480065,1.0126021216217427
1772025754011905300,2.5169052734375,-0.2557674897044897,-0.14614508546888827,0.9063421795565635
1772025754021902000,2.526902099609375,-0.2500689858019352,-0.07200812837332486,0.7936585611194372
1772025754031900200,2.536900146484375,-0.26321079144775866,-0.0004763853400945663,0.6665748806037008
1772025754041897000,2.54689697265625,-0.2969640079677105,0.0936935982197523,0.5874652496621012
1772025754051894300,2.556894287109375,-0.35274902355372906,0.2141173824548721,0.561392943033576
1772025754061892000,2.56689208984375,-0.3024567601650953,0.3501867718502879,0.5073675940638408
1772025754071889200,2.57688916015625,-0.23843758471906185,0.388223364777863,0.44113256919924165
1772025754081887000,2.586886962890625,-0.2694230900913477,0.37546179062128066,0.38140864326171575
1772025754091884000,2.596884033203125,-0.3121300129175186,0.374933382833004,0.3653501829842105
1772025754101881000,2.606881103515625,-0.3417833929032087,0.3967711206316948,0.38439207951929416
1772025754111879200,2.616879150390625,-0.36317046432495115,0.40095746640563007,0.39837636387124653
1772025754121876000,2.6268759765625,-0.36075288178920745,0.3614621991023421,0.38400830436609684
1772025754131873000,2.636873046875,-0.300021641972661,0.3272220758482814,0.3023237814351916
1772025754141870800,2.646870849609375,-0.2779483418524265,0.31383915492296216,0.2184334738220088
1772025754151868200,2.6568681640625,-0.2432493689149618,0.3372589012160897,0.20343345482256261
1772025754161866200,2.6668662109375,-0.2069020442485809,0.3137225428059697,0.2045262184953317
1772025754171863000,2.676863037109375,-0.13772738573551177,0.27691695297807456,0.14542285387525333
1772025754181860000,2.686860107421875,-0.06327098742723465,0.26504619018137454,0.1194607935550157
1772025754191858200,2.696858154296875,-0.00999590883553028,0.24771482389122246,0.0950903132751584
1772025754201855200,2.706855224609375,0.06824351514279842,0.23443039490431547,0.07676364320418796
1772025754211852000,2.71685205078125,0.12696633774638175,0.26561872937232256,0.052007999531645324
1772025754221850000,2.72685009765625,0.11544482677876948,0.2969242604792118,0.09940679736793973
1772025754231847200,2.73684716796875,0.09638356795608997,0.24221914908438918,0.10132391043510287
1772025754241844200,2.74684423828125,0.14517361008822918,0.25289602592140437,0.11028799200486392
1772025754251842000,2.756842041015625,0.16252806499302386,0.31624796963036056,0.2277405418768525
1772025754261839000,2.766839111328125,0.18554302987754343,0.35392508159577846,0.3740823920268565
1772025754271837000,2.7768369140625,0.22129823386967182,0.3783551739752292,0.46547125696819275
1772025754281834200,2.786834228515625,0.18347849856317042,0.4066714601382613,0.5172708927124738
1772025754291831000,2.7968310546875,0.14316110122203826,0.4666422369763255,0.5323730021132156
1772025754301829000,2.8068291015625,0.09935293915569782,0.5145005512163042,0.5508458665886894
1772025754311826000,2.816825927734375,0.09789572608470916,0.5163575772598386,0.5538847593605518
1772025754321823200,2.8268232421875,0.09745441205799579,0.4940840783923864,0.5298172897484154
1772025754331821300,2.8368212890625,0.1025561191111803,0.48797290203571314,0.5155952145852148
1772025754341818000,2.846818115234375,0.07309855395853519,0.5440490095227957,0.5174452994313091
1772025754351815000,2.85681494140625,-0.00722352151274681,0.5891463346168399,0.545302334052138
1772025754361813000,2.86681298828125,-0.07605155854523181,0.6369008962213992,0.5596217686425894
1772025754371810300,2.876810302734375,-0.10506897871494293,0.6802922941803932,0.5135956382658332
1772025754381808000,2.88680810546875,-0.09944237100481987,0.7121274021193384,0.44577392873167987
1772025754391805200,2.89680517578125,-0.08749474357962608,0.7372659350290894,0.3780381804479286
1772025754401802000,2.906802001953125,-0.022090835776925086,0.7360559747174382,0.30707678464856
1772025754411800000,2.916800048828125,0.05130348625779152,0.7153834813058376,0.27927180900853127
1772025754421797000,2.926797119140625,0.08437281216681003,0.6904147520050407,0.2702212912643328
1772025754431794200,2.936794189453125,0.10704466270208358,0.6858975668415427,0.26636275267265735
1772025754441792000,2.9467919921875,0.16489128699302671,0.5525581869319081,0.3461252945650369
1772025754451789000,2.9567890625,0.1841851855278015,0.4184510375201702,0.4340409669704735
1772025754461786000,2.9667861328125,0.13781740210652352,0.3653074763536453,0.5184321185115724
1772025754471784400,2.976784423828125,0.09988368503153323,0.27875118266791105,0.6104855848414823
1772025754481781500,2.986781494140625,0.05702186390459537,0.15482289744317532,0.6632811728205531
1772025754491779600,2.996779541015625,0.024942133554816243,0.05250993943810463,0.6627084874991327
1772025754501776400,3.0067763671875,0.02802548652291298,0.001966039375960827,0.6282774447828531
1772025754511773400,3.0167734375,0.0031061493217945098,-0.008446341305971146,0.5989535890124738
1772025754521771500,3.026771484375,-0.049505496925115584,-0.0337538010418415,0.5873188634613529
1772025754531768600,3.0367685546875,-0.07417290519177913,-0.049911447377502915,0.5591134172616526
1772025754541765400,3.046765380859375,-0.07728899138569831,-0.03245850053429603,0.5413630218418315
1772025754551763500,3.056763427734375,-0.10751929447650908,-0.035301322744786735,0.5404287001337855
1772025754561760500,3.066760498046875,-0.13155015840530396,0.012400631889700888,0.5021809121409431
1772025754571757600,3.076757568359375,-0.07297755792737007,0.11562369047701358,0.4483087444389239
1772025754581755400,3.08675537109375,0.06724865888655185,0.23742723863273857,0.3911316534399986
1772025754591752400,3.09675244140625,0.0821785169929266,0.3247998171374202,0.3801215991258621
1772025754601750300,3.106750244140625,0.030557050827145573,0.33751433728188274,0.3693774292062968
1772025754611747600,3.11674755859375,0.061759998342394824,0.3362430021718144,0.38487251997999844
1772025754621744400,3.126744384765625,0.08799450979530811,0.3182140090063214,0.3844035142287612
1772025754631742500,3.136742431640625,0.10243512308001518,0.2912871313750744,0.36036190971024334
1772025754641739300,3.1467392578125,0.11937690553069114,0.23747253907918928,0.36993506308905777
1772025754651736600,3.156736572265625,0.16368191120326517,0.20096125602275133,0.3338876712173223
1772025754661734400,3.166734375,0.1541086116939783,0.20468670628666877,0.33455607199817894
1772025754671731500,3.1767314453125,0.1221323417186737,0.16775602877438067,0.3392368502255529
1772025754681728300,3.186728271484375,0.12970248471200466,0.06503302866369486,0.320885931629315
1772025754691726300,3.196726318359375,0.15944938820004462,0.01862374418824911,0.3115307318501174
1772025754701723600,3.2067236328125,0.13605799121856688,-0.015577508360147475,0.29185086620505896
1772025754711721500,3.216721435546875,0.08650807062983512,-0.06201572666913271,0.2701339052418247
1772025754721718500,3.226718505859375,0.036660043877363206,-0.10303279671221971,0.2169107760330662
1772025754731715300,3.23671533203125,0.04639233334064483,-0.08925123185813426,0.13763802695162594
1772025754741713400,3.24671337890625,0.09848726223707198,-0.0251247966453433,0.0356008171480149
1772025754751710500,3.25671044921875,0.1315133335262537,0.014394728316366671,-0.02328537932373583
1772025754761707500,3.26670751953125,0.11380582740008831,0.10568272669911384,-0.09970620957277715
1772025754771705300,3.276705322265625,0.12107084996700286,0.14349047930687664,-0.14734920056164263
1772025754781702400,3.286702392578125,0.15067162298262118,0.08846534217745065,-0.16648936983942986
1772025754791699500,3.296699462890625,0.12734393888711928,0.050049686804413795,-0.18817732390388844
1772025754801697500,3.306697509765625,0.08198971642255783,0.037241935418546195,-0.19516389485560356
1772025754811694300,3.3166943359375,0.05395370850563049,0.05077215586006641,-0.19675503650456666
1772025754821692400,3.3266923828125,0.05977730009257793,0.04024783923625946,-0.22413133840374647
1772025754831689500,3.336689453125,0.07488309928774833,-0.007578034038841724,-0.23403262775838374
1772025754841686500,3.3466865234375,0.026101240462064742,-0.04957622407376766,-0.21753310918249188
1772025754851684600,3.3566845703125,-0.023993454527854917,-0.07496902400553226,-0.18940313937179742
1772025754861681400,3.366681396484375,-0.054694297739863396,-0.04668956272155046,-0.19234416125975548
1772025754871678500,3.376678466796875,-0.055655251726508134,-0.01581248615980148,-0.24697416159175334
1772025754881676500,3.386676513671875,-0.056039282608032225,0.0007727379381656646,-0.2834291113510728
1772025754891673600,3.396673583984375,-0.07633738974928855,0.03514817800968885,-0.31726627982743083
1772025754901670400,3.40667041015625,-0.15842764393687248,0.045750820566713805,-0.33379451304115354
1772025754911668500,3.41666845703125,-0.27348493270277974,0.003302840937674045,-0.33316286407411094
1772025754921665500,3.42666552734375,-0.34025720624923705,-0.0530862780213356,-0.342248599262163
1772025754931663600,3.43666357421875,-0.3690910865455866,-0.10920622465014457,-0.33680903855673966
1772025754941660400,3.446660400390625,-0.4345195442676544,-0.2486222941249609,-0.294043298215419
1772025754951657500,3.456657470703125,-0.5448731853872537,-0.3704948158636689,-0.27246406522244215
1772025754961655300,3.4666552734375,-0.6598690993547439,-0.36111908475309606,-0.24704715376272796
1772025754971652600,3.476652587890625,-0.751990918213129,-0.34202480044364925,-0.23016565013192591
1772025754981649400,3.4866494140625,-0.8117249636858701,-0.44990503718703984,-0.28360863263644276
1772025754991647500,3.4966474609375,-0.8730664443552494,-0.5598956902131438,-0.34826661744266746
1772025755001644300,3.506644287109375,-0.9034767801880836,-0.5581111448839307,-0.39464565291032194
1772025755011641600,3.5166416015625,-0.8700216698318719,-0.47553369170129295,-0.4375223793454468
1772025755021639400,3.526639404296875,-0.8445891224116087,-0.3807338858053088,-0.5217149395745247
1772025755031636500,3.536636474609375,-0.8063526229977607,-0.3079468820139766,-0.6080305563721805
1772025755041634600,3.546634521484375,-0.8274743214815855,-0.2435159108966589,-0.6128885177973658
1772025755051631400,3.55663134765625,-0.8951865062266587,-0.20092355436086654,-0.5638719003677368
1772025755061628400,3.56662841796875,-0.9033183747559785,-0.16297843910902737,-0.5123444691609591
1772025755071626500,3.57662646484375,-0.8234294300049543,-0.06762070706933736,-0.4525483182374388
1772025755081623600,3.58662353515625,-0.6399030006468296,0.04921878893822431,-0.402828228713572
1772025755091620400,3.596620361328125,-0.42903439085483547,0.13927519969940186,-0.3254978093389421
1772025755101618400,3.606618408203125,-0.2844774513602257,0.20887217527776955,-0.183142179280892
1772025755111615500,3.616615478515625,-0.19600830979049205,0.28634733688533304,-0.04639569434151053
1772025755121613600,3.626613525390625,-0.07508008316457271,0.3627259354278445,0.0697637104474008
1772025755131610400,3.6366103515625,0.1196311725527048,0.4171709345817566,0.16771014380604027
1772025755141607400,3.646607421875,0.32916473434865473,0.45574441086500883,0.2624900759577751
1772025755151605200,3.656605224609375,0.46707215282618997,0.5010886964574456,0.3886874751582742
1772025755161602600,3.6666025390625,0.5573503896445036,0.5723556510746479,0.5177428941383958
1772025755171599400,3.676599365234375,0.6701064157307147,0.6612520781457424,0.6272333425574004
1772025755181597400,3.686597412109375,0.8000158211916685,0.7613026441767812,0.6759604024559259
1772025755191594200,3.69659423828125,0.9141244309306145,0.8984645049840211,0.6830528449349105
1772025755201591600,3.706591552734375,1.106608658248186,1.0435177035629748,0.6658097414501011
1772025755211589600,3.716589599609375,1.3277426414668558,1.1798404831975697,0.6443675788402558
1772025755221586400,3.72658642578125,1.4169091176509856,1.2105308050155639,0.6775600927375257
1772025755231583200,3.736583251953125,1.4427560910910366,1.127555000165105,0.6676733433648944
1772025755241581300,3.746581298828125,1.4170435576856135,0.9950690222144126,0.6936309375725687
1772025755251578600,3.75657861328125,1.34297235930264,0.8072890270650387,0.7830006812438368
1772025755261576400,3.766576416015625,1.1837643786430359,0.6002250702530145,0.9719744162224233
1772025755271573500,3.776573486328125,1.0952221718370914,0.4313400374487042,1.2172856130380183
1772025755281570600,3.786570556640625,0.9411690897226334,0.30956220825612546,1.4314306872174143
1772025755291568600,3.796568603515625,0.792578949189186,0.1639972607627511,1.4628779648825525
1772025755301565400,3.8065654296875,0.7372627201586961,-0.07155629295259713,1.5574807869017124
1772025755311562500,3.8165625,0.5796060605943203,-0.2669794963315129,1.6451844970569014
1772025755321560300,3.826560302734375,0.30368016448020935,-0.39428427225202317,1.7356234773948787
1772025755331557600,3.8365576171875,0.09686755208075046,-0.42081104464977975,1.7940332885265349
1772025755341555500,3.846555419921875,-0.07433247966766357,-0.3611252222329378,1.7899278990343213
1772025755351552500,3.856552490234375,-0.19221300916075706,-0.2466504095301032,1.6795502925172447
1772025755361549300,3.86654931640625,-0.3267261090248823,-0.10019377389401196,1.5082278034329413
1772025755371547400,3.87654736328125,-0.4708656998902559,0.03209522017985582,1.3492170989111065
1772025755381544400,3.88654443359375,-0.5169453140199184,0.17634908507466315,1.2255864083934576
1772025755391541500,3.89654150390625,-0.3958545903086662,0.3309977949947119,1.0511203605864197
1772025755401539600,3.90653955078125,-0.2331453235298395,0.40223932290971276,0.872711785698682
1772025755411536400,3.916536376953125,-0.005588613787293434,0.4311985831514001,0.736319301828742
1772025755421533400,3.926533447265625,0.13277122463285923,0.384319927598536,0.6898425781402736
1772025755431531500,3.936531494140625,0.244517196893692,0.2926516977265477,0.6674310590416193
1772025755441528600,3.946528564453125,0.4253483958184719,0.171228088799119,0.7428832634542137
1772025755451526400,3.9565263671875,0.5081073430478572,0.03190904995799065,0.9486555730205029
1772025755461523500,3.9665234375,0.4364718473792076,-0.10319646284133195,1.2551587590321898
1772025755471521000,3.97652099609375,0.33966450105309487,-0.2564528416201472,1.4129595032423734
1772025755481519000,3.98651904296875,0.19284429280161858,-0.43739831457436085,1.4766159828558563
1772025755491516000,3.996515869140625,0.07961421946287155,-0.5507350631579756,1.4755213194869459
1772025755501512700,4.0065126953125,0.0680786799699068,-0.599910889737308,1.528661519652605
1772025755511510800,4.0165107421875,0.024303251129388807,-0.5817375196650624,1.6034905506655572
1772025755521508000,4.026508056640625,-0.015977321332693098,-0.540234419670701,1.5714656192429364
1772025755531505000,4.0365048828125,0.03261573692262173,-0.488394634579122,1.485637493701279
1772025755541503000,4.0465029296875,0.0572603488355875,-0.43037732989639044,1.283140990935266
1772025755551499800,4.056499755859375,0.010203414106369019,-0.3709311614543199,1.157651301612705
1772025755561497900,4.066497802734375,-0.06570376753211021,-0.2869955716609955,1.0865787735890597
1772025755571495000,4.076494873046875,-0.09904606516361236,-0.19178192426711319,1.0345695502147079
1772025755581492000,4.086491943359375,-0.1054448262900114,-0.12786357884705066,0.9427030212916433
1772025755591489800,4.09648974609375,-0.10830956807136535,-0.11519348236620426,0.8728309550989418
1772025755601486800,4.10648681640625,-0.10994506031870842,-0.15282500162422655,0.8345357843004166
1772025755611484000,4.11648388671875,-0.10789572657346724,-0.17899638471305368,0.8519039754696189
1772025755621482000,4.12648193359375,-0.1375163733333349,-0.17371552170068025,0.8684295052696019
1772025755631478800,4.136478759765625,-0.13877426443994045,-0.14197159917652605,0.8892450604137033
1772025755641475800,4.146475830078125,-0.08111293358802794,-0.1302098497122526,0.9184202284283935
1772025755651473700,4.1564736328125,-0.027206571355462072,-0.11544365773499012,0.9498143146015703
1772025755661471000,4.166470947265625,-0.01485620834827423,-0.053254620325565334,0.9903902167484163
1772025755671467800,4.1764677734375,0.04257891253232956,-0.022663374967873094,1.0105521302893756
1772025755681465900,4.1864658203125,0.1065863975405693,-0.048368894110620016,0.995336002587527
1772025755691463000,4.196462890625,0.0992009634643793,-0.0606128741338849,0.9721866707336158
1772025755701460700,4.206460693359375,0.07904021896719932,-0.06303834771513939,0.9454971089895814
1772025755711458000,4.2164580078125,0.0019856208592653273,-0.09291033888757229,0.9281810133337974
1772025755721454800,4.226454833984375,-0.08300853807628154,-0.14570464822500942,0.8999384499941021
1772025755731453000,4.236452880859375,-0.16744447860717773,-0.2854775683134794,0.9257532747302204
1772025755741449700,4.24644970703125,-0.2865332148462534,-0.6170078627496958,1.04548732313551
1772025755751447000,4.256447021484375,-0.48400341388285156,-0.9138120039805769,1.1294598839383572
1772025755761444900,4.26644482421875,-0.7321721190214157,-0.8786313850060105,1.122679137757048
1772025755771442000,4.27644189453125,-0.9283627996414899,-0.7761690816581249,1.0990004482667892
1772025755781438700,4.286438720703125,-1.0671984388798474,-0.8158139865651727,1.0381297999795525
1772025755791436800,4.296436767578125,-1.1526187142729758,-0.8380421849861741,0.9852790112145244
1772025755801433900,4.306433837890625,-1.215116963762045,-0.6215645031407475,0.8867079431515187
1772025755811432000,4.316431884765625,-1.303852062791586,-0.15347937387973068,0.5179743282740935
1772025755821428700,4.3264287109375,-1.105118711951375,0.14003069424182177,0.15656550332680344
1772025755831425800,4.33642578125,-0.943547509291768,0.2694409180089831,0.053906069971621035
1772025755841424000,4.346423828125,-0.877332285106182,0.4010243941619992,-0.1662136947032064
1772025755851421000,4.3564208984375,-0.7256956164836883,0.6106590782448649,-0.285693001162447
1772025755861417700,4.366417724609375,-0.5547182875752449,0.8774912750601768,-0.38820681550186126
1772025755871415800,4.376415771484375,-0.3679085987627506,1.1025903625175357,-0.5489282694643363
1772025755881412900,4.386412841796875,-0.2091331643015146,1.190287935192883,-0.6315335970345884
1772025755891410000,4.396409912109375,-0.11251578758955001,1.1910770397439598,-0.6501358600433915
1772025755901408000,4.406407958984375,-0.1104641157567501,1.1579600753009318,-0.589908843421936
1772025755911404800,4.41640478515625,-0.15523498537540434,1.1833671960189938,-0.572996140935272
1772025755921403000,4.42640283203125,-0.1644049647808075,1.245607379093766,-0.620341610282287
1772025755931400000,4.43639990234375,-0.07443184838891029,1.2695780372679233,-0.734832862663269
1772025755941397000,4.44639697265625,-0.020126842227578164,1.2508479100957512,-0.847281064909324
1772025755951394800,4.456394775390625,0.007612228569388389,1.211867606577277,-0.926020035907626
1772025755961391900,4.466391845703125,0.015977905854582787,1.0983347508996724,-0.818690637980029
1772025755971389000,4.476388916015625,0.05498012894392013,1.0044757329851388,-0.7397249455537647
1772025755981387000,4.486386962890625,0.08265256424546241,0.9631287003353237,-0.7126799214355647
1772025755991383800,4.4963837890625,-0.0012497078001499175,0.8523527421504259,-0.6370161931641399
1772025756001382000,4.5063818359375,-0.11869184587597846,0.7138306989058851,-0.5717851211776956
1772025756011378700,4.516378662109375,-0.12019056000113487,0.6072486852794885,-0.5209870636913925
1772025756021376000,4.5263759765625,-0.014372224223613738,0.5068386382862925,-0.48091669991388913
1772025756031374000,4.5363740234375,0.11622691706717013,0.41948681030869484,-0.47832858311682935
1772025756041371000,4.546370849609375,0.19786825844347475,0.3704848789915442,-0.44843627980872985
1772025756051367700,4.55636767578125,0.28967969617843625,0.31196079383045433,-0.3806386087372899
1772025756061365800,4.56636572265625,0.3833937526643276,0.2410126959040761,-0.2906539480380714
1772025756071363000,4.576363037109375,0.48588908149898047,0.18325725702792406,-0.19550286275269463
1772025756081360000,4.58635986328125,0.6301683730959892,0.14515928930193184,-0.06730716587444767
1772025756091358000,4.59635791015625,0.7652946364223957,0.08604717511981726,0.020365290625952184
1772025756101354800,4.606354736328125,0.8171873207449912,0.011618249340355396,0.09899066344825551
1772025756111352000,4.61635205078125,0.8835773169755935,-0.05595101980268955,0.17794652860024943
1772025756121350000,4.626349853515625,0.9262836552798748,-0.13054244266748427,0.2128626514197327
1772025756131347000,4.636346923828125,0.9003039953708648,-0.21495587910562752,0.22316705994885414
1772025756141344800,4.6463447265625,0.872050545310974,-0.3249538386553526,0.219827448931057
1772025756151341800,4.656341796875,0.8464432258456945,-0.4434855255335569,0.20699545815307646
1772025756161339000,4.6663388671875,0.7669833201617002,-0.5240560228079557,0.29526067464854566
1772025756171337000,4.6763369140625,0.5998784487724304,-0.6728387633040547,0.36160021933354436
1772025756181333800,4.686333740234375,0.5225543860733509,-0.7186866145044565,0.41625381973683834
1772025756191330800,4.696330810546875,0.462797544246912,-0.6383382355481386,0.3569559006590396
1772025756201329000,4.706328857421875,0.41277006927430626,-0.619592326284945,0.28388980593169105
1772025756211326000,4.716325927734375,0.34132980391681195,-0.6241176947548985,0.23078619318306445
1772025756221322800,4.72632275390625,0.3270148628383875,-0.5953446047350764,0.12327279872437938
1772025756231320800,4.73632080078125,0.28330197784006594,-0.5154135744079947,0.03329201048268005
1772025756241318000,4.74631787109375,0.24756840115785597,-0.4397857942327857,-0.031198339838790706
1772025756251315700,4.756315673828125,0.1318225456058979,-0.34273879393190143,-0.09804476090027019
1772025756261313000,4.76631298828125,0.015577508360147475,-0.22399054169356822,-0.15317215282777324
1772025756271309800,4.776309814453125,-0.030644729110598564,-0.11898001516759395,-0.22451317732818424
1772025756281308000,4.786307861328125,-0.029624738413095472,-0.02981178541779518,-0.26813948002159593
1772025756291304700,4.7963046875,-0.05076221898794174,0.03148351802229881,-0.2857962058085948
1772025756301302000,4.806302001953125,-0.10903320617079734,0.06916969007700681,-0.33217370690628883
1772025756311299800,4.8162998046875,-0.15866729791164397,0.058818976454436775,-0.31831955174002796
1772025756321297000,4.826296875,-0.14286474862396717,0.0088861940279603,-0.26014851780030873
1772025756331293700,4.836293701171875,-0.15231179140508175,-0.04242079936116933,-0.15313931913725098
1772025756341292000,4.8462919921875,-0.3155892134606838,-0.13204787879437208,-0.07634757321658543
1772025756351288800,4.856288818359375,-0.29854280159175395,-0.19252543611079453,-0.05570782673053909
1772025756361287000,4.866286865234375,-0.1984416744172573,-0.19856880792826412,-0.0551356939649675
1772025756371283700,4.87628369140625,-0.19810089815557003,-0.19307693251371383,-0.13545369604933075
1772025756381281000,4.886281005859375,-0.20644494813084602,-0.2526727385595441,-0.16049219351755453
1772025756391279000,4.896279052734375,-0.22038696424365042,-0.3351595908492803,-0.20669413711894302
1772025756401276000,4.90627587890625,-0.25490122826397416,-0.3675245678812265,-0.2588828269797377
1772025756411272700,4.916272705078125,-0.2595399939805269,-0.37252632169127464,-0.28904589178692547
1772025756421270800,4.926270751953125,-0.18357260658740995,-0.3870303556010127,-0.32968744304850695
1772025756431268000,4.93626806640625,-0.14457739776074885,-0.3995154509037733,-0.392997374246642
1772025756441266000,4.946265869140625,-0.1461924317419529,-0.4064104711145162,-0.4730156444657594
1772025756451263000,4.956262939453125,-0.12212649649977683,-0.4505278452605009,-0.5181075261997059
1772025756461259800,4.966259765625,-0.08373860591650009,-0.517451509976387,-0.5395461451455951
1772025756471257300,4.97625732421875,-0.09611527240872382,-0.5633849936336278,-0.5287203978898003
1772025756481254400,4.98625439453125,-0.12392916200757026,-0.6118745915144681,-0.5254641360402107
1772025756491251200,4.996251220703125,-0.16221183865070343,-0.6363496920794248,-0.5630585381582379
1772025756501249300,5.006249267578125,-0.2251724449545145,-0.6579936608716845,-0.5846674356371164
1772025756511246300,5.016246337890625,-0.2675344998657703,-0.661855012474954,-0.6159516316950321
1772025756521243400,5.026243408203125,-0.27950667721033096,-0.6442150186270476,-0.6954986311405896
1772025756531241500,5.036241455078125,-0.2744768663495779,-0.5930147004827857,-0.8051162130706012
1772025756541238300,5.04623828125,-0.24368366867899893,-0.5407800708547235,-0.8896391012325883
1772025756551236400,5.056236328125,-0.2286965274274349,-0.5149386503726243,-0.9420802132181822
1772025756561233400,5.0662333984375,-0.23168460332751273,-0.4937254742130637,-0.9896519656017422
1772025756571230500,5.07623046875,-0.22570260630846023,-0.4734197682872414,-0.9959848949503153
1772025756581228300,5.086228271484375,-0.22376550076603888,-0.5092015680253505,-0.9294669614911079
1772025756591225300,5.096225341796875,-0.22131343143880366,-0.6867439545378089,-0.7632105236247182
1772025756601222400,5.106222412109375,-0.19903437961339948,-1.040247888112068,-0.5157525240387767
1772025756611220500,5.116220458984375,-0.31363983295857906,-1.203115268062055,-0.37266003107354045
1772025756621217300,5.12621728515625,-0.441698642116785,-1.111103631579876,-0.3183914113998413
1772025756631214300,5.13621435546875,-0.5179729035019874,-1.0041364180281758,-0.2505084001325071
1772025756641212200,5.146212158203125,-0.6649708064079284,-1.1213824490100144,-0.3211410754341632
1772025756651209500,5.15620947265625,-0.7102905420809984,-1.3072250463560222,-0.2094024096969515
1772025756661206300,5.166206298828125,-0.8843804500520229,-1.169756019295752,-0.19869521078690885
1772025756671204400,5.176204345703125,-0.9098848936647176,-0.8125026700600981,-0.3177249103151262
1772025756681201200,5.186201171875,-0.7790133651733397,-0.5692094620034098,-0.4920861095082015
1772025756691199200,5.19619921875,-0.5804091936707496,-0.4166869504570961,-0.6246631267432123
1772025756701196500,5.206196533203125,-0.474341851568222,-0.19216624740958213,-0.6116230279061943
1772025756711193300,5.216193359375,-0.43879123023748395,0.07470511237233876,-0.5508413000114262
1772025756721191400,5.22619140625,-0.40257600751817224,0.250807821470499,-0.554305907382071
1772025756731188200,5.236188232421875,-0.344287484678626,0.3485623855188489,-0.5964714898731559
1772025756741185500,5.246185546875,-0.2536602882921696,0.4398454154655337,-0.5933803189247846
1772025756751183400,5.256183349609375,-0.1899672760605812,0.5757298036828636,-0.5539757986448705
1772025756761180400,5.266180419921875,-0.09189970054030418,0.7126496724277734,-0.5105192995604128
1772025756771177200,5.27617724609375,0.025722470277547836,0.8148197148308157,-0.43056737257577476
1772025756781175300,5.28617529296875,0.1672270364642143,0.8849269780188799,-0.4052970299798995
1772025756791172400,5.29617236328125,0.3368482745885849,0.9248334564715623,-0.3842503694936633
1772025756801170400,5.30617041015625,0.47937283147275445,1.0241890259757638,-0.3214740337155759
1772025756811167200,5.316167236328125,0.6098235042035579,1.1176277726516126,-0.23730799616724252
1772025756821164300,5.326164306640625,0.7390916891515255,1.0687135196179152,-0.1267844053082168
1772025756831161300,5.336161376953125,0.7994102565139531,0.9126391608089208,-0.030931875488907096
1772025756841158400,5.346158447265625,0.8122796749591827,0.778300540728867,0.06994169736281038
1772025756851156200,5.35615625,0.8047498639762402,0.7119821484297514,0.18447043220996856
1772025756861153300,5.3661533203125,0.7769587707310914,0.6520850213497876,0.2656738205604255
1772025756871150300,5.376150390625,0.6864502322882413,0.5622784936964511,0.3280702171102166
1772025756881148400,5.3861484375,0.6193214003890752,0.45507367199659343,0.44760450515970585
1772025756891145200,5.396145263671875,0.6267629485666751,0.34696751754283905,0.5852355909138918
1772025756901143300,5.406143310546875,0.5194622652769089,0.19390490777045488,0.761870287996903
1772025756911140400,5.416140380859375,0.4588023371309042,-0.003276245191693306,0.9152041889913379
1772025756921137400,5.426137451171875,0.3700999713271856,-0.06505670180022716,0.8828015833627432
1772025756931135500,5.436135498046875,0.32133857076764105,-0.005445113663375378,0.8412267333064227
1772025756941132300,5.44613232421875,0.2788105116397142,0.053125733248889445,0.7485388780631125
1772025756951129300,5.45612939453125,0.10031973836123943,0.0957370867460966,0.690352135097608
1772025756961127200,5.466127197265625,-0.11907003153860568,0.15613105743229388,0.6276051715444773
1772025756971124500,5.47612451171875,-0.2365828967630863,0.264282512332499,0.5302018320865929
1772025756981121300,5.486121337890625,-0.21824118438661097,0.403723423987627,0.36120537479706105
1772025756991119400,5.496119384765625,-0.1260188277631998,0.5412500264540314,0.21670308809913694
1772025757001116200,5.5061162109375,0.08215396707355975,0.6497519022271037,0.12804602274186908
1772025757011114200,5.5161142578125,0.27796763107478617,0.6396960798978805,0.08393084055297076
1772025757021111300,5.526111328125,0.4645733217477798,0.5658136820852756,0.05212115931622684
1772025757031108400,5.5361083984375,0.6196557469099759,0.5313254292890429,0.038672845004498954
1772025757041106200,5.546106201171875,0.7162842295378447,0.4801967150762677,0.10411847305707633
1772025757051103200,5.556103271484375,0.736522715446353,0.38505057996064423,0.2703426891542971
1772025757061100300,5.566100341796875,0.6480553274422883,0.236706523142755,0.5266719043947756
1772025757071098400,5.576098388671875,0.6027659869074821,0.055119537414610384,0.7306409639313817
1772025757081095200,5.58609521484375,0.6332189928382634,-0.14659867445528507,0.8198878118753433
1772025757091092200,5.59609228515625,0.605707301056385,-0.30706863787472244,0.8562574945040047
1772025757101090300,5.60609033203125,0.5949240412354468,-0.42600101450830696,0.91686496181041
1772025757111087400,5.61608740234375,0.6313228038281202,-0.5428104076385498,0.9705017133213579
1772025757121084400,5.62608447265625,0.6440174502283335,-0.6046271046042442,1.0311123954981565
1772025757131082200,5.636082275390625,0.5878168395787478,-0.607669248779118,1.1151948464162647
1772025757141079600,5.64607958984375,0.5028121592491865,-0.6118883277788758,1.1003257785864173
1772025757151077400,5.656077392578125,0.41643794413208957,-0.6059297116354108,1.0198825609534978
1772025757161074400,5.666074462890625,0.3374696213573217,-0.6075082129985093,0.922943478006497
1772025757171071200,5.6760712890625,0.2889554735571146,-0.6155827983826399,0.8051796336956322
1772025757181069300,5.6860693359375,0.23400573975145816,-0.5942229072287678,0.7058884346645325
1772025757191066400,5.69606640625,0.15984978569447994,-0.5320698179155587,0.6310261589691043
1772025757201063400,5.7060634765625,0.06630933220982552,-0.4901873632147908,0.5827422397281974
1772025757211061200,5.716061279296875,0.020929390782117842,-0.4438245482295751,0.5197805374458432
1772025757221058300,5.726058349609375,0.005018704944849014,-0.4289610333576798,0.45329139168970284
1772025757231055400,5.736055419921875,-0.010352467188239097,-0.4569114088177681,0.39832112655267116
1772025757241053400,5.746053466796875,-0.06150339323282242,-0.4897559860602021,0.3772465551462024
1772025757251050200,5.75605029296875,-0.16270634416937826,-0.5187754520565271,0.3711551794685423
1772025757261048300,5.76604833984375,-0.18485037143826483,-0.4948483407631516,0.3813398158092052
1772025757271045400,5.77604541015625,-0.20013737241923807,-0.46604047169089313,0.4098939293161034
1772025757281042400,5.78604248046875,-0.19265256962180136,-0.5013680979207158,0.4598845063444227
1772025757291040500,5.79604052734375,-0.18722762196362017,-0.5624482973054051,0.5067142812542617
1772025757301037300,5.806037353515625,-0.18776187497079372,-0.5688485197365284,0.5814315955210477
1772025757311034400,5.816034423828125,-0.14237258119285107,-0.567150191386044,0.627767960890755
1772025757321032200,5.8260322265625,-0.12175123344659805,-0.5573936442643403,0.6439107749834656
1772025757331029500,5.836029541015625,-0.14600830734670162,-0.5281327707275748,0.6284906491421163
1772025757341026300,5.8460263671875,-0.23617957665920256,-0.48962680672258135,0.6263373435657471
1772025757351024400,5.8560244140625,-0.30351649835109706,-0.44700142470002174,0.5831058123435825
1772025757361021200,5.866021240234375,-0.29434067372679706,-0.3786667241424322,0.4880931674145162
1772025757371019300,5.876019287109375,-0.27685119426548477,-0.29275720392763616,0.3951202846847474
1772025757381016300,5.886016357421875,-0.3024099984139204,-0.24154373404085636,0.3431850033294409
1772025757391013400,5.896013427734375,-0.3240489987701177,-0.28423516703695056,0.33283611633777616
1772025757401011200,5.90601123046875,-0.3147609459429979,-0.5163301047310233,0.45514907532036303
1772025757411008300,5.91600830078125,-0.3523427808403969,-0.962509107132256,0.6921025589615106
1772025757421005300,5.92600537109375,-0.47519466900527474,-1.1009203834787011,0.7855060151282698
1772025757431003400,5.93600341796875,-0.5440577773511409,-0.7539262701898812,0.727362526782602
1772025757441000200,5.946000244140625,-0.588254646474123,-0.6195177997440099,0.6590202274404465
1772025757450997200,5.955997314453125,-0.6574468406438827,-0.8672118731081485,0.600676796075888
1772025757460995300,5.965995361328125,-0.6932037982016801,-1.042243738104403,0.6488705893479287
1772025757470992400,5.975992431640625,-0.7719505871802568,-0.9000237171247601,0.6100745563551783
1772025757480989700,5.98598974609375,-0.711432697853446,-0.5530015467852354,0.400680877953954
1772025757490986800,5.99598681640625,-0.5329354948341846,-0.25592472609281536,0.12574176438748835
1772025757500983800,6.00598388671875,-0.3674029873281717,-0.10160773234516382,-0.08843812537696212
1772025757510982000,6.01598193359375,-0.2861439232677221,0.03937719388157129,-0.20849398961514234
1772025757520978700,6.025978759765625,-0.1861281362891197,0.24992285532951353,-0.338655689336732
1772025757530975700,6.035975830078125,-0.22107436198592184,0.49132864220440386,-0.46216688166055825
1772025757540973600,6.0459736328125,-0.18736030843257903,0.6126669109359383,-0.6580881342221051
1772025757550971000,6.055970947265625,-0.08088789266049862,0.6306599560052156,-0.7039622158423066
1772025757560967700,6.0659677734375,-0.01699029776751995,0.7602168947666883,-0.7173126958027481
1772025757570965800,6.0759658203125,0.1078279220342636,0.8842945253342389,-0.6828997001998126
1772025757580962600,6.085962646484375,0.22260522481501102,0.8773413451954722,-0.5831471672672778
1772025757590960600,6.095960693359375,0.24750936444699762,0.7814511137142777,-0.49509084428213535
1772025757600958000,6.1059580078125,0.18061492582559585,0.6994578901603817,-0.4056454415587708
1772025757610954800,6.115954833984375,0.05656593683063984,0.6459741372540593,-0.3350627063460648
1772025757620952800,6.125952880859375,-0.016814356678724288,0.5810749641031027,-0.3386456793993711
1772025757630949600,6.13594970703125,-0.07809913872480392,0.4865808631554246,-0.37825664550419896
1772025757640947000,6.145947021484375,-0.2365431492745876,0.411910822096467,-0.3962544032812118
1772025757650944800,6.15594482421875,-0.3423679147928953,0.38140988537073134,-0.4552002940509468
1772025757660941800,6.16594189453125,-0.31661095772385595,0.3983712493047118,-0.5544704502940178
1772025757670938600,6.175938720703125,-0.18598668199181556,0.42538580521941183,-0.7011014926489442
1772025757680936700,6.185936767578125,-0.0027951836764812466,0.42520284986793994,-0.8487748836636543
1772025757690933800,6.195933837890625,0.1931517513155937,0.415687418025732,-0.8936791704036295
1772025757700930800,6.205930908203125,0.3655307637155056,0.41725656703859565,-0.8662918356537819
1772025757710928600,6.2159287109375,0.43506314962506293,0.46922143981456754,-0.7748158404182642
1772025757720925700,6.22592578125,0.5400865356326103,0.5001566763043404,-0.6228813578929752
1772025757730923800,6.235923828125,0.6464648433804512,0.4837012160658836,-0.45203945539984847
1772025757740920800,6.2459208984375,0.6242056652992963,0.4331321815624833,-0.3639282604223117
1772025757750917600,6.255917724609375,0.6572416734606027,0.2873497919261455,-0.3283748991452157
1772025757760915700,6.265915771484375,0.7598293567538261,0.13239625384062528,-0.34092706833481784
1772025757770912800,6.275912841796875,0.8780208518922329,0.0791197139441967,-0.32547399007193745
1772025757780909800,6.285909912109375,1.0027309351444245,0.04008826476037502,-0.283562966863811
1772025757790908000,6.295907958984375,1.0393383720517158,-0.027922318409383296,-0.22950572491846977
1772025757800904700,6.30590478515625,0.9373983390122651,-0.14887743304222822,-0.17333222147151828
1772025757810901800,6.31590185546875,0.797303055101633,-0.2916498272076249,-0.16343509683534502
1772025757820899800,6.32589990234375,0.6579705722570419,-0.4263426675528288,-0.21457170209363102
1772025757830897000,6.33589697265625,0.5241501308321953,-0.5312129088252783,-0.3068471040785313
1772025757840894700,6.345894775390625,0.3707020288735628,-0.6292109262406825,-0.39329825688935816
1772025757850891800,6.355891845703125,0.247089093208313,-0.725327075432241,-0.4598698202319443
1772025757860888800,6.365888916015625,0.20214286702275275,-0.7735612372472882,-0.4833831630926579
1772025757870887000,6.375886962890625,0.11827449724674224,-0.754583272793889,-0.5322285156086087
1772025757880883700,6.3858837890625,0.05121054727733135,-0.7269900402083993,-0.5997188742965459
1772025757890880800,6.395880859375,0.04162964898347855,-0.709422234813869,-0.6746534115105867
1772025757900878600,6.405878662109375,0.015149638336896896,-0.6428612659305334,-0.6964862539384513
1772025757910876000,6.4158759765625,0.027558453533053397,-0.5418994302734732,-0.6794263980660588
1772025757920872700,6.425872802734375,0.11078209566473961,-0.48647564921528097,-0.6493978280924261
1772025757930870800,6.435870849609375,0.18517595013082028,-0.49204088212698693,-0.5911952299706638
1772025757940867600,6.44586767578125,0.1689309177726507,-0.4704506893485784,-0.5156345236822962
1772025757950865700,6.45586572265625,0.14572422970831395,-0.4394242674440145,-0.43624819469116627
1772025757960862700,6.46586279296875,0.13781915567219258,-0.4078928186267614,-0.4131874179035425
1772025757970859800,6.47585986328125,0.1224111586600542,-0.418059700115025,-0.3957337404079735
1772025757980857900,6.48585791015625,0.09256430192887782,-0.4509709128528833,-0.37954737943448125
1772025757990854700,6.495854736328125,0.04741524664759636,-0.4655637940898537,-0.349403220257163
1772025758000852000,6.50585205078125,-0.02917173394858837,-0.4898357732981443,-0.31008630519546565
1772025758010849800,6.515849853515625,-0.04977963769137859,-0.5259101262420416,-0.3016654636569321
1772025758020846800,6.525846923828125,-0.06951601929664611,-0.5282800702437758,-0.34023221793845293
1772025758030843600,6.53584375,-0.16955226454138755,-0.4972258835494518,-0.3812567406356335
1772025758040841700,6.545841796875,-0.16763444822132587,-0.45396045005768537,-0.4337317548908293
1772025758050838800,6.5558388671875,-0.14857377392053603,-0.4308566378459334,-0.46978250776343045
1772025758060836900,6.5658369140625,-0.23380583326518534,-0.39243981342911716,-0.5090099179107695
1772025758070833700,6.575833740234375,-0.31057226208150385,-0.32564298996329305,-0.5496664840783924
1772025758080830700,6.585830810546875,-0.34485271734595296,-0.289074131500721,-0.5856310199722647
1772025758090828500,6.59582861328125,-0.38977030195891854,-0.299415492773056,-0.6187292066495865
1772025758100825900,6.605825927734375,-0.43625265167057514,-0.42265199634134765,-0.5627893658280372
1772025758110822700,6.61582275390625,-0.43317865105271336,-0.7471589680120349,-0.3403839013688266
1772025758120820700,6.62582080078125,-0.4976531690508127,-0.8029372615963221,-0.20238193647563457
1772025758130817500,6.635817626953125,-0.5713245544612408,-0.5142483300209045,-0.10669541087299585
1772025758140814800,6.64581494140625,-0.534973138141632,-0.4484168444558978,-0.03879201440475881
1772025758150813000,6.65581298828125,-0.5434007747471332,-0.6118769296020269,-0.014957257569953798
1772025758160809700,6.665809814453125,-0.6443921287596225,-0.6334720908164978,0.11708828313685953
1772025758170807800,6.675807861328125,-0.6590536913186311,-0.5545113668262959,0.22436368585489688
1772025758180804600,6.6858046875,-0.5692699600189924,-0.3871127731874585,0.18816585266180336
1772025758190802000,6.695802001953125,-0.4265624477833509,-0.13957359812408685,0.1412117937851697
1772025758200799700,6.7057998046875,-0.32729484882354737,0.014060381795465945,0.19469145503826438
1772025758210796800,6.715796875,-0.3222556856125593,-0.015421441015601157,0.32249621637016535
1772025758220793600,6.725793701171875,-0.4371522308588028,-0.04403320299386978,0.46039662058502434
1772025758230791700,6.735791748046875,-0.5612403828203678,-0.006274842485785484,0.5584896228075027
1772025758240788700,6.745788818359375,-0.6553542522788047,0.004193067775666713,0.6019405689340085
1772025758250785800,6.755785888671875,-0.6965729823738336,-0.030882921780645844,0.6058027973201126
1772025758260783600,6.76578369140625,-0.6491781939923763,-0.01085252566486597,0.5955065903637558
1772025758270781000,6.775781005859375,-0.5958055002450943,0.08338000173717737,0.6584182429593056
1772025758280778800,6.78577880859375,-0.5484715021401644,0.21885317880511282,0.7062542723022401
1772025758290775800,6.79577587890625,-0.4218447716116905,0.32109102574735876,0.6376644279398024
1772025758300772600,6.805772705078125,-0.2967892359226942,0.47182139317989347,0.5239135455973446
1772025758310770700,6.815770751953125,-0.2035778682619333,0.7156660976395011,0.4470379573181271
1772025758320767700,6.825767822265625,-0.058231239694356916,1.0034151180163025,0.31372933787293733
1772025758330764800,6.835764892578125,0.24300854589641094,1.137278814060986,0.2323709781564772
1772025758340763000,6.845762939453125,0.6110568453907966,1.0717501108348368,0.1904487029019743
1772025758350759700,6.855759765625,0.9425415471196175,0.9484104391530156,0.1422055540628731
1772025758360756700,6.8657568359375,1.0978788238257169,0.8188853568345308,0.3056905544545501
1772025758370754800,6.8757548828125,1.0885627139478922,0.7335825703412294,0.6102559773366898
1772025758380752000,6.885751953125,1.0042518611013889,0.6581070581182837,0.8603207253549248
1772025758390748700,6.895748779296875,0.8581833480000496,0.5449228697478771,1.0124863132223487
1772025758400746800,6.905746826171875,0.7879787619173526,0.38738983656316994,1.1418185033172368
1772025758410743800,6.915743896484375,0.6843781021893024,0.13038754436671732,1.2958683705613017
1772025758420742000,6.925741943359375,0.5372995352625847,-0.16357698952406644,1.5657542558588087
1772025758430738700,6.93573876953125,0.3512392035126686,-0.3091907445952296,1.6501146469354628
1772025758440735700,6.94573583984375,0.31583179004490375,-0.3153188720867038,1.6884050684936343
1772025758450733600,6.955733642578125,0.21263912659585474,-0.22565292194783687,1.7001976514875887
1772025758460731000,6.96573095703125,-0.03261573692262173,-0.1709291058525443,1.656036876591295
1772025758470727700,6.975727783203125,-0.15209084213078022,-0.03830576525777578,1.5739108204379677
1772025758480729900,6.985729736328125,-0.16920038236379623,0.1918938602089882,1.40948773547858
1772025758490727000,6.995726806640625,-0.27037527624964713,0.41382951519936323,1.0393375683341175
1772025758500723700,7.0057236328125,-0.3697083416610956,0.543197945651412,0.7392313168179243
1772025758510722000,7.01572216796875,-0.23354747458994388,0.6495271535605192,0.5081323313586413
1772025758520718800,7.02571875,-0.039161213043332095,0.7287327922224998,0.3397769484516233
1772025758530717000,7.035717041015625,0.08681786723136901,0.7208744799375534,0.16910992760136723
1772025758540713700,7.045713623046875,0.3824088332802057,0.6770739166557789,-0.0288742123067379
1772025758550711000,7.0557109375,0.6688666448026895,0.6384075013920665,-0.10992029120363295
1772025758560708900,7.065708984375,0.7475023746222257,0.5708376477271319,-0.03189450997598469
1772025758570706000,7.075705810546875,0.6847177094072103,0.4006996922522783,0.277197158158943
1772025758580702700,7.08570263671875,0.6586088701605797,0.15220950007438658,0.5785196535971016
1772025758590700800,7.09570068359375,0.7099696395635604,-0.0585065495043993,0.706683968956396
1772025758600698000,7.105697998046875,0.7269020696640014,-0.2386059270232916,0.7662555173438041
1772025758610695000,7.11569482421875,0.7266431264668702,-0.42746933349519967,0.8209077295076102
1772025758620693000,7.12569287109375,0.6671949121981858,-0.6345020183861255,0.9767978908561169
1772025758630689800,7.135689697265625,0.5391670827001332,-0.8000634597256779,1.063693061107397
1772025758640687900,7.14568798828125,0.4200321692317724,-0.9255199774309992,1.1437821315404026
1772025758650685000,7.155684814453125,0.3209802588492632,-1.0120789014652372,1.1580521374985575
1772025758660682000,7.165681884765625,0.2213502563178539,-1.0333359167665244,1.0937263072561472
1772025758670679800,7.1756796875,0.1496124693185091,-0.978163772381842,0.9617517859589307
1772025758680676900,7.1856767578125,0.10985212133824825,-0.9161685039788484,0.8093583806850015
1772025758690674000,7.195673828125,0.12890811946392058,-0.8427119303628802,0.6531439558181912
1772025758700672000,7.205672119140625,0.1451069745928049,-0.7743254996180534,0.5222465622331947
1772025758710668800,7.215668701171875,0.14150982688367367,-0.6945026058405638,0.471746720508486
1772025758720665900,7.225665771484375,0.07285305476486682,-0.6355491893514991,0.4896614396445453
1772025758730663700,7.23566357421875,0.005328501546382904,-0.5700269158661365,0.5271892793323845
1772025758740661000,7.245660888671875,-0.04865969375073909,-0.5173360669031739,0.5716757790517062
1772025758750657800,7.25565771484375,-0.08963058656454086,-0.49084319677501914,0.5867380313660949
1772025758760656000,7.26565576171875,-0.16078092906475067,-0.42818508054912086,0.6200580441005528
1772025758770652700,7.275652587890625,-0.25990415111780163,-0.33668519298136235,0.6772724349025636
1772025758780650800,7.285650634765625,-0.3506488364040851,-0.3048416094750166,0.7034630341485142
1772025758790648000,7.29564794921875,-0.37851241036355493,-0.287846927793324,0.7225537382613867
1772025758800644900,7.305644775390625,-0.3431266242057085,-0.21264292598813772,0.6977793624889105
1772025758810643000,7.315642822265625,-0.3509311604768038,-0.2209761623084545,0.706402594731748
1772025758820639700,7.3256396484375,-0.3579161970585584,-0.4148804855570197,0.7864866236634552
1772025758830637000,7.335636962890625,-0.4610270274430513,-0.6414134052097797,0.8856113070212304
1772025758840635000,7.345634765625,-0.5661936213135719,-0.5167863240659236,0.8638407161746173
1772025758850632000,7.3556318359375,-0.6542606118232012,-0.19296411978900432,0.8315075955856591
1772025758860628700,7.365628662109375,-0.6899059257000685,-0.10614654481858014,0.7284191962286829
1772025758870626800,7.375626708984375,-0.7187269465148448,-0.24818390270769594,0.5793778413290157
1772025758880623900,7.385623779296875,-0.7987292885124683,-0.33973142880946394,0.5447859089625999
1772025758890622000,7.3956220703125,-0.84412033585608,-0.34182752430588004,0.573199627618119
1772025758900618800,7.40561865234375,-0.8393336861014365,-0.3127700643867254,0.502978346128948
1772025758910615800,7.41561572265625,-0.8201789037764072,-0.3124956313595176,0.47161140369102356
1772025758920614000,7.42561376953125,-0.7969149325668812,-0.3241600579291582,0.4664687070403248
1772025758930611000,7.43561083984375,-0.8588140471190213,-0.32510464530289174,0.454025478117913
1772025758940607700,7.445607666015625,-0.947176805704832,-0.2161404127150774,0.38708274337537585
1772025758950605800,7.455605712890625,-1.0025205072641372,-0.08069266234934329,0.27566877954788505
1772025758960603000,7.465602783203125,-0.9344839128702879,0.030355098514258858,0.12587344620944932
1772025758970600000,7.475599853515625,-1.0087170238167047,0.11485650549679993,0.030762071879953144
1772025758980598000,7.485597900390625,-0.7651566892564297,0.3185714441418648,-0.18742259654644874
1772025758990594800,7.4955947265625,-0.35684710652232166,0.5220572502061724,-0.4127099731175229
1772025759000593000,7.505593017578125,-0.023107319343090058,0.733876000329852,-0.7013712495010346
1772025759010590000,7.51558984375,0.21044249333441256,0.8807289418071508,-0.8546692023992538
1772025759020587000,7.5255869140625,0.4393646462112665,0.9023527445942163,-0.9987492450971156
1772025759030584800,7.535584716796875,0.6429846000492573,0.7138529107376933,-0.9516031707797199
1772025759040582000,7.545581787109375,0.6407295145988464,0.5549535576358438,-0.8674594181284307
1772025759050579000,7.555578857421875,0.5732341874748468,0.5277782582014798,-0.7869372169751674
1772025759060577000,7.565576904296875,0.6312900706022977,0.43701662178039546,-0.7178888882555067
1772025759070573800,7.57557373046875,0.6520972963094711,0.30128304021060465,-0.7016950015626847
1772025759080571000,7.58557080078125,0.5906482636123895,0.2349558800831437,-0.6592842852041125
1772025759090568700,7.595568603515625,0.5295464369177818,0.15865326938629148,-0.521423226618953
1772025759100566000,7.60556591796875,0.524357636103034,0.1591232249855995,-0.4138864330183714
1772025759110564000,7.615564208984375,0.5961515372037888,0.1837476708933711,-0.30304825978484
1772025759120561000,7.625560791015625,0.730920073133707,0.10206190585345029,-0.27095530462730677
1772025759130557700,7.6355576171875,0.7629723309546709,-0.01049655183404684,-0.2057570389319211
1772025759140555800,7.6455556640625,0.797241680303216,0.028895255094766616,-0.22545977399591355
1772025759150553000,7.655552978515625,0.8512105863779783,0.183882110927999,-0.2629571454802528
1772025759160550000,7.6655498046875,0.743374481037259,0.3263131443098187,-0.310573358060047
1772025759170548000,7.6755478515625,0.6049006608486175,0.3921367388293147,-0.39056013716235755
1772025759180544800,7.685544677734375,0.49129357089102266,0.436459864680469,-0.5235167282994836
1772025759190542000,7.6955419921875,0.3440595211416483,0.5038809575244784,-0.7467541135381907
1772025759200540000,7.705539794921875,0.22962708627581596,0.572256574614346,-0.9068259444855153
1772025759210537000,7.715536865234375,0.23103403046429155,0.5770636826351284,-0.9319150852955878
1772025759220534800,7.72553466796875,0.3917342955082655,0.5630474322423339,-0.9740553872149437
1772025759230531800,7.73553173828125,0.5316097991883755,0.551851499967277,-0.9206694686599075
1772025759240529000,7.74552880859375,0.5660469063192606,0.47045302743613715,-0.9808931973457335
1772025759250527000,7.75552685546875,0.6142436587333678,0.3488634142920375,-0.9837788357846439
1772025759260523800,7.765523681640625,0.5721078137934208,0.18935528164207935,-0.8386334288775921
1772025759270520800,7.775520751953125,0.4524538448870182,0.042967911849915975,-0.6432705773837865
1772025759280518700,7.7855185546875,0.34810733522772785,-0.12593553339391947,-0.5160838748849929
1772025759290516000,7.795515869140625,0.34746436114907264,-0.3275762961134314,-0.5164798519326373
1772025759300512800,7.8055126953125,0.33484628711640835,-0.516882770177722,-0.5215474009878933
1772025759310510800,7.8155107421875,0.26219489240348337,-0.6417480439916252,-0.5192845706224442
1772025759320507600,7.825507568359375,0.2528898884415626,-0.7004135834500194,-0.5212606199357658
1772025759330505000,7.8355048828125,0.31338205880522724,-0.7258052143380046,-0.5198723804477602
1772025759340503000,7.8455029296875,0.37190497492253777,-0.713646574510634,-0.5520204998586327
1772025759350499800,7.855499755859375,0.4698042081385851,-0.6829688199132681,-0.5906601001806557
1772025759360498000,7.865497802734375,0.5778016415208578,-0.6500450399547815,-0.5991145151952281
1772025759370494700,7.87549462890625,0.5717191067367792,-0.5945607608810067,-0.565183384825103
1772025759380492000,7.885491943359375,0.49101475394964217,-0.5235533339828252,-0.47798148671220986
1772025759390489900,7.89548974609375,0.5176332962840795,-0.4652794241905212,-0.41940329674370586
1772025759400487000,7.90548681640625,0.6113157885879278,-0.40298575736284253,-0.41667591760642825
1772025759410483700,7.915483642578125,0.5905944875985384,-0.3337096843019128,-0.3736719115298241
1772025759420482000,7.92548193359375,0.49615620849132536,-0.3218669785559177,-0.3168338797595352
1772025759430478800,7.935478759765625,0.4359118754088878,-0.35059038421511646,-0.2821800246054306
1772025759440476000,7.945475830078125,0.37381343889236446,-0.3643973757714033,-0.23588969033453613
1772025759450473700,7.9554736328125,0.2084720700442791,-0.4010843076556921,-0.14862035300862042
1772025759460471000,7.965470947265625,0.04071487222611904,-0.4529433819696307,-0.14448201109487563
1772025759470468900,7.97546875,-0.025820085433125493,-0.4597746892943978,-0.2469413187680766
1772025759480462000,7.985462158203125,-0.12669745767712592,-0.44243280161023135,-0.32814627802111207
1772025759490459000,7.995458984375,-0.3006757219672203,-0.4679924825415015,-0.3535453250305727
1772025759500457000,8.00545703125,-0.4697714749127626,-0.4777347088769078,-0.3860881793800741
1772025759510454000,8.0154541015625,-0.6377227339982986,-0.4553045581430196,-0.4287435912147164
1772025759520451000,8.025451171875,-0.750806676864624,-0.37583851497918364,-0.5360657191513106
1772025759530449000,8.035448974609375,-0.7939777100712061,-0.2924140895783901,-0.6184048700660467
1772025759540446000,8.045446044921874,-0.9283896876484156,-0.21648469610810278,-0.6677168171804397
1772025759550443000,8.055443115234375,-0.938448724848032,-0.27836627500355243,-0.6053484776813537
1772025759560441000,8.065441162109375,-0.9870435366690158,-0.5143944604933262,-0.4022496616406366
1772025759570438000,8.07543798828125,-1.2468243536680936,-0.4747872572481632,-0.33630459616594016
1772025759580436000,8.08543603515625,-1.376624453535676,-0.17163813090473412,-0.34709728140234947
1772025759590432800,8.095432861328124,-1.455849965941906,-0.1294476331681013,-0.39871765158958733
1772025759600430000,8.10543017578125,-1.5372504842996597,-0.2577110249876976,-0.373526657840237
1772025759610428000,8.115427978515624,-1.5793886673271655,-0.2746390711739659,-0.2524838649239391
1772025759620425000,8.125425048828125,-1.5573656360894441,-0.1570189461827278,-0.23349450229369104
1772025759630421800,8.135421875,-1.488546951407194,0.026143326038122177,-0.2457295683581382
1772025759640419800,8.145419921875,-1.4427204352557659,0.11276099452227353,-0.28470278454869985
1772025759650417000,8.1554169921875,-1.3461200096786021,0.05911065287739038,-0.31893793936669823
1772025759660414000,8.1654140625,-1.2920803764551878,-0.05277560463696718,-0.3310813085597008
1772025759670412000,8.175412109375,-1.1910054358124733,-0.04152560408711433,-0.419078960160166
1772025759680408800,8.185408935546874,-1.1565279966711997,0.09039309536963701,-0.4613503411132842
1772025759690407000,8.195406982421876,-1.0560983681946992,-0.1186313478603959,-0.2758450859628618
1772025759700404000,8.205404052734375,-0.9546557632833719,-0.2928422518625855,-0.16014475005306303
1772025759710401000,8.215401123046876,-0.8112859877467155,-0.12017711599767207,-0.08388780512884259
1772025759720398800,8.22539892578125,-0.5163508552581072,-0.05076280350983142,0.004630801605805754
1772025759730396200,8.235396240234374,-0.29189444961845873,0.035356267802417275,-0.022241715489700435
1772025759740393000,8.24539306640625,0.006879822641611099,0.19223580551445482,-0.022178806321322915
1772025759750391000,8.25539111328125,0.2279787345468998,0.4750120059147477,-0.07294204822257161
1772025759760387800,8.265387939453126,0.5750888754308223,0.6049652505174279,-0.0780645788680762
1772025759770385200,8.27538525390625,0.946138110306859,0.6438952851533889,-0.07702149955593049
1772025759780383000,8.285383056640624,1.271684069636464,0.6944190192103386,-0.043848055685311554
1772025759790380000,8.295380126953125,1.4100778103262186,0.6926841582417488,-0.024835896701365708
1772025759800376800,8.305376953125,1.5083967302590608,0.5783057916507125,0.054620209590345616
1772025759810375000,8.315375,1.639006392943859,0.44435997028052804,0.22036394869424403
1772025759820372000,8.3253720703125,1.5738316177219152,0.34252690474689007,0.34790560211054977
1772025759830370000,8.3353701171875,1.423102127072215,0.2007531662300229,0.5137734790507704
1772025759840367000,8.3453671875,1.286204762420058,0.05551408969014883,0.7474952872943132
1772025759850364000,8.355364013671876,1.1637871740192174,-0.14805267265588043,0.9698004331842064
1772025759860362000,8.365362060546875,1.0470306801199913,-0.3647159402012825,1.191348111770302
1772025759870359000,8.375359130859374,0.8827098864912987,-0.5851663250699639,1.4972292934261262
1772025759880356000,8.385356201171875,0.6814367880403995,-0.6525251663327216,1.6911583127245307
1772025759890354000,8.39535400390625,0.30901801837682724,-0.5372469282925129,1.801135960138589
1772025759900351000,8.40535107421875,-0.044409050568938256,-0.3744768712371587,1.7353135346628725
1772025759910348000,8.41534814453125,-0.2809785033285618,-0.17072072379887104,1.5523238425299524
1772025759920346000,8.42534619140625,-0.4095838404536247,0.07049830833226442,1.2781319306015968
1772025759930343000,8.435343017578125,-0.4128197536349296,0.354509603485465,0.8254035796221345
1772025759940341000,8.445341064453125,-0.42503626112937926,0.654408203600347,0.5236195310868322
1772025759950337800,8.455337890625,-0.33615853875875473,0.9093927262336016,0.48270796724483367
1772025759960335000,8.465335205078125,-0.10583002621531486,1.0174290303215383,0.44042898750714954
1772025759970333000,8.4753330078125,0.20829788252115247,1.0474781316265462,0.1782611292410642
1772025759980330000,8.485330078125,0.5446762015104294,1.0470786109149455,-0.01523446707613766
1772025759990326800,8.495326904296874,0.888453398579359,0.9822349673435091,-0.13014248356446623
1772025760000324900,8.505324951171875,1.1644003374814986,0.876228415517509,-0.1034465651448816
1772025760010322000,8.515322021484375,1.2003022564679384,0.7895514180615544,0.07188581716790794
1772025760020319000,8.525319091796876,0.9727122289776802,0.71773822773844,0.5204759723640978
1772025760030317000,8.535317138671875,0.8059890503823757,0.5629188374266028,0.9910765185121446
1772025760040313900,8.54531396484375,0.9097714964181184,0.36203503055423497,1.2288216639876366
1772025760050312000,8.55531201171875,0.9112515058428049,0.21590309682786463,1.2915423240557313
1772025760060309000,8.56530908203125,0.8143798621088266,0.00797083274871111,1.3400946119092405
1772025760070306000,8.57530615234375,0.7678472435146569,-0.28775486559569835,1.4923970509640871
1772025760080303900,8.585303955078125,0.645588645067811,-0.4339005355864763,1.5456594162046908
1772025760090301000,8.595301025390626,0.4929904379367828,-0.5156771937802433,1.658734298981726
1772025760100298000,8.605298095703125,0.37247313019931316,-0.6389581210121512,1.731208583562076
1772025760110296000,8.615296142578124,0.2373883679270744,-0.7711173512265086,1.6643324112497269
1772025760120292900,8.62529296875,0.027374329137802123,-0.8548577107086777,1.5760180218502877
1772025760130290000,8.6352900390625,-0.10578677159547806,-0.8741168301910162,1.4304479597903788
1772025760140288000,8.6452880859375,-0.147320558989048,-0.8331181725874542,1.2072058983765541
1772025760150285000,8.65528515625,-0.16947744573950765,-0.775296098215878,0.9888194603003561
1772025760160281900,8.66528173828125,-0.2611345696955919,-0.7383487618297339,0.8345009321827441
1772025760170280000,8.675280029296875,-0.2964490441828966,-0.7397028067871928,0.688179832559824
1772025760180277000,8.685277099609374,-0.252441560152173,-0.6890832111403346,0.624545564778149
1772025760190275000,8.695275146484375,-0.30872692647576333,-0.6300301336690783,0.5927603603955358
1772025760200272000,8.70527197265625,-0.3966173913747072,-0.5452741674035787,0.5648579887956381
1772025760210269000,8.71526904296875,-0.44192076043486594,-0.4768523730844259,0.5224825629461556
1772025760220267000,8.72526708984375,-0.48901627360880373,-0.4313599111929536,0.4576522172477096
1772025760230264000,8.73526416015625,-0.5343634818106889,-0.415569929125905,0.36861382442265744
1772025760240261000,8.74526123046875,-0.5328776271671056,-0.4094245582386851,0.2764193787194788
1772025760250259000,8.755259033203124,-0.557772998970747,-0.39450668283104895,0.23873598314374683
1772025760260256000,8.765256103515625,-0.5272235469281673,-0.3682321316286921,0.2116578604735434
1772025760270253000,8.775253173828125,-0.48450142653286454,-0.3636474341869354,0.20522081316336988
1772025760280251100,8.785251220703126,-0.4263368223339319,-0.438979446285963,0.21796404794566332
1772025760290248000,8.795248046875,-0.444173507797718,-0.6489020073994993,0.4089239152401685
1772025760300246000,8.80524609375,-0.520700282639265,-0.928655645108223,0.5782380601767451
1772025760310242800,8.815242919921875,-0.63262862572968,-0.8503609838113189,0.5968899344809353
1772025760320240000,8.825240234375,-0.6722364134967327,-0.5195028895482421,0.577846430510655
1772025760330238000,8.835238037109375,-0.6838613848388194,-0.46015345947891473,0.5034224731672555
1772025760340235000,8.845235107421875,-0.7172352466523647,-0.6158718444570899,0.4129368772085756
1772025760350231800,8.855231689453126,-0.7560393168210983,-0.6791103909194469,0.3569256516512483
1772025760360230000,8.86522998046875,-0.7235597734987735,-0.5780284360140562,0.29505824741162356
1772025760370227000,8.87522705078125,-0.6344944196015596,-0.40185704559385776,0.21659776456113902
1772025760380224000,8.88522412109375,-0.5853787987768649,-0.30624153940081594,0.19772724253758786
1772025760390222000,8.89522216796875,-0.6431909362763166,-0.31403350845128297,0.18872845498062668
1772025760400219000,8.905218994140625,-0.7406196293711662,-0.37274873227030036,0.19043829110581426
1772025760410217000,8.915217041015625,-0.8774316538274287,-0.3818836403623223,0.1739110077401623
1772025760420214000,8.925214111328126,-1.0138555557489395,-0.31879414698183534,0.09773458070624619
1772025760430211000,8.935211181640625,-1.1095488033533096,-0.23005846343040465,-0.01691387153044343
1772025760440209000,8.945208984375,-1.1210241370916365,-0.11461568247824906,-0.14879622103217988
1772025760450206000,8.9552060546875,-1.033151792371273,0.008637479963898659,-0.29125021516447885
1772025760460203000,8.965203125,-0.9468342758774757,0.1730421524837613,-0.4266205346461385
1772025760470201000,8.975201171875,-0.8625923966139555,0.37294805423468347,-0.5366906826492399
1772025760480199000,8.985198974609375,-0.8483399993777274,0.6077265319243073,-0.6330870370216667
1772025760490196000,8.995196044921874,-0.6690180359721183,0.8367971533611417,-0.8052556946065277
1772025760500194000,9.005194091796875,-0.32092531379163264,0.9309402489140629,-0.9401613009195774
1772025760510190800,9.01519091796875,0.034122049832344056,1.0477169088184832,-1.0674449609868228
1772025760520188000,9.02518798828125,0.31328970434665676,1.1187515159845351,-1.136827197835967
1772025760530186000,9.03518603515625,0.4818237317562103,1.1149185136929154,-1.0780224691025913
1772025760540183000,9.04518310546875,0.5853460655510425,1.0440469881340861,-0.9371772436074912
1772025760550180900,9.055180908203125,0.6614847178578377,0.9386758116021752,-0.7814980215959251
1772025760560178000,9.065177978515624,0.7733277207523583,0.8699687706008553,-0.7344324651688336
1772025760570175000,9.075175048828125,0.8193564814776182,0.8508984516888857,-0.7053355500221252
1772025760580173000,9.085173095703125,0.8373527414172888,0.8238008936658501,-0.6504097816139459
1772025760590169900,9.095169921875,0.8414163375943898,0.75569123403579,-0.5836565050289034
1772025760600167000,9.1051669921875,0.8398492344081402,0.6223848796129227,-0.5174108491724356
1772025760610165000,9.1151650390625,0.8755851491779089,0.5479664752274751,-0.4937872508702799
1772025760620162000,9.125162109375,0.8936229101717471,0.5337663927003741,-0.46209052848871796
1772025760630158800,9.135158935546874,0.951883960482478,0.5435010202512145,-0.4714067114317789
1772025760640157000,9.145156982421875,1.0018442154377698,0.5751169324815273,-0.5087808218626305
1772025760650154000,9.155154052734375,0.9561053775697946,0.5745838485181332,-0.5463265990659594
1772025760660152000,9.165152099609376,0.8751455887168645,0.5720166283786297,-0.6134995623677969
1772025760670148900,9.17514892578125,0.842251619374752,0.5745116600647568,-0.6886032456036657
1772025760680146000,9.18514599609375,0.8265420090675354,0.5796341176450253,-0.8018076730445027
1772025760690144000,9.19514404296875,0.7928145115107298,0.5417547611057758,-0.873069440029934
1772025760700141000,9.20514111328125,0.7596434787929057,0.4608715446203947,-0.8729174643386155
1772025760710137900,9.215137939453125,0.8287854040801524,0.3410109472259879,-0.8500202075496316
1772025760720136000,9.225135986328125,0.9202724321663379,0.23526479990184307,-0.7800178660407662
1772025760730133000,9.235133056640626,0.9230354671388864,0.11773761389106512,-0.6850164000928401
1772025760740130000,9.245130126953125,0.9014210167020559,-0.03770283092856407,-0.5528033938646316
1772025760750128000,9.255128173828124,0.8400643384635448,-0.19726386280953884,-0.40165472795478996
1772025760760125000,9.265125,0.7191641688883305,-0.3713701373934746,-0.27092275406457483
1772025760770123000,9.275123046875,0.5888935288995504,-0.5571534057676791,-0.1867985828965902
1772025760780119800,9.285119873046876,0.4879162034124136,-0.7755807603761553,-0.17531740393936632
1772025760790117000,9.2951171875,0.3885352072060108,-0.8843190752536058,-0.202669740441069
1772025760800115000,9.305114990234374,0.22717910860180854,-0.9084390787705778,-0.26401940441690386
1772025760810112000,9.315112060546875,0.09248071529865265,-0.9710232529774308,-0.2879590829309076
1772025760820108800,9.32510888671875,0.053119595769047734,-0.9659908117681741,-0.320046192869544
1772025760830107000,9.33510693359375,0.0405728334069252,-0.868781314381957,-0.40494003323577343
1772025760840104000,9.34510400390625,0.008466799572110176,-0.8419728024333715,-0.5077874634437263
1772025760850101000,9.35510107421875,-0.03900514569878578,-0.8328694585233927,-0.6125528561022132
1772025760860099000,9.36509912109375,-0.056443187233805654,-0.7745105007961391,-0.6561974251046776
1772025760870096000,9.375095947265624,-0.10136427897810936,-0.6688058545261621,-0.6432777377769351
1772025760880094000,9.385093994140625,-0.10506547158360481,-0.6477139666587114,-0.6846140298370271
1772025760890091000,9.395091064453124,-0.10832827277183532,-0.6480714017942547,-0.6945264251075685
1772025760900088000,9.405088134765625,-0.12007599371075629,-0.6281383285731077,-0.6810303261313587
1772025760910086000,9.4150859375,-0.1330640700995922,-0.6228482593409717,-0.6472920879848301
1772025760920083000,9.4250830078125,-0.17541794170439243,-0.6245211609892547,-0.5966027150373906
1772025760930080000,9.435080078125,-0.23927228197753428,-0.5944125845819711,-0.5636472978316247
1772025760940078000,9.445078125,-0.31136604280769825,-0.5499433282583952,-0.5358003096807747
1772025760950075000,9.455074951171875,-0.37833179309964177,-0.500219658537954,-0.453218326453492
1772025760960072000,9.465072021484374,-0.5057464591354132,-0.43810529379993673,-0.45582507488578555
1772025760970069800,9.47506982421875,-0.4915677116572857,-0.4337731098145246,-0.5148194809723645
1772025760980067000,9.485067138671875,-0.5097592019081115,-0.4441808143213391,-0.55163836867325
1772025760990063900,9.49506396484375,-0.7006225500255823,-0.40931671395003794,-0.6077333269912749
1772025761000062000,9.50506201171875,-0.7815151188611984,-0.34326953980773683,-0.6179715201500803
1772025761010058800,9.515058837890624,-0.8005997585594654,-0.32076632383763787,-0.6322326852146536
1772025761020057000,9.52505712890625,-0.8939064032882451,-0.4787184592172503,-0.5313282788332552
1772025761030054000,9.535053955078125,-1.0251549483984708,-0.8258496428892016,-0.343962052116543
1772025761040051000,9.545051025390626,-1.214271745109558,-0.8961103430733084,-0.3287467281322926
1772025761050049000,9.555049072265625,-1.3057844921588897,-0.6760115481212735,-0.3397762177992612
1772025761060046000,9.565046142578124,-1.3561644338309764,-0.5390782353729009,-0.3956822294164449
1772025761070043000,9.57504296875,-1.4870727872014045,-0.5534346775054931,-0.35856457796469327
1772025761080041000,9.585041015625,-1.5961498325139283,-0.5290379028737545,-0.2641107359621674
1772025761090038000,9.5950380859375,-1.5359569373577833,-0.35614012729674577,-0.23630130334272978
1772025761100035000,9.60503515625,-1.388355223339796,-0.14482435825914144,-0.24430413866490125
1772025761110033200,9.615033203125,-1.2427525741845369,-0.03166355076432228,-0.21047873369157313
1772025761120030000,9.625030029296875,-1.080241460326314,-0.022854221364855765,-0.1687729507319629
1772025761130028000,9.635028076171874,-0.9179080411225556,-0.004534428559243679,-0.08684387845546007
1772025761140024800,9.64502490234375,-0.8644833249270916,0.07934095547944307,0.029128625459223983
1772025761150022100,9.655022216796874,-0.839797211959958,0.1373401399835944,0.10758563771098852
1772025761160020000,9.66502001953125,-0.8066811242997646,0.11538666685074567,0.22076675734147427
1772025761170017000,9.67501708984375,-0.7193833645969628,0.16965075647979974,0.28638679211288687
1772025761180013800,9.685013916015626,-0.5214005398631095,0.28579291787296535,0.32121830538883805
1772025761190012000,9.695011962890625,-0.27003508450984953,0.42240562036484475,0.37048897064477204
1772025761200009000,9.705009033203124,-0.06597790829837322,0.5607257112964987,0.43431876099854705
1772025761210006000,9.715006103515625,0.09714636902213096,0.7605740376412868,0.39085327489003535
1772025761220003800,9.72500390625,0.3024532530337572,1.04468324021101,0.29740605264678593
1772025761230001000,9.7350009765625,0.5299316368430853,1.303603640988469,0.21535832242667674
1772025761239998000,9.744998046875,0.7499322321176528,1.4581129424378274,0.15111761318445205
1772025761249996000,9.75499609375,1.0245002838820219,1.470984406709671,0.029160481902211904
1772025761259993000,9.7649931640625,1.203447568756342,1.3445035143926738,0.061458823438733816
1772025761269991000,9.774990966796874,1.2361661815315483,1.245641281363368,0.26521438635513184
1772025761279988000,9.784988037109375,1.1170020419687032,1.1922905071869492,0.40757366967499253
1772025761289985000,9.794985107421875,1.0091823032408953,1.0787395313307642,0.4880876144565642
1772025761299983000,9.804983154296876,0.9826403332740068,0.8988573036938905,0.5417041999623179
1772025761309980000,9.81497998046875,0.951499929600954,0.6795861917376518,0.6258345816753804
1772025761319977000,9.82497705078125,0.8849363303691148,0.4772434182286262,0.7891337771713733
1772025761329974800,9.834974853515625,0.8206599652916192,0.31407530176639553,0.938417891318351
1772025761339972000,9.84497216796875,0.6852712516367435,0.15987550465762615,1.0150339518785476
1772025761349969000,9.854968994140625,0.5264624994277953,0.04651099128425121,1.0484437617883084
1772025761359967000,9.864967041015625,0.4611620519995689,0.03405366077125072,1.036729796988517
1772025761369963800,9.8749638671875,0.43955812295675273,0.10666443121284246,0.9845409061983227
1772025761379961900,9.8849619140625,0.362736164560914,0.17641951996237037,0.8911478983603417
1772025761389959000,9.894958984375,0.2553840433448553,0.2470601593747735,0.7108592818796634
1772025761399956000,9.9049560546875,0.16648352462053298,0.32398499362319705,0.5225451798535883
1772025761409954000,9.9149541015625,0.029177579167485236,0.38922289720922704,0.326404037463665
1772025761419950800,9.924950927734375,-0.016539631390571595,0.42397184676826,0.14498700147494673
1772025761429948000,9.934947998046875,0.10183189648985862,0.4720335746258497,0.022174860798567533
1772025761439946000,9.944946044921876,0.32544717513024807,0.5354889787092805,-0.10943228849098086
1772025761449944000,9.954944091796875,0.3940069166153669,0.533201452293992,-0.19858912006393073
1772025761459940900,9.96494091796875,0.4381225371956825,0.42685441646724936,-0.19585311922878026
1772025761469938000,9.97493798828125,0.5543401019126176,0.358030763348937,-0.18199556652903556
1772025761479935000,9.98493505859375,0.6629284869253635,0.3369657634884119,-0.08011427793949842
1772025761489932000,9.99493212890625,0.6962737071663141,0.2940086652934551,0.12239172330722212
1772025761499928800,10.0049287109375,0.6363800872176886,0.19871201579123735,0.3707144499637186
1772025761509927000,10.014927001953126,0.6054015961080789,0.07053834808170795,0.5407746640272438
1772025761519924000,10.024924072265625,0.6745324154794216,-0.06535100857168435,0.68669514696002
1772025761529922000,10.034922119140624,0.7153636075615882,-0.15482406648695468,0.7859161302991211
1772025761539918800,10.0449189453125,0.6614718583762645,-0.22770313247591256,0.8288412259206175
1772025761549916000,10.054916015625,0.6254746623218059,-0.3396817444488406,0.8162794121198356
1772025761559914200,10.064914306640626,0.5023474643468856,-0.42517450055629014,0.7597142059415578
1772025761569911000,10.0749111328125,0.3803063080430031,-0.5244383001238108,0.709662765571475
1772025761579907800,10.084907958984376,0.277404736495018,-0.5875289625480771,0.6684735538318752
1772025761589906000,10.094906005859375,0.13201660687327385,-0.6254629718840122,0.598223082780838
1772025761599903200,10.1049033203125,0.03864157308340072,-0.6498118157207965,0.5084314604356884
1772025761609900000,10.114900146484375,0.043335283857584,-0.6615864246666431,0.4250020665988326
1772025761619898000,10.124898193359375,0.007282558223605156,-0.6598869272723794,0.4167500788211822
1772025761629895000,10.13489501953125,-0.05640519331097602,-0.639406157040596,0.4600282256640494
1772025761639893000,10.14489306640625,-0.09986907198429107,-0.5834545527160168,0.47059199751541014
1772025761649890000,10.15489013671875,-0.16087211447954178,-0.5464022946506738,0.4852388008967042
1772025761659887000,10.16488720703125,-0.2386567804276943,-0.5558931765735149,0.5025722130134701
1772025761669885000,10.174885009765624,-0.3050450230926275,-0.5960606440499424,0.49276188987791536
1772025761679882000,10.184882080078125,-0.3623164778441191,-0.5750082114100455,0.49814168322011826
1772025761689879000,10.194879150390625,-0.4429553641796112,-0.5429533232405781,0.48329818822294474
1772025761699877000,10.204877197265626,-0.6165156953185796,-0.5513391665309667,0.4218859073396772
1772025761709874000,10.2148740234375,-0.6548159076184034,-0.534324026583135,0.33600473643653095
1772025761719871000,10.22487109375,-0.6397831736594438,-0.5136106166392564,0.2530593267243355
1772025761729868800,10.234868896484375,-0.7975508923828601,-0.49725131025165314,0.24793577316552398
1772025761739866000,10.2448662109375,-0.8035393191426992,-0.46180590286105866,0.16284085726924238
1772025761749863000,10.25486279296875,-0.7152104628264904,-0.4091135925933718,0.13057736785039306
1772025761759861000,10.264861083984375,-0.7714712792307138,-0.5141401934713125,0.2675449481945485
1772025761769857800,10.27485791015625,-0.7914578362047672,-0.7133779867023229,0.41871085750013587
1772025761779856000,10.28485595703125,-0.781805041718483,-0.5587500273093581,0.41675424353964624
1772025761789853200,10.294853271484374,-0.7870785982072352,-0.20560557469725607,0.37418475642278787
1772025761799850000,10.30485009765625,-0.760099990388751,-0.18598580520898103,0.3051611237529665
1772025761809848000,10.31484814453125,-0.6897048501700163,-0.3333782603904605,0.21661409464143216
1772025761819844900,10.324844970703126,-0.6226052443653345,-0.3306073343724012,0.1702013760998845
1772025761829842200,10.33484228515625,-0.5789361985087395,-0.2688803615167737,0.1426145001899451
1772025761839840000,10.344840087890624,-0.5311603018552065,-0.24572335781306026,0.10864325700514017
1772025761849837000,10.354837158203125,-0.458062332418561,-0.22393793472349643,0.0940148660633713
1772025761859833900,10.364833740234374,-0.4295382487237453,-0.21088789901435373,0.10336940825544297
1772025761869832000,10.37483203125,-0.44693888085782524,-0.23785803126543759,0.09797010649517178
1772025761879829000,10.3848291015625,-0.4492208543151617,-0.21575550505071878,0.0318912220403552
1772025761889827000,10.3948271484375,-0.43170390232503414,-0.08062485781013966,-0.033853827350214125
1772025761899823900,10.404823974609375,-0.4310720341622829,0.04973170689642429,-0.07226060529705136
1772025761909821000,10.414821044921876,-0.37733518327772614,0.13782850802242755,-0.20104221230447292
1772025761919819000,10.424819091796875,-0.29240356818437574,0.22592560140937565,-0.3385779113927856
1772025761929816000,10.434816162109374,-0.23577041133642196,0.33139731570631265,-0.5271144239978864
1772025761939812900,10.444812744140625,-0.12721826668083666,0.47113662578612564,-0.6833497820548713
1772025761949811000,10.45481103515625,-0.015718378135561942,0.6258133927568793,-0.7343819040253758
1772025761959808000,10.46480810546875,0.016299392893910407,0.7694727988898754,-0.8082081146713346
1772025761969805000,10.47480517578125,0.12347148136794567,0.8676952727109193,-0.9053332217097282
1772025761979803100,10.48480322265625,0.1833873131483793,0.9041463500127196,-0.9540659806966781
1772025761989800000,10.494800048828125,0.29308687427341934,0.9248080297693609,-0.9460904717728496
1772025761999797000,10.504796875,0.47065819461941716,0.9140531192600726,-0.8640501942068338
1772025762009795000,10.514795166015626,0.5453028089761733,0.8111009865686297,-0.7510293797045946
1772025762019792100,10.524792236328125,0.52371232393682,0.6665697660371661,-0.6291273396104574
1772025762029790000,10.5347900390625,0.46586511512398715,0.5272665092870593,-0.5813567767191677
1772025762039787000,10.544787109375,0.3845248025208711,0.509489737316966,-0.5354728678246959
1772025762049784000,10.5547841796875,0.3210164992064237,0.48197483066469426,-0.4711632945973426
1772025762059782100,10.5647822265625,0.3053992433577776,0.3700608083605766,-0.3999446361012757
1772025762069779000,10.574779052734375,0.3307230697065592,0.2806841965571046,-0.3647545551786199
1772025762079776000,10.58477587890625,0.4305827893406152,0.18892711935788392,-0.42398565609790384
1772025762089773800,10.59477392578125,0.5327361728698015,0.14158201533704995,-0.4771997982826084
1772025762099771100,10.604771240234374,0.5983890869975089,0.14811433971524238,-0.4987448367450386
1772025762109768000,10.614767822265625,0.6365180343836545,0.21582009471952915,-0.5213808853145688
1772025762119766000,10.62476611328125,0.6438391710519791,0.2302390806943178,-0.5529738550607115
1772025762129762800,10.6347626953125,0.5383838233679533,0.19671441223323344,-0.5209313149161636
1772025762139760000,10.644760009765625,0.42217327291369433,0.17525544461905956,-0.5475651278849691
1772025762149758200,10.65475830078125,0.3808838156700134,0.19090601821541786,-0.6030309945192188
1772025762159755000,10.664755126953125,0.41135552630126476,0.17454057434797285,-0.6683128103122115
1772025762169753000,10.674753173828124,0.49728550478219985,0.17573621387332677,-0.709360933080688
1772025762179750000,10.68475,0.6285954246908426,0.19567337874770163,-0.7376890558119863
1772025762189747200,10.694747314453124,0.7034855382412671,0.15821955414414404,-0.7427051304083317
1772025762199745000,10.7047451171875,0.6437526618123054,0.06475421172231435,-0.6721000737659633
1772025762209742000,10.7147421875,0.5328267737627029,-0.08276625375300645,-0.5950499326374381
1772025762219739000,10.72473876953125,0.46855976103544233,-0.22927724992483853,-0.5432582975365221
1772025762229737000,10.734737060546875,0.342760128980875,-0.40425913829952476,-0.41633777169324454
1772025762239734000,10.744734130859374,0.1739420239329338,-0.5578484022945165,-0.31585780126899476
1772025762249731000,10.75473095703125,0.1796633241891861,-0.6367196944355964,-0.27414244676344096
1772025762259729000,10.76472900390625,0.3402858478218317,-0.6726382722958922,-0.1820053572706878
1772025762269726000,10.774725830078125,0.5039905553787947,-0.6627545916631817,-0.05878653548955917
1772025762279723000,10.784722900390625,0.08995324264764785,-0.6928668213322758,-0.1311650315452367
1772025762289721000,10.79472119140625,-0.12277297770977019,-0.7652104652702808,-0.4221552258003503
1772025762299718000,10.8047177734375,-0.07986147222220898,-0.7397112823545933,-0.6173082339357584
1772025762309716000,10.814716064453124,-0.005281739795207977,-0.6101867845579981,-0.7111417520828545
1772025762319713000,10.824713134765625,0.003964811977744102,-0.5359329230844975,-0.8550143625751138
1772025762329710000,10.8347099609375,-0.004306172761321067,-0.4787728197529912,-0.9373246892541647
1772025762339708200,10.844708251953126,-0.006380640947818756,-0.4209706191256642,-0.8559390031393617
1772025762349705000,10.854705078125,0.1449713655143976,-0.3756213650971651,-0.7060890718031674
1772025762359702000,10.864701904296876,0.42231297364532944,-0.32602351371347904,-0.731806573644653
1772025762369699800,10.874699951171875,0.4226853140890598,-0.319768252710998,-0.749953786362335
