time,seconds_elapsed,z,y,x
1772025740040718000,0.076718017578125,-0.0349433030873537,-0.7860670830771327,1.2902265652820468
1772025740050716000,0.0867158203125,-0.20017302825450897,-0.9613675358816981,1.342949562948942
1772025740060713000,0.096712890625,-0.38146132329702376,-1.1254261714428662,1.3646242191404103
1772025740070710800,0.106710693359375,-0.5488718996345997,-1.0444447552800178,1.364287242271006
1772025740080708000,0.1167080078125,-0.7207973230481147,-0.8051587370380758,1.258013856202364
1772025740090705000,0.126704833984375,-0.7731628855794668,-0.6940344038069248,0.9752994689919053
1772025740100703000,0.136702880859375,-0.7014724448531866,-0.6542191107690334,0.7121346355777234
1772025740110699800,0.14669970703125,-0.6844394769877195,-0.5544558372467756,0.525643438129872
1772025740120697900,0.15669775390625,-0.6607897213310003,-0.4133592673391103,0.48638238144125784
1772025740130695000,0.16669482421875,-0.6484697534620761,-0.31525808181017634,0.5527870272517204
1772025740140692000,0.17669189453125,-0.6216951437830924,-0.2553837510839104,0.556366310510598
1772025740150690000,0.18668994140625,-0.4964706812679767,-0.12736059776097536,0.5064285231154412
1772025740160686800,0.196686767578125,-0.3785755387276411,-0.007727963903546333,0.45719070068318396
1772025740170685000,0.206684814453125,-0.3788584473222494,0.038787119033932685,0.48233902433458714
1772025740180682000,0.216681884765625,-0.4787696048825979,0.08502046242058277,0.553777755322121
1772025740190679000,0.226678955078125,-0.5628723679363727,0.1916077367439866,0.6031679918371141
1772025740200676900,0.2366767578125,-0.5777800142109394,0.3731526368960738,0.5545229841988534
1772025740210674000,0.246673828125,-0.5012643452852964,0.553229802583158,0.36765769274160265
1772025740220671000,0.2566708984375,-0.430027493545413,0.7112658168539404,0.11376622604206203
1772025740230669000,0.2666689453125,-0.4102852667212486,0.8447530808016658,-0.04777856353465467
1772025740240665900,0.276665771484375,-0.36524142538011073,0.9493784074023366,-0.1327129916395992
1772025740250664000,0.286663818359375,-0.24923896471858023,1.046163834157586,-0.23099483096506446
1772025740260661000,0.296660888671875,-0.12185820095241069,1.1057257379338146,-0.3237180497827008
1772025740270658000,0.306657958984375,-0.025158406654000282,1.0862591131806374,-0.35995026016943155
1772025740280656000,0.31665576171875,0.10197627339661121,1.079514022834599,-0.31001513965539634
1772025740290653000,0.32665283203125,0.24542203677892682,1.0887769412204622,-0.215110265949741
1772025740300650000,0.33664990234375,0.29414193628430363,1.0430489170074462,-0.08077160933706909
1772025740310648000,0.34664794921875,0.2665606863975525,0.9353867069289088,0.036088454534485934
1772025740320644900,0.356644775390625,0.24845862799584864,0.8395470365911721,0.08122855932433158
1772025740330643000,0.366642822265625,0.225520235478878,0.7997001793712377,0.19433942673020063
1772025740340640000,0.376639892578125,0.16974048058986663,0.7476680865779519,0.3107166024556383
1772025740350637000,0.386636962890625,0.2618541161417961,0.7103785126253962,0.32882439647838474
1772025740360635100,0.39663525390625,0.42315468516647814,0.7045400157302618,0.27476704493518916
1772025740370632000,0.4066318359375,0.45920098105967044,0.6782303932145237,0.2409577691127546
1772025740380630000,0.416630126953125,0.35932781742215153,0.6337436012342572,0.29655060486122964
1772025740390626800,0.426626708984375,0.2445166123718023,0.656293871216476,0.3341741234758869
1772025740400624000,0.4366240234375,0.20370178690254687,0.7421028536662458,0.32569019010588524
1772025740410622000,0.4466220703125,0.16274200000464914,0.8482245563045143,0.28465688131405037
1772025740420619000,0.456618896484375,0.1737988160699606,0.8831392178192734,0.23559872629763556
1772025740430615800,0.46661572265625,0.21760931622385976,0.8953951805412769,0.14849742074869574
1772025740440614000,0.47661376953125,0.22210604312121868,0.8934437542125582,0.11147736618621275
1772025740450611000,0.48661083984375,0.23633856661319733,0.8274111931174993,0.10523664516573772
1772025740460608300,0.496608154296875,0.3223340115457773,0.7853598115906119,0.13171161431102082
1772025740470605000,0.50660498046875,0.4092670295894146,0.8078773483470082,0.16254185605635865
1772025740480602400,0.516602294921875,0.40831835056245325,0.7802776860207319,0.23504881906360386
1772025740490600200,0.52660009765625,0.37561902700960637,0.6411784274101257,0.3072221479360014
1772025740500597200,0.53659716796875,0.4164841213613748,0.45082185977101324,0.3339959538973868
1772025740510595300,0.54659521484375,0.49719373484551904,0.3141460289150476,0.32718404539283363
1772025740520592100,0.556592041015625,0.49492871252298354,0.21071429601311684,0.3752264474954456
1772025740530589200,0.566589111328125,0.40372167042195795,0.07306523621082306,0.42383784512504935
1772025740540587300,0.576587158203125,0.3496130636155605,-0.052175008395314214,0.4272759298149496
1772025740550584300,0.586584228515625,0.2748743412345648,-0.14011983382999896,0.46447135921064764
1772025740560582100,0.59658203125,0.15541034194231032,-0.2117559140205383,0.5191191143950448
1772025740570579200,0.6065791015625,0.08081950359940529,-0.28001638029813763,0.465356982938759
1772025740580576300,0.616576171875,0.06472995406389236,-0.3247136001586914,0.38890816870424894
1772025740590574300,0.62657421875,0.06463876864910126,-0.3489122218698263,0.3130334280306473
1772025740600571100,0.636571044921875,0.06423018784821033,-0.33890433033555745,0.24485333351287988
1772025740610568200,0.646568115234375,0.0423287371635437,-0.33029841455370185,0.21923240564735605
1772025740620566000,0.65656591796875,0.004559270739555359,-0.3560170854389667,0.23398162822350857
1772025740630563300,0.666563232421875,-0.02200140392780304,-0.3911640944048762,0.2172552968881093
1772025740640561200,0.67656103515625,-0.023308979395031928,-0.3986041812777519,0.20447573041711
1772025740650558200,0.68655810546875,-0.02157645651400089,-0.3631713411077857,0.2571787630082108
1772025740660555000,0.696554931640625,0.026361352702975273,-0.3325935397535562,0.3320955636361614
1772025740670553000,0.706552978515625,0.0935802009731531,-0.3469327384904027,0.36465197158697993
1772025740680550100,0.716550048828125,0.07526303851604461,-0.3727253513947129,0.3808135269127786
1772025740690547200,0.726547119140625,0.03134264824688435,-0.38488282217830416,0.4075640981290489
1772025740700545300,0.736545166015625,0.011932429856061934,-0.4085726175844669,0.4083552850393578
1772025740710542000,0.7465419921875,-0.017698153775930404,-0.43456952088922257,0.3698291915617883
1772025740720540200,0.7565400390625,-0.07089198382496834,-0.45384442246258255,0.32305691899284716
1772025740730537200,0.766537109375,-0.12344517788290976,-0.48155952786207196,0.29522755783023313
1772025740740534300,0.7765341796875,-0.16293839935958385,-0.4915720955714583,0.2769854881696403
1772025740750532000,0.786531982421875,-0.15971709922552108,-0.4504726079419255,0.19290404189852997
1772025740760529200,0.796529052734375,-0.15204875655472277,-0.3814052091956138,0.11555975839532912
1772025740770526200,0.806526123046875,-0.20956863310933113,-0.3550833117201924,0.08935536808604375
1772025740780524300,0.816524169921875,-0.23222002537846564,-0.35379940938949583,0.060767370575852686
1772025740790521000,0.82652099609375,-0.2024754599779844,-0.3199164290100336,0.047215011367760594
1772025740800519200,0.836519287109375,-0.20309972935616968,-0.2867263993307948,0.035372269089147444
1772025740810516200,0.84651611328125,-0.26012159326076506,-0.27114713740497826,0.03189703072663396
1772025740820513300,0.85651318359375,-0.338250542601943,-0.26216858891844746,0.029466113785281776
1772025740830511000,0.866510986328125,-0.3906581907093525,-0.20099808090180157,-0.04520600963290781
1772025740840508200,0.876508056640625,-0.415530766159296,-0.09191431358754634,-0.11575294287987052
1772025740850506200,0.88650634765625,-0.4195604600667953,-0.009878419935703276,-0.16294249101281166
1772025740860503300,0.89650341796875,-0.4728220946550369,0.040997488559782504,-0.19232856183182448
1772025740870500400,0.906500244140625,-0.5783914241075515,0.09531213933229446,-0.20085016033109276
1772025740880498200,0.916498291015625,-0.6379986283302307,0.17986293841451406,-0.19714867546465248
1772025740890495200,0.9264951171875,-0.627550299552083,0.20333587619960306,-0.1824522607879713
1772025740900492300,0.9364921875,-0.6310539237588644,0.1075017588198185,-0.1176321807552129
1772025740910490400,0.946490478515625,-0.773209062808752,0.05067395618259907,-0.06750745595321059
1772025740920487200,0.956487060546875,-0.9109329414129257,0.19011019166260956,-0.0714960141327232
1772025740930485200,0.9664853515625,-0.9822487036079168,0.31307752290070057,-0.07673544915616512
1772025740940482000,0.97648193359375,-1.0633633907616138,0.30038696815371513,-0.10023132942542433
1772025740950479400,0.986479248046875,-1.0029583141595124,0.23518793527334927,-0.17944500526338814
1772025740960477200,0.996477294921875,-0.8885890076577663,0.15134177732914686,-0.187338461926952
1772025740970474200,1.00647412109375,-0.9003244536370039,0.1126318151846528,-0.15557663841992617
1772025740980471000,1.016470947265625,-0.8772370080381632,0.16225655457526444,-0.12000943128056824
1772025740990469000,1.02646923828125,-0.7674316484510898,0.1557268605455756,-0.07312551503069699
1772025741000466200,1.036466064453125,-0.7178156768888234,0.009348843103647232,0.07923121149465441
1772025741010464300,1.04646435546875,-0.8245335918545722,-0.11405571050792931,0.21115889797545967
1772025741020461300,1.05646142578125,-0.9233277280837296,-0.15124942287057638,0.2555027743536979
1772025741030458000,1.0664580078125,-0.8741904799491167,-0.09342910206466913,0.3213450735736638
1772025741040456200,1.076456298828125,-0.7671843956917523,-0.005133563496172428,0.3415332905996591
1772025741050453200,1.086453369140625,-0.6302566359013319,0.06257014568150043,0.3649791942473501
1772025741060450300,1.0964501953125,-0.45080841576755043,0.1743935670927167,0.3561129470288753
1772025741070448000,1.1064482421875,-0.2515542559236288,0.33951340214461084,0.3272526901822537
1772025741080445200,1.116445068359375,-0.04581833284497261,0.5319511599719524,0.2930813213154673
1772025741090443000,1.126443115234375,0.18076690151691435,0.6750435798719525,0.256379995579645
1772025741100440300,1.1364404296875,0.4160416382908821,0.7444625685349107,0.21063991560265422
1772025741110437000,1.14643701171875,0.6283773980259895,0.8061752206042408,0.1731115644581616
1772025741120435200,1.156435302734375,0.814979581567645,0.8527718443453312,0.19218064126111567
1772025741130432300,1.166432373046875,0.9415916990488767,0.8985986527577042,0.22921054136417804
1772025741140430300,1.176430419921875,1.0809206747621298,0.9592883915200829,0.2526595868170261
1772025741150427100,1.18642724609375,1.21264560521245,0.9733619250580667,0.3043616439383477
1772025741160424200,1.196424072265625,1.3610492832630872,0.931117359046638,0.3731170541260391
1772025741170422300,1.20642236328125,1.4651426949441433,0.8573039348170161,0.49056372224651273
1772025741180419300,1.21641943359375,1.5031097297668456,0.7464432209581137,0.6242555688556284
1772025741190416100,1.226416015625,1.4597317758113144,0.660247577278316,0.7513543008100241
1772025741200414200,1.236414306640625,1.3938988289415835,0.5837964980214834,0.8735105348609388
1772025741210411300,1.246411376953125,1.385402803274989,0.4694084868192672,0.9680309392936527
1772025741220409000,1.2564091796875,1.4293699552953243,0.35074294442832465,1.0320986300565302
1772025741230406400,1.266406494140625,1.3009119176864623,0.1886988635599613,1.155365017306432
1772025741240403200,1.2764033203125,1.0380664524197578,-0.0011845336094498634,1.2672238753572105
1772025741250401300,1.2864013671875,0.8203992685288191,-0.18098288235515356,1.372183548478782
1772025741260398000,1.296398193359375,0.6628823096960783,-0.3372913421809673,1.481372529733181
1772025741270395400,1.3063955078125,0.4962643450409174,-0.4670736141309142,1.5172405464500187
1772025741280393200,1.316393310546875,0.2477414196372032,-0.5566302586764097,1.5858457345120607
1772025741290390300,1.326390380859375,0.05615618698596954,-0.5267907084688545,1.5237494899526238
1772025741300388000,1.33638818359375,-0.11481588122546672,-0.44673985115438697,1.4546288997143506
1772025741310385200,1.34638525390625,-0.2721855405420065,-0.3167071115747094,1.3821476008713245
1772025741320382200,1.35638232421875,-0.4341232384264469,-0.17604396464824676,1.2092916186094282
1772025741330380300,1.36638037109375,-0.5573457134693861,-0.07206745734512805,0.986061759090051
1772025741340377000,1.376377197265625,-0.5427811815440654,0.03355681716501713,0.7697230473238974
1772025741350374100,1.3863740234375,-0.3227899386197328,0.18099106566160916,0.599668970740214
1772025741360372200,1.396372314453125,-0.12297697584927081,0.2902408371925354,0.5621433960746973
1772025741370369300,1.406369384765625,0.06053776307106018,0.293639539720118,0.46495859473831946
1772025741380367400,1.416367431640625,0.2192547453433275,0.22155776158869264,0.4649308299485594
1772025741390364200,1.4263642578125,0.3228174111485481,0.1521712138906121,0.502787390134111
1772025741400361200,1.436361328125,0.4408662829458713,0.11539806502759456,0.5479257778909057
1772025741410359000,1.446359130859375,0.49187809278070926,0.02061404122263193,0.6919711876668035
1772025741420356400,1.4563564453125,0.4636801723003387,-0.12961392964571714,0.8528329999480396
1772025741430353200,1.466353271484375,0.3546101412504911,-0.3170955263704061,1.0545246160719544
1772025741440351200,1.476351318359375,0.2531283733725548,-0.5181619963333011,1.1772428679198026
1772025741450348000,1.48634814453125,0.18768705616891382,-0.7147761630624532,1.214012436586246
1772025741460346600,1.4963466796875,0.16164309885203837,-0.8456482760757207,1.2864601984858512
1772025741470344000,1.506343994140625,0.0884960295766592,-0.844814163339138,1.367979667048156
1772025741480340700,1.5163408203125,-0.0594867927134037,-0.8061819426059722,1.38800246437937
1772025741490338800,1.5263388671875,-0.0810106422573328,-0.8070201469957828,1.412570796185732
1772025741500335600,1.536335693359375,-0.0687760145843029,-0.7461600201025604,1.348048639653623
1772025741510333000,1.5463330078125,-0.04598375253975391,-0.6524117690861225,1.2305344592548906
1772025741520330800,1.556330810546875,0.03596621639430523,-0.5446595426365732,1.1114336672518401
1772025741530327800,1.566327880859375,0.015510288342833517,-0.4204351970747113,1.0270501875605433
1772025741540325600,1.57632568359375,-0.07034487133622169,-0.33820758024305103,0.9869845730233937
1772025741550322700,1.58632275390625,-0.0941863501727581,-0.33582828389108177,0.9182923642650246
1772025741560319700,1.59631982421875,-0.07129588845074177,-0.347763928617537,0.8218976173277944
1772025741570317800,1.60631787109375,-0.1280062021881342,-0.2927215480923652,0.8008477419711649
1772025741580314600,1.616314697265625,-0.2327531093418598,-0.2513201549068093,0.8878399428561329
1772025741590311700,1.626311767578125,-0.3265221108853817,-0.220438109908998,0.9723509213846177
1772025741600309500,1.6363095703125,-0.3479834165871143,-0.15274930603951214,1.0246488985724747
1772025741610306800,1.646306884765625,-0.32089842578470706,-0.0914589710354805,1.034498969196528
1772025741620305000,1.656304931640625,-0.3361491864085197,-0.08655600142478942,1.0285602267973124
1772025741630301700,1.6663017578125,-0.35866087794601914,-0.09707476509064436,1.0225147360879927
1772025741640298500,1.676298583984375,-0.3694154961943626,-0.0628790655001998,1.0543310662612317
1772025741650296600,1.686296630859375,-0.3666758420974016,-0.02966097877025604,1.0908622961271555
1772025741660294000,1.6962939453125,-0.33680560449063773,-0.04073445370942354,1.122086140299961
1772025741670290700,1.706290771484375,-0.3628600832015276,-0.06662614307403564,1.1469698947310447
1772025741680288800,1.716288818359375,-0.440574022001028,-0.13094108659625053,1.2152942200250922
1772025741690285600,1.72628564453125,-0.5281073440253734,-0.32188013029843565,1.3396801858894527
1772025741700283600,1.73628369140625,-0.596197714433074,-0.6616381548538803,1.5186017518006265
1772025741710280700,1.74628076171875,-0.7349363230377435,-0.8298612166181206,1.6106909835636616
1772025741720277800,1.75627783203125,-0.889165930762887,-0.6057683835938572,1.5350699253901838
1772025741730275600,1.766275634765625,-0.9490133734822273,-0.3279804930001497,1.4180188324585556
1772025741740272600,1.776272705078125,-0.952674818599224,-0.2674748786330223,1.304295714905858
1772025741750269700,1.786269775390625,-0.9298492388069629,-0.269467221494019,1.1639511324092746
1772025741760267800,1.796267822265625,-0.8573521578729152,-0.0675669310554862,0.9505535886615514
1772025741770264600,1.8062646484375,-0.715599169883132,0.30282968513071534,0.7450061738923192
1772025741780262700,1.8162626953125,-0.5740127706319094,0.5348065494030714,0.5964124531622975
1772025741790259700,1.826259765625,-0.4577198025912046,0.5718973859131335,0.46497642265595496
1772025741800256800,1.8362568359375,-0.42086335935890673,0.5915080953121185,0.3795299899082631
1772025741810254800,1.8462548828125,-0.4769394668459892,0.6775985250517725,0.3147499130923301
1772025741820251600,1.856251708984375,-0.6054881053477525,0.7778317541733384,0.26914602671563626
1772025741830248700,1.866248779296875,-0.7544125924021006,0.7991787858456373,0.18204072084501385
1772025741840246800,1.876246826171875,-0.8400725217700004,0.8028186036527156,0.011922241822187788
1772025741850243800,1.886243896484375,-0.7896253600805997,0.8379702887937426,-0.14586555614145472
1772025741860241700,1.89624169921875,-0.7590881829977035,0.9224497762054205,-0.24470870087780056
1772025741870238700,1.90623876953125,-0.641099516955018,1.0323232325926421,-0.33757183962278065
1772025741880235800,1.91623583984375,-0.5165870021015405,1.1360358282625675,-0.391816968823038
1772025741890233900,1.92623388671875,-0.3452525303184986,1.2030012862935662,-0.49079128392469135
1772025741900230700,1.936230712890625,-0.15783669230639932,1.2466691631063818,-0.5581267077792436
1772025741910227700,1.946227783203125,-0.09020517158210277,1.2179238378763197,-0.6217981657661498
1772025741920225500,1.9562255859375,0.0001613280415534973,1.1222703377604484,-0.7314355483751743
1772025741930222800,1.966222900390625,0.13791151013076305,0.998190369105339,-0.8044428438536823
1772025741940220700,1.976220703125,0.33749475579857824,0.8972855243325233,-0.8661248815890401
1772025741950217700,1.9862177734375,0.4700274955004453,0.8142492214664816,-0.8601875274293124
1772025741960214500,1.996214599609375,0.48912733276784415,0.7034577734515071,-0.7537526671886443
1772025741970212600,2.006212646484375,0.565531358012557,0.5560378457412123,-0.6631866994701325
1772025741980210000,2.0162099609375,0.7144277880162,0.3805664202839136,-0.54411082271263
1772025741990206700,2.026206787109375,0.7858896806836128,0.3019029256746173,-0.45168289704713965
1772025742000204800,2.036204833984375,0.755504479292035,0.2878849217161536,-0.3433782608792186
1772025742010201600,2.04620166015625,0.7366478031307458,0.277757203194499,-0.23628732961630447
1772025742020199700,2.05619970703125,0.7706570402383804,0.2684633051484823,-0.13792270737821236
1772025742030196700,2.06619677734375,0.6881465148121119,0.3083528324663639,-0.05591751939188689
1772025742040193800,2.07619384765625,0.5110317060619592,0.35049452262520786,0.0033563429568894206
1772025742050191600,2.086191650390625,0.4892424835801124,0.38811435144543643,-0.050108979243598875
1772025742060188700,2.096188720703125,0.6480740321427584,0.4497171133995056,-0.23794317053193226
1772025742070185700,2.106185791015625,0.7605506567656993,0.4743775074034929,-0.37324068050570786
1772025742080183800,2.116183837890625,0.7116530626058578,0.4688181197106838,-0.35779585861451924
1772025742090180600,2.1261806640625,0.6513344952434301,0.45467532032877206,-0.31613044419791547
1772025742100178700,2.1361787109375,0.6871154181987047,0.42733021728545423,-0.2908834824776277
1772025742110175500,2.146175537109375,0.795482853937149,0.3523801902413368,-0.2608604289293289
1772025742120172800,2.1561728515625,0.8708622123092412,0.2321609886676073,-0.26061953284554185
1772025742130171000,2.1661708984375,0.8060907571911812,0.0985913071334362,-0.16583108859378842
1772025742140167700,2.176167724609375,0.6674871731430292,-0.06115852531790733,-0.027674152334593236
1772025742150164500,2.18616455078125,0.6105471423029899,-0.216549578037858,0.06030548868514597
1772025742160162600,2.19616259765625,0.5658966841936112,-0.3562146538376808,0.1161192919742316
1772025742170159900,2.206159912109375,0.46141339641213414,-0.46979719387590885,0.14857574668191373
1772025742180157700,2.21615771484375,0.3160118227869272,-0.5412532413244248,0.16504600263070315
1772025742190154800,2.22615478515625,0.18554712153077124,-0.5888119880959392,0.18414441512599586
1772025742200151800,2.23615185546875,0.09878595292270183,-0.6077639413252472,0.22086159601807592
1772025742210150000,2.24614990234375,0.05712824688851833,-0.5893813124164938,0.19813768650200217
1772025742220146700,2.256146728515625,0.00396188936829567,-0.5441948477342724,0.16110767680108545
1772025742230143700,2.266143798828125,-0.05003741184473037,-0.5271367454275488,0.11172690223418176
1772025742240141600,2.2761416015625,-0.027009587478637694,-0.47422260910272596,0.050868748102337116
1772025742250139000,2.286138916015625,-0.008629881179332733,-0.3592436462700367,0.02795753585323691
1772025742260136700,2.29613671875,-0.07661796025633812,-0.2583624746337533,0.04569894424900412
1772025742270133800,2.3061337890625,-0.10706804357767105,-0.21924568525403737,0.03751110774874687
1772025742280130600,2.316130615234375,-0.08086451178491115,-0.157210669362545,0.030565014937892553
1772025742290128600,2.326128662109375,-0.10636018756926059,-0.08956015167683362,0.0940290772518143
1772025742300125700,2.336125732421875,-0.12629589113891124,-0.06658347297608852,0.1612200876669958
1772025742310122800,2.346122802734375,-0.0691594609439373,-0.06625409489125013,0.16211232379898427
1772025742320120800,2.356120849609375,-0.07283376554250717,-0.06020049394071102,0.16357103470731527
1772025742330117600,2.36611767578125,-0.13031097199916838,-0.07712766334414482,0.13091277381721883
1772025742340115700,2.37611572265625,-0.14885960512459276,-0.14127017290890215,0.11246460539158433
1772025742350112800,2.38611279296875,-0.19149054010510444,-0.1798147153586149,0.056907955201342696
1772025742360109800,2.39610986328125,-0.2897597756773233,-0.2047165169030428,0.005574731392413377
1772025742370107600,2.406107666015625,-0.3210568312168121,-0.262341022875905,-0.02344765721336007
1772025742380104700,2.416104736328125,-0.3265127585351467,-0.3095882194802165,-0.07529511415474116
1772025742390101800,2.426101806640625,-0.335835298153758,-0.34814883628189564,-0.14734686247408388
1772025742400099800,2.436099853515625,-0.3156973500102758,-0.3694324473291635,-0.19823077161293476
1772025742410096600,2.4460966796875,-0.26872750904262066,-0.39332711765766143,-0.2565913733080029
1772025742420094700,2.4560947265625,-0.26010171951651573,-0.3894973302364349,-0.30713041453193873
1772025742430091500,2.466091552734375,-0.266604525539279,-0.36755905467271804,-0.29810433710925277
1772025742440088800,2.4760888671875,-0.23630349529981612,-0.3406213633865118,-0.2885295762952417
1772025742450086700,2.486086669921875,-0.23978081602156162,-0.31355566180646416,-0.2954135636553168
1772025742460087000,2.496087158203125,-0.286571208769083,-0.3055480041787028,-0.3166950192781165
1772025742470084000,2.506083984375,-0.29115561394989486,-0.3149228585064411,-0.34080070200879126
1772025742480082000,2.51608203125,-0.26617899360358716,-0.2842582556515932,-0.3519470960536972
1772025742490079200,2.526079345703125,-0.27932781351208685,-0.25821079120337964,-0.35779830629993226
1772025742500076000,2.536075927734375,-0.30158056185245513,-0.3248381033211946,-0.3332792569953948
1772025742510074000,2.54607421875,-0.36027883453667164,-0.5010732066273689,-0.2565337979018688
1772025742520071000,2.55607080078125,-0.4218190526485443,-0.6559004879847169,-0.19587752301767467
1772025742530069000,2.566069091796875,-0.4867079966664314,-0.6831491449162364,-0.15033128511235117
1772025742540066000,2.576066162109375,-0.5417834026783704,-0.6862541251942516,-0.11667999459691344
1772025742550063000,2.58606298828125,-0.6016384441822767,-0.7179132920444011,-0.10645422252826392
1772025742560061000,2.59606103515625,-0.6424696362644433,-0.7487149652823806,-0.14856654046215115
1772025742570058000,2.60605810546875,-0.6664034695595502,-0.7242462944582104,-0.16812873454429209
1772025742580055000,2.616054931640625,-0.7023106492429971,-0.6328796778813004,-0.2193182390335947
1772025742590053000,2.62605322265625,-0.7042196977347135,-0.49203065299391746,-0.30192995981201526
1772025742600050000,2.6360498046875,-0.6826356424361467,-0.35227322273552414,-0.44546566650010644
1772025742610048000,2.646048095703125,-0.6058861647546291,-0.25601006628870965,-0.5243826974790543
1772025742620045300,2.65604541015625,-0.5428747050464153,-0.16382161193490027,-0.48984359127841887
1772025742630042000,2.6660419921875,-0.5160299527406692,-0.06792524297386407,-0.418811760591343
1772025742640040200,2.676040283203125,-0.4533130920648575,0.015347206735610961,-0.3057496642306447
1772025742650037000,2.686037109375,-0.3271434576541185,0.11772826154083013,-0.1920749158643186
1772025742660034300,2.696034423828125,-0.18668284756243228,0.2098939195409417,-0.07632694142051041
1772025742670032100,2.7060322265625,-0.06047405018508434,0.2777411288425326,0.05617657218687236
1772025742680029200,2.716029296875,0.013345803785324096,0.2686488908484578,0.18044029991105198
1772025742690027000,2.726027099609375,0.12935761679708957,0.25416531520485874,0.24634981914833187
1772025742700024000,2.736024169921875,0.2582873635709286,0.2728244229674339,0.3037031800296157
1772025742710021000,2.746021240234375,0.3275076147913933,0.30696868463158605,0.3295275032464415
1772025742720019200,2.756019287109375,0.3463064232856035,0.31583266682773825,0.35377778207957744
1772025742730016000,2.76601611328125,0.37257659057378767,0.267128549413383,0.3460464571751654
1772025742740013000,2.776012939453125,0.4463093507826328,0.23797464338243007,0.3463292196393013
1772025742750011000,2.786010986328125,0.4607546402424574,0.25917963623553514,0.378149933726713
1772025742760008200,2.79600830078125,0.44565410174429415,0.34117198300659657,0.38977863139584656
1772025742770006300,2.80600634765625,0.488105588504672,0.46342181362509727,0.3588426642537117
1772025742780003000,2.816003173828125,0.5941244152903556,0.5912564586386084,0.33381168337166306
1772025742790000000,2.826000244140625,0.6437351261556148,0.6649079703047871,0.37490079573765395
1772025742799998000,2.835998046875,0.7329799282729625,0.6650780661746859,0.47888212534636254
1772025742809995300,2.845995361328125,0.8704173911511898,0.6532204551205039,0.6231285375870764
1772025742819992000,2.855991943359375,0.9411217434495687,0.6594935440406203,0.7804939591199159
1772025742829990100,2.865990234375,0.887190831297636,0.6760176856011152,0.9325396469347178
1772025742839987000,2.875987060546875,0.7501075886845588,0.6389110670000314,1.0751556084293872
1772025742849985000,2.885985107421875,0.6540963611721992,0.5412503187149763,1.1955725245323032
1772025742859982000,2.895982177734375,0.5954623858958482,0.4189566489547491,1.3052248124495147
1772025742869979100,2.905979248046875,0.5167419004023075,0.2872647439911961,1.429498111719638
1772025742879977000,2.91597705078125,0.4589169034212827,0.161617672149837,1.5422485848478973
1772025742889974000,2.92597412109375,0.42702246651053427,0.08908259729295968,1.6216633362159132
1772025742899971000,2.93597119140625,0.34592648405730725,0.10944383279830217,1.6289996704533696
1772025742909969200,2.94596923828125,0.2009685625463724,0.2380640752315521,1.56394706030637
1772025742919966000,2.955966064453125,0.13359364693164824,0.429236635428667,1.4492255793660878
1772025742929963000,2.965962890625,-0.010915361768007278,0.5796694812193512,1.266614803548157
1772025742939961000,2.975961181640625,-0.16098200459480286,0.7135732170134782,1.0472966375797987
1772025742949958100,2.985958251953125,-0.19322423202991484,0.8635366917267441,0.8329645894609391
1772025742959956200,2.995956298828125,-0.1252250470370054,0.9951917718112469,0.6976805782895534
1772025742969953000,3.005953125,0.03406301312148571,1.0784726970881222,0.6338106751210987
1772025742979950000,3.0159501953125,0.20846505578160285,1.0514417745605111,0.5861920879211276
1772025742989948200,3.0259482421875,0.4260504066079855,0.9857549581632018,0.5250751367226243
1772025742999945200,3.0359453125,0.5719955855906009,0.9122402246192097,0.5192045641887932
1772025743009942000,3.04594189453125,0.6128396371543408,0.8108166166692972,0.6094982908371835
1772025743019940000,3.055940185546875,0.5611404295772314,0.672192866615951,0.8613602975357323
1772025743029937200,3.065937255859375,0.49505087759792804,0.5161334131151437,1.0985908445525914
1772025743039935200,3.075935302734375,0.5032388602286577,0.3579381166294217,1.2905740635454654
1772025743049932000,3.08593212890625,0.5232254172027111,0.21381635368168353,1.3733297959044575
1772025743059929000,3.09592919921875,0.49784781484007834,0.04475947144180536,1.3992882668949662
1772025743069927000,3.105927001953125,0.45231414415538307,-0.12636398793905973,1.4143752152591942
1772025743079924200,3.11592431640625,0.31038521507680417,-0.2974631896615028,1.4732380308553576
1772025743089921000,3.125921142578125,0.13602642703652382,-0.43460429994165894,1.4851815666273236
1772025743099919000,3.135919189453125,0.04034136273860931,-0.5393322101339697,1.4498606623992323
1772025743109916000,3.145916015625,-0.11352934854626655,-0.6001192717909812,1.4348239829175173
1772025743119914000,3.1559140625,-0.2565735453903675,-0.6162941615223885,1.3845771661058068
1772025743129911300,3.165911376953125,-0.329699571877718,-0.5711135420590638,1.2798209066018462
1772025743139908000,3.175908203125,-0.3249515005677938,-0.523861669279635,1.1354667962029577
1772025743149906200,3.18590625,-0.3676379651278257,-0.46538376134783027,1.005807712241262
1772025743159903000,3.195903076171875,-0.4634469480663538,-0.38419600895792244,0.9034726154696195
1772025743169900300,3.205900390625,-0.4763432545185089,-0.31940058844238517,0.8268754788056015
1772025743179898000,3.215898193359375,-0.4749883327782154,-0.2611985748425126,0.7852979984007775
1772025743189895200,3.225895263671875,-0.5430179129093885,-0.21213819133639333,0.7995446234833449
1772025743199892000,3.23589208984375,-0.6133382343262433,-0.1895838297009468,0.828940156250447
1772025743209890000,3.24589013671875,-0.6390250487685203,-0.12580839988291262,0.8312456567138433
1772025743219887000,3.25588720703125,-0.6389706882327795,-0.051823710739612575,0.8100896175689994
1772025743229885200,3.26588525390625,-0.6797662244796753,-0.06195756674110889,0.8040650965824723
1772025743239882000,3.275882080078125,-0.7320464468151331,-0.09452829547822475,0.8259742921821772
1772025743249879000,3.285879150390625,-0.7501870836615562,-0.10006897847056388,0.8264803420081734
1772025743259877000,3.295877197265625,-0.7518254985183477,-0.09379150563627481,0.8201664826862514
1772025743269874200,3.305874267578125,-0.7738292405337095,-0.11713584860563278,0.777267398288846
1772025743279871000,3.31587109375,-0.844864432221651,-0.16455927855968475,0.7651251981396228
1772025743289869000,3.325869140625,-0.9157318661272525,-0.25578940927535293,0.7888998222850263
1772025743299866000,3.3358662109375,-0.9624532852917909,-0.4531406581073999,0.8765870196968316
1772025743309864000,3.345864013671875,-0.9822153858602046,-0.7377823601186275,1.025447209343314
1772025743319861200,3.355861328125,-1.029039096355438,-0.8591580382511019,1.0492704218707978
1772025743329858000,3.365858154296875,-1.120948733767867,-0.6259647839263082,0.9693086310792713
1772025743339856100,3.375856201171875,-1.2254290989398955,-0.4592258232399821,0.8814105673957615
1772025743349853000,3.38585302734375,-1.320468851071596,-0.5178042689368129,0.7827559127025305
1772025743359850200,3.395850341796875,-1.3731336888104677,-0.6142836984828114,0.69984338234663
1772025743369848000,3.40584814453125,-1.293693072348833,-0.5197232543006539,0.5388001490838825
1772025743379845000,3.41584521484375,-1.1320943971604107,-0.2847247041195631,0.3423375196546316
1772025743389843000,3.425843017578125,-0.9441460597068071,-0.0657017217054963,0.19868196771284563
1772025743399840000,3.435840087890625,-0.7611649892717599,0.04420183755904436,0.14026348008438944
1772025743409837000,3.445837158203125,-0.6083271281659602,0.07225216626226902,0.14947004690682514
1772025743419835100,3.455835205078125,-0.4715934296429157,0.07794745529443026,0.16590349624287337
1772025743429832000,3.46583203125,-0.3553618364006281,0.12249591433405875,0.14119003861108795
1772025743439829000,3.4758291015625,-0.22053134115040302,0.18319705127328634,0.05955211303457617
1772025743449827000,3.4858271484375,-0.06803717891573906,0.2290609768256545,-0.08262268056385219
1772025743459823900,3.495823974609375,0.08881108687520027,0.22954583773314952,-0.178350140965078
1772025743469822000,3.505822021484375,0.3148252433508634,0.2516197223752737,-0.25561721277991306
1772025743479819000,3.515819091796875,0.4941413615375757,0.30380116051137446,-0.23140237058633936
1772025743489816000,3.525816162109375,0.6005383739858865,0.3595946516647935,-0.23255579667147247
1772025743499814100,3.535814208984375,0.6652081222951411,0.4509364260613918,-0.2537266680592671
1772025743509811000,3.54581103515625,0.7107423775017261,0.564759204596281,-0.2882028285589069
1772025743519808000,3.55580810546875,0.7636404394745826,0.6270452726393938,-0.3548084768341854
1772025743529805800,3.565805908203125,0.7592167778134346,0.6611629385575651,-0.43332521991655226
1772025743539803100,3.57580322265625,0.7534598217219114,0.723452513732016,-0.48006198278069495
1772025743549801000,3.585801025390625,0.7890478524535894,0.7574918537169695,-0.5088411372151226
1772025743559798000,3.595798095703125,0.8305576744496822,0.7740387916311621,-0.5483754213545471
1772025743569794800,3.605794921875,0.8425286827504634,0.7571580917179584,-0.5506165878774598
1772025743579793000,3.61579296875,0.802428143030405,0.7180404255554079,-0.5253842026717961
1772025743589790000,3.6257900390625,0.8011129687786102,0.7266004563689231,-0.5138363516865297
1772025743599787000,3.635787109375,0.760627813655138,0.7423422153800725,-0.469622567961365
1772025743609784800,3.645784912109375,0.7390840903669595,0.7061600181475282,-0.45086697755437344
1772025743619782000,3.655781982421875,0.7193114684045314,0.655156099358201,-0.43209096541386094
1772025743629779000,3.665779052734375,0.6040478434115648,0.6118658236861229,-0.42474867635965347
1772025743639777000,3.675777099609375,0.5373533112764358,0.6334244522824883,-0.4546824076566845
1772025743649774000,3.685774169921875,0.47162265573740003,0.6712015174910426,-0.3926883813627064
1772025743659772000,3.69577197265625,0.3385807974696159,0.6818000683948398,-0.3801445416100323
1772025743669769000,3.70576904296875,0.24048107324540613,0.6588982084959745,-0.3958323054116219
1772025743679766000,3.71576611328125,0.21838906842470168,0.6471566250368952,-0.4359401516553014
1772025743689764000,3.72576416015625,0.20637012932896612,0.6869149271905421,-0.4245177536806091
1772025743699761000,3.735760986328125,0.20401216802597044,0.6916191593587399,-0.3819743143204599
1772025743709758000,3.745758056640625,0.31947803759276866,0.5972729424491524,-0.35096086149532346
1772025743719755800,3.755755859375,0.43552433739602564,0.4978244339644909,-0.30919648021627216
1772025743729753000,3.765753173828125,0.32805648084580896,0.35812487137317656,-0.2556030563903972
1772025743739751000,3.7757509765625,0.22650398581922052,0.15831161634176968,-0.1560791445819661
1772025743749748000,3.785748046875,0.23373101446330546,-0.07155044773370027,-0.06605711101442575
1772025743759744800,3.795744873046875,0.19345628722012043,-0.2404895488128066,0.0073840093040838835
1772025743769742800,3.805742919921875,0.0966571242004633,-0.3695058048263192,0.02992879939358681
1772025743779740000,3.815739990234375,-0.0030786767929792402,-0.4774366027131676,-0.009043722677230834
1772025743789737000,3.825737060546875,-0.11047346810698508,-0.5600140558958053,-0.0778464791379869
1772025743799735000,3.835735107421875,-0.19059212996065616,-0.6304732012614608,-0.07931731887552887
1772025743809731800,3.84573193359375,-0.1799456482619047,-0.6705877695068717,0.06038527592308819
1772025743819729000,3.85572900390625,-0.10535948609411716,-0.6386985932931304,0.12855068432837724
1772025743829727000,3.86572705078125,-0.003799392282962799,-0.5848883849114179,0.11680029650833457
1772025743839724000,3.87572412109375,0.05981178688406944,-0.5601411894068121,0.02822250693235546
1772025743849721900,3.885721923828125,0.022757190731167793,-0.5212880193993449,-0.043743608930148184
1772025743859719000,3.895718994140625,-0.01760463027358055,-0.4740718024551868,-0.07683942098729311
1772025743869716000,3.905716064453125,0.015185878694057464,-0.4159297023490071,-0.11959957183804362
1772025743879714000,3.915714111328125,0.04862579148113727,-0.3562465102806687,-0.1466892388155684
1772025743889710800,3.9257109375,0.031467735931277274,-0.3638262978851795,-0.1427921583117917
1772025743899708200,3.935708251953125,0.025008184528350828,-0.4010109501585364,-0.12982216556891799
1772025743909706000,3.9457060546875,0.004830488896369934,-0.42244653689712286,-0.10562423797752707
1772025743919703000,3.955703125,-0.04720072711408138,-0.42566082276850936,-0.03094276220910251
1772025743929700900,3.965700927734375,-0.05203413861989974,-0.40444793886989355,0.0041206601265817875
1772025743939698000,3.975697998046875,-0.03614800270199776,-0.3918438933625817,-0.02782978128772229
1772025743949695000,3.985695068359375,-0.0321025267034769,-0.40756636315137146,-0.046919170226342975
1772025743959693000,3.995693115234375,-0.05267185200154781,-0.45598172675222154,-0.006998992041870951
1772025743969689900,4.00568994140625,-0.0744704268336296,-0.5148810749664903,0.028623598546534776
1772025743979687000,4.01568701171875,-0.05920096150934696,-0.5899690491765737,0.04325513129346072
1772025743989685000,4.02568505859375,-0.040833530169725414,-0.630185616491735,0.03725315093230456
1772025743999682000,4.03568212890625,-0.03733692022562027,-0.6009817338392138,0.033681831784173846
1772025744009680100,4.04568017578125,-0.04571896412372589,-0.5803720765307545,0.027433073587715625
1772025744019677000,4.055677001953125,-0.06092939273715019,-0.59380848120898,0.025809344843402502
1772025744029674000,4.065674072265625,-0.06346563321650028,-0.5987231412574648,0.021488632100075483
1772025744039671800,4.075671875,-0.05129062677621841,-0.5919789276942611,-0.0005463818363845348
1772025744049669000,4.085669189453125,-0.08796060752570628,-0.5612304459482431,-0.0038004151962697506
1772025744059666000,4.095666015625,-0.14903320812582968,-0.49798722331076856,-0.032408158586546776
1772025744069664000,4.1056640625,-0.1303279231339693,-0.40290217073261736,-0.06310023397020995
1772025744079660800,4.115660888671875,-0.10683891099691391,-0.30025632751137016,-0.08099215675257146
1772025744089659000,4.125658935546875,-0.08364332884848118,-0.2556695822879672,-0.08541106917336583
1772025744099656000,4.135656005859375,-0.09694295540452003,-0.3199111683130264,-0.03431991049200296
1772025744109653000,4.145653076171875,-0.14704057300388812,-0.48745443111956116,0.07689166263118385
1772025744119651000,4.155651123046875,-0.23103929116129873,-0.6280576645523309,0.15053243370763958
1772025744129647900,4.16564794921875,-0.35448739165365695,-0.5831085157573223,0.19082316223755477
1772025744139645000,4.17564501953125,-0.47068975880146025,-0.509015982325375,0.2171382646460086
1772025744149643000,4.18564306640625,-0.5479378336548805,-0.5718102921515703,0.17170016329027712
1772025744159640000,4.19564013671875,-0.6090285544335842,-0.6876926335647702,0.08070946735367178
1772025744169636900,4.205636962890625,-0.6478507447808981,-0.7681222610637545,0.036896190720796584
1772025744179635000,4.215635009765625,-0.7089274370342493,-0.759820296664536,-0.03320215850844979
1772025744189632000,4.225632080078125,-0.7563239789813756,-0.6406751540631056,-0.09545578558668494
1772025744199630000,4.235630126953125,-0.737639736777544,-0.522341620105505,-0.15466851059906184
1772025744209627000,4.245626953125,-0.7087403900295496,-0.48423663811683654,-0.17806567973420023
1772025744219624000,4.2556240234375,-0.7496095760345458,-0.42418285917043685,-0.1719189206074923
1772025744229621800,4.265621826171875,-0.8029343389868736,-0.3280743087634444,-0.14107421194538472
1772025744239619000,4.275619140625,-0.8123632615894079,-0.19640753824114798,-0.1386672969341278
1772025744249616000,4.285615966796875,-0.7189724457085133,-0.08002338478565216,-0.1435724585019052
1772025744259614000,4.295614013671875,-0.5380144055336713,0.05619388864785432,-0.13108290621973573
1772025744269611000,4.305611083984375,-0.3648205696195364,0.20969664340317248,-0.0598810527279973
1772025744279609000,4.315609130859375,-0.2743061859577894,0.38589199922084805,0.039832244172692294
1772025744289606000,4.32560595703125,-0.2036485954105854,0.5183145565465093,0.10777611878179014
1772025744299603000,4.33560302734375,-0.12191139244437217,0.6146738668441772,0.14240166115686295
1772025744309601000,4.34560107421875,0.02192541608214378,0.7001672074735165,0.23673640682436525
1772025744319598000,4.35559814453125,0.18589140492379663,0.821484725677967,0.3385927801683545
1772025744329595000,4.365594970703125,0.3534481117337942,0.9274261033132671,0.39783546192757785
1772025744339593000,4.375593017578125,0.5036334125041961,1.0800468145370483,0.4222133126631379
1772025744349590000,4.385590087890625,0.5378869797617196,1.2827116596072912,0.3662132660869509
1772025744359587000,4.395587158203125,0.6220628080517053,1.3779551176175475,0.2617817815579474
1772025744369585200,4.405585205078125,0.8152963924318551,1.2931406991630792,0.1848117199283093
1772025744379582000,4.41558203125,0.910501564258337,1.1778525242507456,0.18406652758419512
1772025744389580000,4.425580078125,0.9145984781831502,1.1177189580664038,0.2662200562663376
1772025744399576800,4.435576904296875,0.9392389984428882,1.0939560974240303,0.3888360167834908
1772025744409574100,4.44557421875,0.9951976170301436,1.0210697249114513,0.5308703059326857
1772025744419572000,4.455572021484375,1.0405892488956452,0.8703975174069404,0.6374738007385283
1772025744429569000,4.465569091796875,1.0067834254056214,0.6928396410644054,0.7592364323619752
1772025744439565800,4.47556591796875,0.9642261401832103,0.5396826310068369,0.9154061413042247
1772025744449564000,4.48556396484375,0.9571616086244582,0.43372927067279815,1.083786585587263
1772025744459557600,4.4955576171875,0.806107708325982,0.31045009700655934,1.251746174109727
1772025744469555500,4.505555419921875,0.5247533574223519,0.15926409476101397,1.3518331266283987
1772025744479552500,4.515552490234375,0.40396600057184695,0.22840981944054364,1.3432844939917326
1772025744489549300,4.52554931640625,0.3140770553320646,0.4080015396982431,1.2910703226298093
1772025744499547400,4.53554736328125,0.1323801794886589,0.542220625051856,1.1606301712930203
1772025744509544400,4.54554443359375,-0.03682955522537231,0.6675853728204966,0.8916648349065333
1772025744519541500,4.55554150390625,-0.09757307000160216,0.8355939150512218,0.5181744174234568
1772025744529539300,4.565539306640625,-0.049749827075004575,0.9502347319707274,0.2402520137298852
1772025744539536400,4.575536376953125,0.1586398253828287,0.9816332020580768,0.09348463164418935
1772025744549533400,4.585533447265625,0.3125052759706974,0.9312184813335538,0.042027708390355106
1772025744559531500,4.595531494140625,0.2996995704114437,0.8902396974742413,-0.12540822158418596
1772025744569528600,4.605528564453125,0.421840095436573,0.8479013156995177,-0.18402363829053936
1772025744579526400,4.6155263671875,0.5642851573437452,0.7667880898505449,-0.14124496540240944
1772025744589523500,4.6255234375,0.5571744485557079,0.6638888563901185,-0.0028911913968622683
1772025744599520500,4.6355205078125,0.479761538529396,0.48582127695977684,0.2725709596630186
1772025744609518600,4.6455185546875,0.4245072688192129,0.27939444900751115,0.487030506619066
1772025744619515400,4.655515380859375,0.46210137867629525,0.053937926414608955,0.5478400723688304
1772025744629512400,4.665512451171875,0.48508361033499237,-0.15146861857920885,0.595664338208735
1772025744639510300,4.67551025390625,0.4128893117398023,-0.29094635511338707,0.672943538852781
1772025744649507600,4.685507568359375,0.30408231554031373,-0.44756490380167957,0.7531499520551412
1772025744659505400,4.69550537109375,0.21375322531759738,-0.5799731403410434,0.9054467650867998
1772025744669502500,4.70550244140625,0.09571545943617821,-0.6530521128162742,1.0344466544874011
1772025744679499300,4.715499267578125,-0.06666705960631371,-0.6792889623567462,1.0839288436021655
1772025744689497300,4.725497314453125,-0.21544190905690191,-0.6893766411289572,1.0478647197913378
1772025744699494400,4.735494384765625,-0.3559638939470052,-0.7173515665084124,0.9158213710416108
1772025744709491500,4.745491455078125,-0.412214773479104,-0.695057901635766,0.7056969306804239
1772025744719489500,4.755489501953125,-0.40548634200692174,-0.6041346449121833,0.4959566673312336
1772025744729486600,4.765486572265625,-0.4455857126832008,-0.5138061392113566,0.40659196516126395
1772025744739483400,4.7754833984375,-0.5029729027688503,-0.44922699179500336,0.36067930509634316
1772025744749481500,4.7854814453125,-0.44505321324169633,-0.3564166061505675,0.29160679178349674
1772025744759478500,4.795478515625,-0.3936363297373056,-0.29387744012922046,0.2905132974583655
1772025744769476400,4.805476318359375,-0.3734218092262745,-0.2629971486970782,0.290170694565773
1772025744779473700,4.8154736328125,-0.3593126198530197,-0.21797844179719686,0.31764125061966475
1772025744789470500,4.825470458984375,-0.2947626985311508,-0.14068418971449137,0.3798941470455378
1772025744799468500,4.835468505859375,-0.24716391201019286,-0.09573007248342037,0.47293841451108454
1772025744809465300,4.84546533203125,-0.22413784120976923,-0.09463818559348583,0.5504244628388434
1772025744819462700,4.855462646484375,-0.2063531781941652,-0.10377017107605933,0.6621732846438885
1772025744829460500,4.86546044921875,-0.22842414022684096,-0.10379267516881227,0.717663701197505
1772025744839457500,4.87545751953125,-0.26740824313759803,-0.09502221647500991,0.7583556309394538
1772025744849455400,4.885455322265625,-0.35700492743253703,-0.09693827922940254,0.7682165152184665
1772025744859452400,4.895452392578125,-0.36914077090620995,-0.1461804490432143,0.6850935569822788
1772025744869449500,4.905449462890625,-0.34332536164820193,-0.1775719048678875,0.6283718450680374
1772025744879447600,4.915447509765625,-0.3635013037145138,-0.185495391343534,0.5916207619063556
1772025744889444400,4.9254443359375,-0.38632688350677485,-0.20449322954118251,0.5346308275099844
1772025744899441400,4.93544140625,-0.3668459379673004,-0.2621016611620784,0.5055456758663058
1772025744909439500,4.945439453125,-0.38958267043232914,-0.3395703930288553,0.5393515724215656
1772025744919436500,4.9554365234375,-0.4529845907628536,-0.5147469271928071,0.6403828931182622
1772025744929433300,4.965433349609375,-0.49500528489053247,-0.8773129958838224,0.7809820348978043
1772025744939431400,4.975431396484375,-0.6291723477959632,-0.8899968286290765,0.7469070390775799
1772025744949428500,4.985428466796875,-0.7528302916467189,-0.5643900790229439,0.6609178046900779
1772025744959426300,4.99542626953125,-0.7570534622997045,-0.4831333530500531,0.672753276977688
1772025744969423600,5.005423583984375,-0.807495363292098,-0.5470128277644515,0.5724565541658551
1772025744979420400,5.01542041015625,-0.8108546105921268,-0.6428904920250177,0.49452093543969095
1772025744989418500,5.02541845703125,-0.7176946808576583,-0.6548810818091034,0.3286545928694308
1772025744999415300,5.035415283203125,-0.5711603038102389,-0.48115094706118106,0.2631862415283918
1772025745009412600,5.04541259765625,-0.49417409476339813,-0.2968547023743391,0.23055117885079232
1772025745019410400,5.055410400390625,-0.5161895272165536,-0.19757745880335567,0.15835940100625157
1772025745029407500,5.065407470703125,-0.59413493668437,-0.11083762524425983,0.11919007772170007
1772025745039405300,5.0754052734375,-0.5657739345967769,-0.04015168538540601,0.03299169409554451
1772025745049402400,5.08540234375,-0.533884173861146,0.16286971803754566,-0.15437124468553812
1772025745059399400,5.0953994140625,-0.4228437195211649,0.3323638226509094,-0.3493537916248664
1772025745069397500,5.1053974609375,-0.22997136966884135,0.49875265472531316,-0.5385025178441778
1772025745079394600,5.11539453125,-0.014348843348026274,0.6218216927722096,-0.6458100327335298
1772025745089391400,5.125391357421875,0.16814824296236036,0.7831605479806661,-0.7007501219280063
1772025745099389400,5.135389404296875,0.2649889070361853,0.9178083801403641,-0.7440616595838219
1772025745109386500,5.145386474609375,0.40103053164184094,0.9058113606154918,-0.7586261184439063
1772025745119383600,5.155383544921875,0.5313046787619591,0.7876768563613296,-0.726154393101856
1772025745129381400,5.16538134765625,0.5936135431587696,0.6555363308474421,-0.6329244668710976
1772025745139378400,5.17537841796875,0.581240383797884,0.5423214550778269,-0.5288848677365109
1772025745149376500,5.18537646484375,0.5364695141792297,0.4585264427989721,-0.40654209813755005
1772025745159373600,5.19537353515625,0.4680675936043262,0.3604831249371171,-0.30848489788081496
1772025745169370400,5.205370361328125,0.35446517982184883,0.2745253816664219,-0.2236435914194211
1772025745179368400,5.215368408203125,0.2822451622635126,0.21040333036780356,-0.1622745286233723
1772025745189365500,5.225365478515625,0.26939327947497366,0.11646978591233491,-0.15983780299574135
1772025745199362600,5.235362548828125,0.2762403688907623,0.015490122337639332,-0.20666867388412355
1772025745209360400,5.2453603515625,0.26622458631098267,0.007511690804362297,-0.2725909795377403
1772025745219357400,5.255357421875,0.2394622515916824,0.05432429538369178,-0.3011717618558556
1772025745229354500,5.2653544921875,0.20858137563765047,0.0881929549768567,-0.32678741075806317
1772025745239352600,5.2753525390625,0.1715542520135641,0.13745879792720078,-0.33228703108765184
1772025745249349400,5.285349365234375,0.14427578446567058,0.20891893702894448,-0.343062692124024
1772025745259347500,5.295347412109375,0.13803835138082504,0.2797352252691984,-0.3949528922285884
1772025745269344500,5.305344482421875,0.17763620227575302,0.3448609006524086,-0.48013351364694534
1772025745279341600,5.315341552734375,0.23409224899113176,0.4244315732344985,-0.5376577010504902
1772025745289339600,5.325339599609375,0.29194705658853054,0.44600306131243705,-0.5630115572113543
1772025745299335400,5.33533544921875,0.34009237107634543,0.4167722906529903,-0.5612831990487873
1772025745309332500,5.34533251953125,0.39253216788768763,0.3517936225250363,-0.5232221292670816
1772025745319329500,5.35532958984375,0.371158540469408,0.2596545602709055,-0.47428617585822935
1772025745329327400,5.365327392578125,0.33143209475874896,0.1554790232643485,-0.40825164200179276
1772025745339324400,5.375324462890625,0.27133330762684343,0.03223521317243576,-0.33984760253503915
1772025745349322500,5.385322509765625,0.22394904063940047,-0.11835545352846383,-0.31558556019887324
1772025745359319600,5.395319580078125,0.1531973420679569,-0.2613090494796634,-0.30311434729099274
1772025745369316600,5.405316650390625,0.05100245748460293,-0.3786971192806959,-0.2910938738252967
1772025745379314400,5.415314453125,0.03076806322932243,-0.4764750642046332,-0.27978081797659393
1772025745389311500,5.4253115234375,0.040268882024288175,-0.5418666970476508,-0.2777437591910362
1772025745399308500,5.43530859375,0.05613865132927894,-0.5446750324666499,-0.3026640462402254
1772025745409306600,5.445306640625,0.05602350051701069,-0.5171607103362679,-0.3381986662842333
1772025745419303400,5.455303466796875,0.048426469516754146,-0.48268531702160833,-0.39391967672333117
1772025745429301500,5.465301513671875,0.09987374815940857,-0.44621524275839325,-0.45870231082253154
1772025745439298300,5.47529833984375,0.18637071287333964,-0.4101487808600068,-0.5018767780952156
1772025745449295600,5.485295654296875,0.23026363061368463,-0.374523048466444,-0.5459028206959367
1772025745459293400,5.49529345703125,0.21089082162380218,-0.3577493160590529,-0.5137815892919898
1772025745469290200,5.505290283203125,0.18124562494456767,-0.3628527766779065,-0.4878658614646643
1772025745479287000,5.515287109375,0.21913024218082428,-0.3616518764555454,-0.4867817194897681
1772025745489285000,5.52528515625,0.2894692682981491,-0.32488895672559737,-0.48491029959470033
1772025745499282200,5.5352822265625,0.33557752400040625,-0.2813350616812706,-0.45403965277373787
1772025745509279200,5.545279296875,0.29765315927565095,-0.26766221789866684,-0.4110150423005223
1772025745519277000,5.555277099609375,0.24840602102577686,-0.3286933174446225,-0.37375951674804087
1772025745529274000,5.565274169921875,0.26811025392711163,-0.4160983369141817,-0.37171361706890166
1772025745539272200,5.575272216796875,0.2812561512261629,-0.4842950903058052,-0.38335093643590806
1772025745549269200,5.585269287109375,0.242443313229084,-0.5214779890134931,-0.4027547250859439
1772025745559266300,5.595266357421875,0.18084522745013237,-0.6062570438936352,-0.43034335456155237
1772025745569264000,5.60526416015625,0.11804887179732322,-0.68802873365134,-0.42192192850112914
1772025745579261200,5.61526123046875,0.04946867204606533,-0.7750111437946557,-0.4329769179355353
1772025745589258200,5.62525830078125,0.0060690907806158064,-0.8390107377573848,-0.4143396566785872
1772025745599256300,5.63525634765625,-0.037463761475682256,-0.7969219468295574,-0.39953832032270725
1772025745609253000,5.645253173828125,-0.12729250096082687,-0.7403428582563996,-0.481263905916363
1772025745619250200,5.655250244140625,-0.21668167998492716,-0.7000082175195217,-0.5592146491464227
1772025745629248300,5.665248291015625,-0.22211597999334334,-0.7440858441770076,-0.6253936329748481
1772025745639245300,5.675245361328125,-0.22971768716871738,-0.7563017671495675,-0.613292714684084
1772025745649243100,5.6852431640625,-0.350468219140172,-0.74391341021955,-0.5653334242876619
1772025745659240200,5.695240234375,-0.41189913165867326,-0.8165402550131082,-0.4206802578769624
1772025745669237200,5.7052373046875,-0.41555531607866286,-0.9239949598208069,-0.3061382982220501
1772025745679235300,5.7152353515625,-0.46850247789025307,-0.8736705477282405,-0.2122764307633042
1772025745689232100,5.725232177734375,-0.5479319884359837,-0.6474129378855228,-0.143909946827963
1772025745699229200,5.735229248046875,-0.631973961213231,-0.48571723206341266,-0.11424977177530526
1772025745709227300,5.745227294921875,-0.7045517061680555,-0.42253129257112737,-0.12255772752389311
1772025745719224300,5.755224365234375,-0.7160147649466991,-0.32114275593459607,-0.18037381054610013
1772025745729222400,5.765222412109375,-0.7179074468255042,-0.07094020688086748,-0.2221395069994032
1772025745739219200,5.77521923828125,-0.6581248860359191,0.22648381981402635,-0.23059169352427122
1772025745749216300,5.78521630859375,-0.5630804577291012,0.4181555617049336,-0.2777295114699751
1772025745759214000,5.795214111328125,-0.4994786309123039,0.43162440734803675,-0.30203780410066244
1772025745769211400,5.80521142578125,-0.43557226819097994,0.40943244928419587,-0.37051147473752494
1772025745779208200,5.815208251953125,-0.4545253904640674,0.4146288488835096,-0.4177686082139611
1772025745789206300,5.825206298828125,-0.5101064079105854,0.41630496540218587,-0.4359371559806168
1772025745799203000,5.835203125,-0.5533031600803137,0.3720981594070792,-0.3664415949501097
1772025745809200400,5.845200439453125,-0.6114595809727906,0.2577642164796591,-0.23093904565721748
1772025745819198200,5.8551982421875,-0.6745820998400449,0.15002514177262782,-0.08840133703052996
1772025745829195300,5.8651953125,-0.7196995909392834,0.06048164896965026,0.04410203044638038
1772025745839193000,5.875193115234375,-0.7269213588863611,0.02890899135917425,0.09142492263540625
1772025745849190100,5.885190185546875,-0.7109948909580707,0.042909167400002474,0.06939896878823637
1772025745859187200,5.895187255859375,-0.6491197418034076,0.14287614680081606,-0.041941199150681494
1772025745869185300,5.905185302734375,-0.530148494464159,0.3465545528277755,-0.1936013947792351
1772025745879182000,5.91518212890625,-0.4078144926935434,0.5683171893388033,-0.33349377652890977
1772025745889179100,5.92517919921875,-0.26151100179255005,0.7450511820778251,-0.4284289723075926
1772025745899177200,5.93517724609375,-0.07698679356873035,0.8040741566717624,-0.42662871795259416
1772025745909175000,5.945175048828125,0.14548749834299088,0.8287409804165363,-0.3378502912379801
1772025745919173000,5.955173095703125,0.3333411432504654,0.8322349600121378,-0.218317099167034
1772025745929170200,5.965170166015625,0.39260698668956756,0.8324819205105304,-0.013721212968975304
1772025745939168300,5.975168212890625,0.3038520139157772,0.788815505002439,0.22729382102265952
1772025745949165000,5.9851650390625,0.23217443267107007,0.6723544869184493,0.44186603457294404
1772025745959162000,5.995162109375,0.21909692443311213,0.5790148167029023,0.5737009282037615
1772025745969160200,6.00516015625,0.14746727398335932,0.47340164810866114,0.6978662370547651
1772025745979157200,6.0151572265625,0.05775602339804172,0.3353144891500473,0.7815200142320246
1772025745989154000,6.025154052734375,0.0024450550645589825,0.2738485053181648,0.7631110818382352
1772025745999152000,6.035152099609375,-0.09432955803573131,0.22725188157707452,0.7567208693444728
1772025746009149400,6.0451494140625,-0.15584931788146494,0.15302198550105095,0.76196213099882
1772025746019146200,6.055146240234375,-0.24763912830650806,0.13844459409415721,0.7541631476856767
1772025746029144300,6.065144287109375,-0.3815314659237861,0.22782208268046378,0.6505402030605822
1772025746039141000,6.07514111328125,-0.4313023357868194,0.3632181028589606,0.5105376389347016
1772025746049139200,6.08513916015625,-0.43628538489639757,0.4399500448837876,0.41444289785735305
1772025746059136300,6.09513623046875,-0.3887298529952764,0.4565753087311983,0.2489660660613328
1772025746069133300,6.10513330078125,-0.2666378432869911,0.45873014867752787,0.03554397239424288
1772025746079131100,6.115131103515625,-0.0515741198927164,0.4874322192877531,-0.1155124121222645
1772025746089128200,6.125128173828125,0.15593991877436636,0.5021878898710013,-0.20045389102250336
1772025746099125200,6.135125244140625,0.36062194888591764,0.5016892926990986,-0.2287552718773484
1772025746109123300,6.145123291015625,0.5778133319586515,0.5122746918603778,-0.22818521690443158
1772025746119120100,6.1551201171875,0.7829372606188059,0.46977322847843167,-0.14762619087211787
1772025746129118200,6.1651181640625,0.9300035525858402,0.3757748020932078,-0.06033924482427537
1772025746139115000,6.175114990234375,1.0540297452270984,0.2277978250220418,0.08270729010738431
1772025746149112300,6.1851123046875,1.148953762024641,0.10076894343346357,0.2500930242646485
1772025746159110400,6.1951103515625,1.2210504454642535,-0.01367109021693468,0.363150663645938
1772025746169107200,6.205107177734375,1.323811147236824,-0.17797259462326764,0.44452955469377337
1772025746179104300,6.215104248046875,1.3819348349034786,-0.34113574264943597,0.5051455706328153
1772025746189102000,6.22510205078125,1.3483821093916892,-0.4871081018999219,0.6069855773638934
1772025746199099400,6.235099365234375,1.2963777813881634,-0.6641489686310291,0.6960146909039467
1772025746209096200,6.24509619140625,1.2194850958436727,-0.7863163816630839,0.7677244208525866
1772025746219094300,6.25509423828125,1.1461217534691095,-0.8595943838417529,0.8032199509952217
1772025746229091000,6.265091064453125,1.0471183584034442,-0.9020891252219676,0.7736767533857375
1772025746239089200,6.275089111328125,0.9657213471770286,-0.9353075042128562,0.7253651424203068
1772025746249086200,6.285086181640625,0.8508627958536148,-0.9761790283054113,0.6656668258480727
1772025746259083300,6.295083251953125,0.756901486608386,-0.9461518465712666,0.615345117169246
1772025746269081000,6.3050810546875,0.6761807672083378,-0.8461275840252638,0.5427536359500139
1772025746279078100,6.315078125,0.6228291162490844,-0.7406108615428209,0.4589780590239912
1772025746289075200,6.3250751953125,0.5944862343400716,-0.6591632891729474,0.36724129396043714
1772025746299073300,6.3350732421875,0.5629565390884876,-0.6125590666472911,0.28289500447437166
1772025746309070000,6.345070068359375,0.5151461556434631,-0.5966758533388375,0.21625570965781807
1772025746319067100,6.355067138671875,0.5142284562766551,-0.5621569131433963,0.21490268761366604
1772025746329065200,6.365065185546875,0.5199363125294446,-0.5261813443988561,0.2316290737479925
1772025746339062300,6.375062255859375,0.4358072459906339,-0.489375754570961,0.24614582100883126
1772025746349060400,6.385060302734375,0.32132571128606796,-0.4611415937334299,0.28433066330067813
1772025746359057200,6.39505712890625,0.21168577139377592,-0.46650078267902134,0.3077009444288909
1772025746369054200,6.40505419921875,0.0737473732560873,-0.5063578690320253,0.32634711964465674
1772025746379052300,6.41505224609375,-0.005927636483311653,-0.5114607451289892,0.37266003107354045
1772025746389049300,6.42504931640625,-0.061629649960994716,-0.4974395263001322,0.41257403524555264
1772025746399046100,6.435046142578125,-0.15468728836476803,-0.5158808996587991,0.48337819465659554
1772025746409044200,6.445044189453125,-0.1827180355846882,-0.573860502679646,0.5154645739428698
1772025746419041300,6.455041259765625,-0.2733037309169769,-0.6816784878417849,0.6179946818299591
1772025746429038300,6.465038330078125,-0.45410687279105183,-0.8236851583316922,0.7201153321333229
1772025746439036200,6.4750361328125,-0.5908148523509502,-0.8717340267077088,0.7282975426103919
1772025746449033200,6.485033203125,-0.7422235574364662,-0.8216901851221918,0.6794999016936868
1772025746459031000,6.495031005859375,-0.9114578420698642,-0.7267717212826014,0.531757281367667
1772025746469028600,6.505028564453125,-0.9668705172121524,-0.5945905714973807,0.29296854512337595
1772025746479025700,6.515025634765625,-0.9799930336356163,-0.4532309667393565,0.10157470685839652
1772025746489023700,6.525023681640625,-0.9409154072225093,-0.4073872071921825,0.022094525571353732
1772025746499020800,6.535020751953125,-0.810352506288886,-0.42724253900200126,0.02495923082008958
1772025746509017600,6.545017578125,-0.7745341739326715,-0.23113047657608984,-0.07253306556288153
1772025746519015700,6.555015625,-0.6938327437549829,-0.12460837644338607,-0.08428173634987324
1772025746529012700,6.5650126953125,-0.6248205823272466,-0.1528779008552432,-0.06408062330968678
1772025746539009800,6.575009765625,-0.6749433343678712,-0.2492278588026762,0.014900522414036095
1772025746549007600,6.585007568359375,-0.8150824574202299,-0.29612872618734837,0.12166055948846041
1772025746559004700,6.595004638671875,-0.9566390460550784,-0.29190000257641074,0.14450557463355362
1772025746569002800,6.605002685546875,-1.0580816509664057,-0.27165625597089527,0.08805120841860771
1772025746578999800,6.614999755859375,-1.1112234585672616,-0.18656535866260526,-0.011246201157569885
1772025746588996600,6.62499658203125,-1.1111048006236552,-0.05459434449672699,-0.151556698721461
1772025746598994700,6.63499462890625,-1.0646271270871162,0.09069733901321887,-0.319577625509724
1772025746608991700,6.64499169921875,-0.9473463170528411,0.2483160046547651,-0.4933879858870059
1772025746618988800,6.65498876953125,-0.7766022123783827,0.44028117653429505,-0.5956953909341246
1772025746628986600,6.664986572265625,-0.740271254324913,0.6567939296931028,-0.8069272080153226
1772025746638983700,6.674983642578125,-0.540059063103795,0.843204682315886,-1.0391381733044982
1772025746648980700,6.684980712890625,-0.2823971379548311,0.9812889186650514,-1.233910511559248
1772025746658978800,6.694978759765625,0.03161678901314735,1.006570074915886,-1.3584794327750802
1772025746668975600,6.7049755859375,0.32772271884679793,0.9628227031260729,-1.4804840564608572
1772025746678973700,6.7149736328125,0.6095867728382348,0.8920449933305382,-1.5097890614002942
1772025746688970800,6.724970703125,0.7731453499227762,0.8215446391716599,-1.3577218924060463
1772025746698967800,6.7349677734375,0.8319938447326422,0.6986945045724511,-1.1943990237735211
1772025746708966000,6.7449658203125,0.854500860095024,0.5639718536108732,-1.1153053210534154
1772025746718962700,6.754962646484375,0.8146504957437515,0.4642147175684571,-1.0527323988929391
1772025746728959700,6.764959716796875,0.7579840211480855,0.4476677796542644,-0.9833196207750589
1772025746738957600,6.77495751953125,0.6457669242441654,0.4174447830870747,-0.8383269932769238
1772025746748955000,6.784954833984375,0.5410054040431976,0.36873394367098805,-0.7266532094694673
1772025746758951700,6.79495166015625,0.4889046299278736,0.318984993378818,-0.6725930449146778
1772025746768949800,6.80494970703125,0.46403146995604033,0.32032267172336576,-0.7181361410148441
1772025746778946600,6.814946533203125,0.44394145260751244,0.39536563774794337,-0.8357341272395103
1772025746788944600,6.824944580078125,0.4672095154702663,0.4901616442516446,-0.9663523385569452
1772025746798941700,6.834941650390625,0.5011404266446828,0.5408931758403778,-1.0523942529797554
1772025746808938800,6.844938720703125,0.492576011916995,0.5672428381055593,-1.0804011809326708
1772025746818936800,6.854936767578125,0.49075347266495223,0.5442237815678119,-1.0930576872795819
1772025746828933600,6.86493359375,0.5118646497547626,0.5091524681866169,-1.0924762341298162
1772025746838930700,6.8749306640625,0.51709144449234,0.47445758690237994,-1.162284660501778
1772025746848928800,6.8849287109375,0.5788555344879627,0.34714462767541404,-1.1996509529523551
1772025746858925800,6.89492578125,0.6410258671969175,0.19558833081275223,-1.1510965462069958
1772025746868922600,6.904922607421875,0.6750473792642354,0.10055003998577594,-1.0674363392889499
1772025746878920700,6.914920654296875,0.732701111331582,-0.00046732525080442426,-0.9418085566699504
1772025746888917800,6.924917724609375,0.7634703436046838,-0.16767565701454876,-0.7754178248994053
1772025746898915800,6.934915771484375,0.7313146254092454,-0.3707052437439561,-0.6251516409125178
1772025746908912600,6.94491259765625,0.6428185958325863,-0.5502262368530034,-0.5157230056833475
1772025746918909700,6.95490966796875,0.5156827467381954,-0.6765902247920632,-0.4160550822943449
1772025746928907500,6.964907470703125,0.4071417079985141,-0.7787357172757386,-0.3233586053531617
1772025746938904800,6.97490478515625,0.3220341518163681,-0.8437617316767573,-0.2736043943639844
1772025746948901600,6.984901611328125,0.257928467130661,-0.8749719857156276,-0.27296521967761217
1772025746958899700,6.994899658203125,0.2081096664726734,-0.8735419529125094,-0.3391469069197774
1772025746968896500,7.004896484375,0.19327040925920008,-0.8263339192748069,-0.4294791389476508
1772025746978893800,7.014893798828125,0.12063012046217918,-0.7383303493902087,-0.4726826131191104
1772025746988891600,7.0248916015625,0.04829729017913341,-0.6295619316354394,-0.5493332335360348
1772025746998888700,7.034888671875,-0.02601239313483238,-0.5300073324277996,-0.6086627167958766
1772025747008886800,7.04488671875,-0.08496551736295223,-0.42618192403316496,-0.6973689550571143
1772025747018883600,7.054883544921875,-0.05302782583236694,-0.3488143144533038,-0.7779318535469472
1772025747028880600,7.064880615234375,-0.16705694059431553,-0.30523908436000347,-0.8159588018633425
1772025747038878700,7.074878662109375,-0.3571592412114143,-0.34612989767491814,-0.8179097898006439
1772025747048875800,7.084875732421875,-0.38010757060050965,-0.36157910348027944,-0.78459394178465
1772025747058872600,7.09487255859375,-0.35860125671327114,-0.3473120931968093,-0.7657260135769843
1772025747068870700,7.10487060546875,-0.41036651526391504,-0.33202187734544275,-0.7575815047618001
1772025747078867700,7.11486767578125,-0.42370413574278354,-0.3117667325630784,-0.7729978312108665
1772025747088864800,7.12486474609375,-0.458748561117053,-0.28316227710843084,-0.7620427950195968
1772025747098862600,7.134862548828125,-0.5436030193209648,-0.2730950566023588,-0.6803245890147983
1772025747108860000,7.14485986328125,-0.6140636259913445,-0.2832002710312605,-0.6810098678652197
1772025747118857700,7.154857666015625,-0.6240092659443617,-0.31200697105973957,-0.7093765690412372
1772025747128854800,7.164854736328125,-0.6171148302555084,-0.36550358344763517,-0.671300082494691
1772025747138851600,7.1748515625,-0.6501268730193376,-0.403072558863461,-0.6339821592304855
1772025747148849700,7.184849609375,-0.7102326744139195,-0.40488808385282754,-0.6173349027469753
1772025747158846700,7.1948466796875,-0.688416563925147,-0.41662469887584447,-0.6076131346777082
1772025747168843800,7.20484375,-0.6479530361115932,-0.4332411948949098,-0.5946212588965892
1772025747178841900,7.214841796875,-0.6234633224993944,-0.48373453381359577,-0.5476870006989687
1772025747188838700,7.224838623046875,-0.5913000055193901,-0.6520040650680661,-0.4382411220740527
1772025747198835700,7.234835693359375,-0.6350970616698265,-0.765465609075129,-0.3561399811662733
1772025747208833800,7.244833740234375,-0.7163385900735855,-0.6508607402518392,-0.31351839853599667
1772025747218830800,7.254830810546875,-0.7454851895809174,-0.5622536515161395,-0.2894977637402713
1772025747228828700,7.26482861328125,-0.7222422611594199,-0.6303893223702908,-0.28413090294487775
1772025747238825700,7.27482568359375,-0.7557645915329456,-0.7545943787097931,-0.2254843604478985
1772025747248822800,7.28482275390625,-0.832685918650031,-0.7936424867674708,-0.16179836247898638
1772025747258820900,7.29482080078125,-0.8743161521553993,-0.7008379463419318,-0.1652225647740066
1772025747268817700,7.304817626953125,-0.8413099546104669,-0.547101382830739,-0.23505977884903548
1772025747278814700,7.314814697265625,-0.7587544209986925,-0.40484161436259747,-0.311908698317036
1772025747288812500,7.3248125,-0.7060492512494325,-0.3020826661556959,-0.35772849246673283
1772025747298809900,7.334809814453125,-0.7100088025301694,-0.22299363961070776,-0.32905279840677976
1772025747308806700,7.344806640625,-0.7573889778643846,-0.16147621785253286,-0.2719035817954689
1772025747318804700,7.3548046875,-0.7471142520874738,-0.13230009998977182,-0.24221995280198752
1772025747328801500,7.364801513671875,-0.7069371399998664,-0.10247896222174167,-0.20063472748212516
1772025747338799600,7.374799560546875,-0.6665992843925953,-0.03194470579326152,-0.11090068054310977
1772025747348796700,7.384796630859375,-0.5755600000739097,0.09465455220639706,-0.05956694527752697
1772025747358793700,7.394793701171875,-0.48489597880840296,0.22086568767130374,-0.009555617722123861
1772025747368791800,7.404791748046875,-0.4059025215923786,0.3359431424424052,-0.009243775293976068
1772025747378788600,7.41478857421875,-0.29134558356404305,0.4700938387349248,-0.05794993853494525
1772025747388785700,7.42478564453125,-0.12250643572807311,0.6389525680541992,-0.13161504033505916
1772025747398783700,7.43478369140625,0.05049100083112716,0.8095107947677374,-0.16902546418830752
1772025747408780800,7.44478076171875,0.2578103937089443,0.9024649727970361,-0.17822803068906068
1772025747418777600,7.454777587890625,0.46962475991845126,0.9336112216889858,-0.1428365454427898
1772025747428775700,7.464775634765625,0.6072171210974454,0.9490829315871,-0.04246463850289583
1772025747438772700,7.474772705078125,0.7009557275027036,0.9293211232796311,0.11287702211737632
1772025747448770800,7.484770751953125,0.7987655288696288,0.8788409361034631,0.2418701895162463
1772025747458767600,7.494767578125,0.8829980557829141,0.8448708619624375,0.3498120933189988
1772025747468768000,7.50476806640625,0.8874626339763403,0.8264689438313245,0.47272404110804195
1772025747478766000,7.51476611328125,0.7848983315587044,0.7168129295870661,0.5796101522475481
1772025747488763100,7.52476318359375,0.711665922087431,0.5768371804028749,0.636261721535027
1772025747498760000,7.534760009765625,0.5384574731260537,0.3526759583175182,0.7792202859222889
1772025747508758000,7.544758056640625,0.5722036753833294,0.2556695822879672,0.8535445822834968
1772025747518755000,7.554755126953125,0.6007376959502697,0.22046938183009623,0.9512675821498036
1772025747528752000,7.564752197265625,0.5796574985206127,0.2520557757049799,0.9380955274961889
1772025747538750200,7.574750244140625,0.4855003744423389,0.26492490188926454,0.9150747173927724
1772025747548747000,7.5847470703125,0.3587508943170309,0.3022732202917337,0.8596199566744267
1772025747558745000,7.5947451171875,0.19636603718698023,0.34833091485053297,0.7667517033629119
1772025747568742100,7.6047421875,0.0977981109291315,0.38854748216569424,0.6777966779723763
1772025747578739200,7.6147392578125,0.05769698668718338,0.4815238720268011,0.5393852554954588
1772025747588737000,7.624737060546875,0.11381108809709549,0.5362210923761129,0.3534939967021346
1772025747598734000,7.634734130859375,0.22508184406161308,0.5378624298423529,0.2397280629210174
1772025747608731100,7.644731201171875,0.39694939980804916,0.5422822921112179,0.21163535638079045
1772025747618729200,7.654729248046875,0.5917921729505061,0.5526949650540948,0.1952005005389452
1772025747628726000,7.66472607421875,0.7374521052509546,0.5363055557891726,0.23501111740171907
1772025747638723000,7.67472314453125,0.8605114986866712,0.4815741409093141,0.2764393985942006
1772025747648721000,7.684720947265625,0.9381856899976729,0.3803314424842596,0.3800184310123324
1772025747658718200,7.69471826171875,0.9424012618660926,0.233511818754673,0.5517098995395004
1772025747668716300,7.70471630859375,0.9316378757894038,0.04642389752268791,0.705664051324129
1772025747678713000,7.714713134765625,0.9088684100985527,-0.17448182989805935,0.7729528960905969
1772025747688710000,7.7247099609375,0.8890998797893523,-0.3378489760637283,0.7703554269433021
1772025747698708000,7.7347080078125,0.8202280036151409,-0.4892305008813739,0.7727452446892857
1772025747708705300,7.744705322265625,0.7331500241428613,-0.6378975060433149,0.7909745827324688
1772025747718702000,7.7547021484375,0.6679705727458,-0.7137362986207008,0.818964413420111
1772025747728700200,7.7647001953125,0.5469634356647729,-0.7158139816775918,0.8532403386399149
1772025747738697000,7.774697021484375,0.4344014708459377,-0.7216501404851675,0.837585381129384
1772025747748694300,7.7846943359375,0.33041853380203245,-0.7704118333056569,0.7996293060921132
1772025747758692000,7.794692138671875,0.23366905514299868,-0.7809580695003271,0.6945077204070985
1772025747768689200,7.804689208984375,0.17606500743627548,-0.7336641111448406,0.5546750329554081
1772025747778687000,7.81468701171875,0.14873451744019983,-0.6627569297507405,0.42816666810959575
1772025747788684000,7.82468408203125,0.0715513245165348,-0.6309519246891141,0.35890710779204965
1772025747798681000,7.83468115234375,0.04800853636562824,-0.6273728971585631,0.3160305274873972
1772025747808679200,7.84467919921875,0.0047393034815788266,-0.6078712010920048,0.33710743698142465
1772025747818676000,7.854676025390625,-0.06855448078811169,-0.575816897444427,0.381174103853479
1772025747828673000,7.864673095703125,-0.09955226112008095,-0.5508864543274045,0.4220363486610353
1772025747838670800,7.8746708984375,-0.16823533672392368,-0.5473375296741724,0.4107753883257508
1772025747848668200,7.884668212890625,-0.3314280031055212,-0.5531187434241175,0.4373603937167674
1772025747858665000,7.8946650390625,-0.4522516003131866,-0.5525485423207283,0.4152021917920559
1772025747868663000,7.9046630859375,-0.44647477047741413,-0.5049672914564609,0.33451099074743684
1772025747878660000,7.91466015625,-0.4608996016710996,-0.5029465992838144,0.31252821845486756
1772025747888658000,7.924657958984375,-0.5270552046239376,-0.551430059684813,0.2901044243965298
1772025747898655200,7.9346552734375,-0.46636780394911764,-0.5323340218096971,0.21073716543205082
1772025747908652000,7.944652099609375,-0.4216670769572258,-0.4587357016354799,0.19717333498187362
1772025747918650000,7.954650146484375,-0.4774404021054506,-0.4275236940309405,0.1884787180032581
1772025747928647200,7.964647216796875,-0.4624573525071144,-0.41901597792655226,0.17505005824007092
1772025747938644200,7.974644287109375,-0.35790333757698534,-0.4801397241920233,0.20083872562162577
1772025747948642000,7.98464208984375,-0.3174988464742899,-0.7179366729199886,0.34514760863929983
1772025747958639000,7.99463916015625,-0.3601221826702356,-0.9756167182475328,0.5231747099287808
1772025747968636200,8.00463623046875,-0.4845458501964807,-0.8204200190559029,0.5803858127951622
1772025747978634200,8.01463427734375,-0.5511006815999746,-0.5189630835831165,0.5656046424444765
1772025747988631000,8.024631103515626,-0.49392801104784007,-0.650609103578329,0.5603042710140347
1772025747998629000,8.034629150390625,-0.5057324306100607,-0.945750280033052,0.5941678160406649
1772025748008626000,8.0446259765625,-0.6303273630499839,-1.0267544925495982,0.6365114585123955
1772025748018623200,8.054623291015625,-0.6887725377559661,-0.8597206405699253,0.6263452346112579
1772025748028621300,8.064621337890625,-0.6815034235358238,-0.6145040632352232,0.5035761293590069
1772025748038618000,8.0746181640625,-0.6336930400907993,-0.4642088723495602,0.3637771980464458
1772025748048615000,8.084614990234375,-0.6438005926072597,-0.3862991187170148,0.20887842235546558
1772025748058613000,8.094613037109376,-0.6888613850831985,-0.21892887438982725,0.06736987411342561
1772025748068610300,8.1046103515625,-0.7012526646226644,0.0398559173092246,-0.07841591305639595
1772025748078607000,8.114607177734374,-0.6763800891727209,0.27616788817644117,-0.2545706446027383
1772025748088605200,8.124605224609375,-0.5897656355589628,0.44363019470125437,-0.4167613674001768
1772025748098602000,8.13460205078125,-0.41025662514865396,0.5910477843239903,-0.5196411655077711
1772025748108599300,8.144599365234376,-0.29347616585195063,0.7118404018715023,-0.6637128422360867
1772025748118597000,8.15459716796875,-0.09469663778245449,0.8439356269389391,-0.8074559080645441
1772025748128594200,8.16459423828125,0.09705109195411205,0.9435223748505115,-0.9137411307014525
1772025748138592000,8.174592041015625,0.2705991481333971,1.0313178549423814,-0.9960680431891232
1772025748148589000,8.184589111328124,0.4513461759060621,1.0634642207875846,-1.0219014995604754
1772025748158586000,8.194586181640625,0.5975818622678518,0.9934244698777794,-0.9794704710662364
1772025748168584200,8.204584228515625,0.6624024172246455,0.8387579320400953,-0.8918672256108373
1772025748178581000,8.2145810546875,0.6792863320082426,0.6599477175489068,-0.7706890428118407
1772025748188578000,8.224578125,0.6864554929852485,0.5097887202635407,-0.6844234026357531
1772025748198575900,8.234575927734374,0.6966174060374498,0.4092190987944603,-0.6291591960534453
1772025748208573200,8.2445732421875,0.6332020417034626,0.3806280873432755,-0.5547526282362639
1772025748218571300,8.2545712890625,0.5567904176741838,0.3525497015893459,-0.48225686247646804
1772025748228568000,8.264568115234376,0.49926294233500956,0.24307547365278004,-0.4479600040664896
1772025748238564900,8.27456494140625,0.4741916294425726,0.12350567589849233,-0.410513449453935
1772025748248563000,8.28456298828125,0.4634077850997448,0.03622837446182966,-0.38402310007642954
1772025748258560300,8.294560302734375,0.4882072953134775,0.0006309913799166679,-0.4293065953923389
1772025748268557000,8.30455712890625,0.5123474648356438,0.07863923695087432,-0.4830369434708729
1772025748278555100,8.31455517578125,0.4560568378150463,0.19926760384738443,-0.5029961740465835
1772025748288552000,8.324552001953125,0.3154465901196003,0.27430063299983737,-0.4978843474581837
1772025748298549200,8.33454931640625,0.17967852175831794,0.297576586908102,-0.542684662367031
1772025748308547000,8.344547119140625,0.10773147592246532,0.3205620334371924,-0.6206228383764624
1772025748318544100,8.354544189453126,0.030480478459596633,0.3571943125247955,-0.6473400187797844
1772025748328542000,8.3645419921875,0.10535539444088936,0.371152987511456,-0.6980818525668233
1772025748338539000,8.3745390625,0.26279344281852246,0.2889569348618388,-0.7063639432217925
1772025748348536000,8.3845361328125,0.441786320400238,0.17777970239967106,-0.7500954598553479
1772025748358534100,8.3945341796875,0.6027776773452759,0.11654226662665605,-0.7893019733451306
1772025748368531000,8.404531005859376,0.6680337011098861,0.02308013907521963,-0.761348017688468
1772025748378528000,8.414528076171875,0.5145674789726734,-0.15841390767246483,-0.5687881678514182
1772025748388526000,8.424526123046874,0.2997165215462446,-0.39122985311746594,-0.3008974749591201
1772025748398523100,8.434523193359375,0.2818044327586889,-0.5993637772485614,-0.2148065337628126
1772025748408520000,8.44452001953125,0.21957155620753763,-0.7424076818317175,-0.24299115637019275
1772025748418518000,8.45451806640625,0.0393745635330677,-0.8549743228256702,-0.30033669927120205
1772025748428515000,8.46451513671875,-0.01443710615336895,-0.9290954978302121,-0.310206680172123
1772025748438513200,8.47451318359375,0.021233926686644554,-0.914417860919237,-0.3066022990046069
1772025748448510200,8.48451025390625,0.017570728003978728,-0.8110565629050135,-0.3970973569113761
1772025748458507000,8.494507080078124,0.005671615895628929,-0.716223731522262,-0.5808519690021872
1772025748468505600,8.504505615234375,0.10795359424054622,-0.6245540403455495,-0.7245416241429746
1772025748478502400,8.51450244140625,0.21404256365299223,-0.5224181924730539,-0.8240753266930579
1772025748488499700,8.524499755859376,0.34676994914412496,-0.4652028518229723,-0.9021068070091307
1772025748498497500,8.53449755859375,0.4755716856241226,-0.3943836409732699,-0.97402499207668
1772025748508494600,8.54449462890625,0.4606090942919254,-0.30670915691256523,-1.0195798516798764
1772025748518491400,8.554491455078125,0.39226211877465245,-0.2847305493384599,-1.0135044042237102
1772025748528489500,8.564489501953124,0.38068975440263747,-0.32815000434815883,-0.9873086904112249
1772025748538486500,8.574486572265625,0.3475321656882763,-0.3949167249366641,-0.8926451511807739
1772025748548483600,8.584483642578125,0.26638474530875683,-0.48868484969735143,-0.783657829978317
1772025748558481700,8.594481689453126,0.16798048518002032,-0.5759586440026759,-0.682390727764368
1772025748568478500,8.604478515625,0.0669505527228117,-0.6305550343260169,-0.6124059219121932
1772025748578476500,8.6144765625,-0.033331776237487794,-0.6673615009367465,-0.5764876363128424
1772025748588473600,8.6244736328125,-0.12400748794078827,-0.6731064743295312,-0.5655391759928315
1772025748598470700,8.634470703125,-0.20214637415409087,-0.6564794569164514,-0.562926874602586
1772025748608468500,8.644468505859376,-0.2728337753176689,-0.593170767827332,-0.5585286396436393
1772025748618465500,8.654465576171875,-0.41346448127925395,-0.4996338214740157,-0.5820698203593492
1772025748628462600,8.664462646484376,-0.5039584066748619,-0.41865269757211204,-0.6347475906450301
1772025748638460700,8.674460693359375,-0.5382242488920689,-0.38622897609025236,-0.6787317668654024
1772025748648457500,8.68445751953125,-0.49391398252248764,-0.3619663492321968,-0.6433185081787407
1772025748658454800,8.694454833984375,-0.5131868382692337,-0.4575207728877663,-0.510132638330385
1772025748668452600,8.70445263671875,-0.509469279050827,-0.6521645163267851,-0.38105369234420355
1772025748678449700,8.71444970703125,-0.6194511642485857,-0.6034066228985786,-0.2950030831582844
1772025748688447500,8.724447509765625,-0.7621861490130424,-0.3958329629987478,-0.23455445967540142
1772025748698444500,8.734444580078126,-0.7190016718029976,-0.41092911758273837,-0.15938947470635176
1772025748708441600,8.744441650390625,-0.707805155006051,-0.5067039059907198,-0.14399587154574692
1772025748718439700,8.754439697265624,-0.7741980738461017,-0.6261167596176266,-0.0871864082828164
1772025748728436500,8.7644365234375,-0.7726946835458278,-0.7218091304391622,0.01945274235829711
1772025748738433500,8.77443359375,-0.8097785057932138,-0.6981243034690618,0.009538520456850528
1772025748748431600,8.784431640625,-0.8977788608074188,-0.5679001329705119,0.07914872084297239
1772025748758428700,8.7944287109375,-0.9115455203533173,-0.47247956482768055,0.11024155904725193
1772025748768426800,8.8044267578125,-0.9010182811200618,-0.4841185646951198,0.1952234430231154
1772025748778423600,8.814423583984375,-1.0085071804583072,-0.41102731726020575,0.22752017712444067
1772025748788420600,8.824420654296874,-1.1267916145771741,-0.26877836244702336,0.23402378686480224
1772025748798418400,8.83441845703125,-1.1488415338218212,-0.150132986061275,0.26528854756988585
1772025748808415700,8.844415771484375,-1.1316297022581099,-0.03825140472203493,0.2791747418422252
1772025748818412500,8.85441259765625,-0.9824836814075708,0.0669958531692624,0.31097602057680485
1772025748828410600,8.86441064453125,-0.8469336397111416,0.1611754813402891,0.39754933846257623
1772025748838407400,8.874407470703124,-0.76209730168581,0.24829671543240545,0.3614532120782882
1772025748848404700,8.88440478515625,-0.6643880380839109,0.3513865030288696,0.32100042485445734
1772025748858402600,8.894402587890625,-0.4953349552363157,0.5460276161193848,0.26242292900569736
1772025748868399600,8.904399658203126,-0.34481413890123364,0.7703375990256667,0.18587854544222354
1772025748878397700,8.914397705078125,-0.1434597919076681,0.8611874982520937,0.19427746740989385
1772025748888394500,8.92439453125,0.1862941405057907,0.8073921951785683,0.19280710259638725
1772025748898391600,8.9343916015625,0.3677560385495424,0.9368751919209957,0.17623912189416585
1772025748908389600,8.9443896484375,0.6026292087852955,1.006562183870375,0.22395240164026617
1772025748918386700,8.95438671875,0.8834709339916705,0.9292828370958566,0.3389006770737469
1772025748928383500,8.964383544921875,0.9200216722756623,0.850761673566699,0.5433266135323792
1772025748938381600,8.974381591796876,0.8586135561108589,0.8045596021011471,0.82167980985865
1772025748948378600,8.984378662109375,0.7578840679049491,0.6448679295778275,1.0786762568362056
1772025748958375700,8.994375732421876,0.7294342184901237,0.5191662049397826,1.2160449653271586
1772025748968373500,9.00437353515625,0.8135358125001192,0.3797732240796089,1.3366148069694637
1772025748978370600,9.01437060546875,0.7321598440617323,0.19627572855502365,1.401419579835236
1772025748988368400,9.024368408203125,0.5561147103697062,0.14071136998236178,1.416218505038321
1772025748998365700,9.03436572265625,0.4110071512550115,-0.01635989090949297,1.5120210582360625
1772025749008362500,9.044362548828126,0.2883785504519939,-0.03445376600474119,1.4329536590009926
1772025749018360600,9.054360595703125,0.2643324889540672,0.023157880486547947,1.3767702917471527
1772025749028357600,9.064357666015624,0.14255202941298484,0.09263795168697833,1.2408236519485711
1772025749038354700,9.074354736328125,-0.005676876592636108,0.19506839859187602,1.0126085513625294
1772025749048352500,9.0843525390625,-0.0018400749087333678,0.37134383390843867,0.7651464601233601
1772025749058349600,9.094349609375,0.08158873440623284,0.564464605563879,0.5611745510425419
1772025749068346600,9.1043466796875,0.2574199330866337,0.6719450293347239,0.4140574056711048
1772025749078344700,9.1143447265625,0.49424189930260176,0.6747849289357661,0.35432219115458424
1772025749088341500,9.124341552734375,0.6643786857336759,0.6168780988901853,0.2141578605957329
1772025749098339600,9.134339599609374,0.8626648773282766,0.5472922292277217,0.07155746199637651
1772025749108336600,9.144336669921875,1.0324158793121576,0.47040948055535553,0.02460259940214455
1772025749118333700,9.154333740234375,1.0392249748051166,0.3435483567491174,0.13290266899280248
1772025749128331800,9.164331787109376,0.9366466438621281,0.21041823567599058,0.3669559742130339
1772025749138328600,9.17432861328125,0.891564224076271,-0.054603112325072284,0.6634678544990718
1772025749148325600,9.18432568359375,0.8442033379644155,-0.31290684250891204,0.876519215157628
1772025749158323500,9.194323486328125,0.9413286641985178,-0.4844005965068936,0.945128202611953
1772025749168320800,9.20432080078125,1.0810416707932948,-0.5588175395876169,0.9752546069368719
1772025749178318600,9.214318603515625,1.051525653451681,-0.566568299844861,1.109751340188086
1772025749188315600,9.224315673828125,0.946598713555932,-0.6736661540389061,1.2809630623742938
1772025749198312400,9.2343125,0.8870692507445812,-0.7652867453768849,1.3072452123612164
1772025749208310500,9.244310546875,0.7953232794612646,-0.7390124864354729,1.3092626896634698
1772025749218307600,9.2543076171875,0.5743056160986423,-0.721861737409234,1.3125517943367362
1772025749228304600,9.2643046875,0.43095805239379403,-0.7547501537933945,1.1712019803203642
1772025749238302500,9.274302490234374,0.37808512486219403,-0.7210501287654042,0.9605006168540566
1772025749248299500,9.284299560546875,0.2600578803747892,-0.5982657528787851,0.822518891031295
1772025749258296600,9.294296630859375,0.07332768653929234,-0.48907735614627595,0.7188909049049019
1772025749268294700,9.304294677734376,-0.0637000264942646,-0.4703916526377201,0.6526595333021133
1772025749278291700,9.314291748046875,-0.14424246671795843,-0.47271600393205876,0.6275806216251105
1772025749288289500,9.32428955078125,-0.20159341644644735,-0.41607846316993236,0.6178505241189152
1772025749298285600,9.33428564453125,-0.29677286930978297,-0.36262218279242514,0.5866667196955532
1772025749308282600,9.34428271484375,-0.38718145450949665,-0.33366116898506876,0.5844857954598963
1772025749318279400,9.354279541015625,-0.4605044648736715,-0.3032435266286135,0.5911306403018534
1772025749328277500,9.364277587890625,-0.5311223079323768,-0.2599450676500797,0.607611381112039
1772025749338274600,9.374274658203126,-0.5869008937776088,-0.2519514385476708,0.6145644151203334
1772025749348271600,9.384271728515625,-0.5639338596880435,-0.23248890544772147,0.6404010863620787
1772025749358269700,9.394269775390624,-0.5321089808821677,-0.18220745571404695,0.6081021603036671
1772025749368266500,9.4042666015625,-0.46947103066146373,-0.1265893211275339,0.612303922842443
1772025749378263600,9.414263671875,-0.45717327462434765,-0.2211070952117443,0.7270914547562599
1772025749388261600,9.42426171875,-0.4843178866595029,-0.4939829561054706,0.882599119593203
1772025749398258700,9.4342587890625,-0.505177719336748,-0.5652902427330613,0.9689721656665206
1772025749408256500,9.444256591796876,-0.5775368531048297,-0.42006636376231904,1.0165902414098382
1772025749418253600,9.454253662109375,-0.6722293992340564,-0.4260656041771173,0.9751449360173196
1772025749428250600,9.464250732421876,-0.744818250104785,-0.5501628162279725,0.8595802822511642
1772025749438248700,9.474248779296875,-0.7586877855032682,-0.6037272331550717,0.7530337783295661
1772025749448245500,9.48424560546875,-0.7954477826237678,-0.5113096462205052,0.6615734190545975
1772025749458242600,9.49424267578125,-0.8748615110784769,-0.30505349866002796,0.5352603210525587
1772025749468236500,9.504236572265626,-0.9388321712076664,-0.11842968780845403,0.3616951676080003
1772025749478233300,9.5142333984375,-1.0031032755881548,-0.10612082585543393,0.24927421869505195
1772025749488230400,9.52423046875,-1.009594975695014,0.007886077074706553,0.08062405409254134
1772025749498228200,9.534228271484375,-0.9231260680317879,0.2150280675590038,-0.1020788569882512
1772025749508225500,9.5442255859375,-0.92093995616436,0.3792740423858166,-0.23477814889606086
1772025749518223400,9.554223388671875,-0.8778583548069,0.4607786056399345,-0.32509068984277545
1772025749528220400,9.564220458984375,-0.7222679801225662,0.6366314316302537,-0.45943614152241496
1772025749538217200,9.57421728515625,-0.5827852751523256,0.71257222327739,-0.5709085210062563
1772025749548215300,9.58421533203125,-0.4539303471803665,0.7808934798315167,-0.6978519893337041
1772025749558212400,9.59421240234375,-0.2173427742421627,0.886871974606812,-0.823735354148969
1772025749568209400,9.60420947265625,-0.03182663237154484,0.8734601198479532,-0.9265631298083812
1772025749578207500,9.61420751953125,0.18773498696386812,0.8509037123858928,-1.0181742226656525
1772025749588204300,9.624204345703125,0.2895329811841249,0.7907873895972967,-1.0333790252558885
1772025749598202400,9.634202392578125,0.25700083089172837,0.7685507156088948,-0.9407383701551705
1772025749608199400,9.644199462890626,0.22982173206508158,0.7408654208257794,-0.8145377560842781
1772025749618196500,9.654196533203125,0.18709259740710257,0.720179483410716,-0.7702185026906431
1772025749628194300,9.6641943359375,0.16058219162225723,0.7575134810268879,-0.8483610421657561
1772025749638191400,9.67419140625,0.23698329425752163,0.7885121381416916,-0.9249456846743822
1772025749648188400,9.6841884765625,0.4114057951837778,0.7639335772022604,-1.0386337309136986
1772025749658186500,9.6941865234375,0.527281999117136,0.6939046399474144,-1.09949561137259
1772025749668183300,9.704183349609375,0.6073287647783756,0.6156070560410618,-1.060601305637136
1772025749678180400,9.714180419921876,0.5910135897934436,0.5769757120907306,-1.0063347317900508
1772025749688178200,9.72417822265625,0.5000578921049833,0.5230220035851001,-0.9937300286956131
1772025749698175500,9.734175537109374,0.42456162935495373,0.43333413387537,-0.9801507814805954
1772025749708173300,9.74417333984375,0.38904257220625876,0.32830899430215355,-0.9256105052586644
1772025749718170400,9.75417041015625,0.4063718926697969,0.27381986374557016,-0.9075594463918357
1772025749728167200,9.764167236328126,0.45397184823453424,0.23520810127854347,-0.8773233711473644
1772025749738165500,9.77416552734375,0.5686725786477327,0.19724223549962042,-0.8442389937996864
1772025749748162300,9.784162353515624,0.7275590722680091,0.15703180566430092,-0.8105651261262595
1772025749758159400,9.794159423828125,0.8306348313391209,0.09571838204562663,-0.7614069813340902
1772025749768157400,9.804157470703124,0.9287994374930858,0.03359364204406738,-0.778960758203268
1772025749778154500,9.814154541015625,1.0636685111880302,0.010822715048491954,-0.7404681651365012
1772025749788151300,9.8241513671875,1.035014663633704,-0.07371347098648548,-0.6009276655644178
1772025749798149400,9.8341494140625,0.9405050728559493,-0.20706687942147253,-0.44915747022274877
1772025749808146400,9.844146484375,0.8823924911051988,-0.4339417443796992,-0.24290998089276253
1772025749818144300,9.854144287109374,0.7425941443145274,-0.5632470464676618,-0.15691044430695472
1772025749828141600,9.8641416015625,0.6716682582199573,-0.6760340522140265,-0.07849573682695626
1772025749838138400,9.874138427734374,0.6273644215911627,-0.740446610891819,-0.0814372701715678
1772025749848136400,9.884136474609376,0.5187257676959037,-0.7636997684463858,-0.06200513220988214
1772025749858133200,9.89413330078125,0.34938393103480336,-0.7718193620160222,-0.07244085723478347
1772025749868130600,9.904130615234376,0.26886896333992477,-0.7756827594459056,-0.17985818917416035
1772025749878128400,9.91412841796875,0.1668570341080427,-0.7055939086973667,-0.21504516482427716
1772025749888125400,9.92412548828125,0.13957622847259044,-0.5570537447854876,-0.1730286354150623
1772025749898123300,9.934123291015625,0.14189619585275648,-0.41694823174178597,-0.0792878370527178
1772025749908121300,9.944121337890625,0.1050917750686407,-0.33792350260466336,-0.08001191354356706
1772025749918118400,9.954118408203126,0.15999182451367377,-0.28096827419549225,-0.14614369722940027
1772025749928115500,9.964115478515625,0.030775077491998672,-0.22051818940788506,-0.2017744721017778
1772025749938113500,9.974113525390624,-0.20238076743185518,-0.28511370343714953,-0.3998287546366453
1772025749948110300,9.9841103515625,-0.2535059745132923,-0.3683043200820684,-0.39330775537006557
1772025749958107400,9.994107421875,-0.24531857640445232,-0.33509470891952514,-0.2710280410699546
1772025749968105200,10.004105224609376,-0.38759997218251224,-0.29290903348848224,-0.20382753217406568
1772025749978102500,10.0141025390625,-0.38734745872616766,-0.3463160678967833,-0.19033954343907533
1772025749988099300,10.024099365234376,-0.29728724857270716,-0.3785584414623678,-0.3250490426581353
1772025749998097400,10.034097412109375,-0.3432178096204996,-0.3530784016385674,-0.5188035821724682
1772025750008094200,10.04409423828125,-0.4473375247865915,-0.3247705910429358,-0.6106860393170267
1772025750018092300,10.05409228515625,-0.39092823982238767,-0.22904621764793992,-0.6821992237802594
1772025750028089300,10.06408935546875,-0.2857072854161262,-0.25669132655113935,-0.6817554986007511
1772025750038086400,10.07408642578125,-0.40410219417214394,-0.24455884407833217,-0.6812501063618809
1772025750048084200,10.084084228515625,-0.5457827014476061,-0.24024667996764182,-0.6121671447202562
1772025750058081300,10.094081298828126,-0.5782412019819021,-0.3176921770893037,-0.5430002311222255
1772025750068078300,10.104078369140625,-0.6242892519295216,-0.303853329090029,-0.5153535147838294
1772025750078076400,10.114076416015624,-0.6998486430436373,-0.30415771886408327,-0.47473457721285517
1772025750088073500,10.124073486328125,-0.7198392916709184,-0.3925812677264213,-0.4558382266283035
1772025750098071300,10.1340712890625,-0.6525678364306688,-0.6317822380334138,-0.3506633033208549
1772025750108068400,10.144068359375,-0.7156570375502109,-0.898171951778233,-0.2313476264581084
1772025750118065400,10.1540654296875,-0.9029600628376007,-0.8849173334077,-0.18970855205915868
1772025750128063500,10.1640634765625,-0.9828279648005962,-0.7210644495517015,-0.15179529325030744
1772025750138060300,10.174060302734375,-0.9914262817978858,-0.6602130904868245,-0.09621858665272592
1772025750148057300,10.184057373046874,-1.0077104771226644,-0.7034612805828452,-0.06266359611861408
1772025750158055400,10.194055419921876,-1.0507119989812375,-0.7455112008050083,-0.017310104306414723
1772025750168052500,10.204052490234375,-1.0397791015565394,-0.6639230509206652,-0.007966814160719513
1772025750178049300,10.21404931640625,-0.9726526077449321,-0.474326946260035,-0.03896247560083866
1772025750188047400,10.22404736328125,-0.9021060763567685,-0.3208203921124339,-0.034090485650300976
1772025750198044400,10.23404443359375,-0.7772662292450666,-0.2373100419938564,-0.056631695543229575
1772025750208042500,10.24404248046875,-0.8454583064615726,-0.15887392639964817,0.0007649930231273174
1772025750218039300,10.254039306640625,-1.002860114482045,-0.05936725798696279,0.09452025830224156
1772025750228036400,10.264036376953126,-0.9961989030271768,0.034498481929302216,0.1401855925425887
1772025750238034400,10.274034423828125,-0.880031022670865,0.10055705424845218,0.13735402237847447
1772025750248031500,10.284031494140624,-0.7451666251510382,0.151444068659842,0.10064137153103947
1772025750258028300,10.2940283203125,-0.6174293030321598,0.20749708753228185,0.08629603531435132
1772025750268026400,10.3040263671875,-0.5368301641851664,0.2761138199016452,0.12060220954194664
1772025750278023400,10.3140234375,-0.4453250159204006,0.3646493047058582,0.08063362563848495
1772025750288021200,10.324021240234375,-0.29495208362340924,0.48621056853830813,0.052894700971990824
1772025750298018600,10.3340185546875,-0.22547464277148246,0.6578451923117041,0.06685805213376879
1772025750308015400,10.344015380859375,0.03192483204901218,0.7913464847847819,0.0370981430336833
1772025750318013400,10.354013427734374,0.38891280834674835,0.9856889071896672,0.07518032866865396
1772025750328010200,10.36401025390625,0.5404886866927147,1.202128887373209,0.06637859805375337
1772025750338007600,10.374007568359374,0.7198404607146978,1.272965341618657,0.013126461946219204
1772025750348005400,10.38400537109375,0.9987497565537691,1.1990431963175534,0.051563306237757206
1772025750358002400,10.39400244140625,1.1350544160097837,1.1688108474001289,0.1033729884520173
1772025750367999200,10.403999267578126,1.2443109095424414,1.127944584004581,0.16536328841894865
1772025750377997300,10.413997314453125,1.2281839506059884,1.041283076378703,0.24667583623230455
1772025750387994400,10.423994384765624,1.223347031968832,0.9358610464423894,0.3086329645819962
1772025750397992400,10.433992431640625,1.1589508399039505,0.8047454800620675,0.3862783681899309
1772025750407989200,10.4439892578125,1.0254413641244173,0.6410340505033731,0.5076156140081585
1772025750417986300,10.453986328125,0.9692518593907355,0.48137423442304134,0.5748690952003002
1772025750427984400,10.463984375,0.961155062174797,0.1872048256099224,0.759563837685436
1772025750437981400,10.4739814453125,0.8484007896542549,-0.014089023368060588,0.8856712205149233
1772025750447978500,10.483978515625,0.7293617377758026,-0.10600947443544864,0.9468487427942455
1772025750457976300,10.493976318359374,0.6826023246884345,-0.06929273193478584,0.9137227182619273
1772025750467973600,10.5039736328125,0.6243395208120346,0.013945815505087375,0.7749550296932458
1772025750477971700,10.5139716796875,0.5098001184403896,0.07907499801963568,0.6925269218534231
1772025750487968800,10.52396875,0.35883097381591794,0.1508724062517285,0.6190687408022583
1772025750497965800,10.5339658203125,0.23602409383654593,0.23473960698395965,0.5304636978931725
1772025750507963600,10.543963623046874,0.12118775434494018,0.32039778278619047,0.40458033307790753
1772025750517960700,10.553960693359375,0.09622457800209522,0.4229655923351645,0.3166175335951149
1772025750527957800,10.563957763671874,0.1975263131380081,0.5305053450778127,0.247317495136708
1772025750537955800,10.573955810546876,0.39089842920601364,0.6229483587145805,0.24981968721598385
1772025750547952600,10.58395263671875,0.5967647006660699,0.618633710385859,0.3257309605076909
1772025750557949700,10.59394970703125,0.7138976266622543,0.5288865117043257,0.3200143364265561
1772025750567947500,10.603947509765625,0.8618149825006723,0.4191746756196022,0.2837573203921318
1772025750577944800,10.61394482421875,0.9398211822450161,0.33674276838749645,0.3314266879312694
1772025750587942700,10.623942626953125,0.8713257381677627,0.23889789570719003,0.3944944078713655
1772025750597939700,10.633939697265625,0.6286959624558687,0.11335457650125026,0.7255044778257608
1772025750607936500,10.6439365234375,0.40249651254117486,-0.07145254031717777,1.000164445657283
1772025750617934600,10.6539345703125,0.3639361880004406,-0.23336305793374776,1.0925567520201205
1772025750627931600,10.663931640625,0.3499491637021303,-0.31923224613815543,1.0501263080477714
1772025750637928700,10.6739287109375,0.2795171986043453,-0.3831120131134987,1.027014750920981
1772025750647926800,10.6839267578125,0.22122692219913004,-0.4217129619255662,1.0786606208756566
1772025750657923600,10.693923583984375,0.2228840417563915,-0.40290538560301065,1.11719434967041
1772025750667921700,10.703921630859375,0.22325112150311469,-0.339009544275701,1.0426732155628502
1772025750677918700,10.713918701171876,0.06011047756969928,-0.3173687903538346,0.8965795680202543
1772025750687915800,10.723915771484375,-0.06342939285933971,-0.3520405830234289,0.7230315118409693
1772025750697913600,10.73391357421875,-0.1384662214040756,-0.32386428985297677,0.5846890629470348
1772025750707910700,10.74391064453125,-0.10380758047699927,-0.2685281870782375,0.43410869844444094
1772025750717907700,10.75390771484375,-0.08008885123729706,-0.2860661818563938,0.3363320686947554
1772025750727905800,10.76390576171875,-0.21205869635939598,-0.32938276101350783,0.3779842948362231
1772025750737902600,10.773902587890625,-0.31196108609139916,-0.370944020935893,0.4965769911866635
1772025750747899600,10.783899658203126,-0.2821703434616327,-0.40694735447019337,0.6175432117354125
1772025750757897700,10.793897705078125,-0.11260405039489269,-0.32613924904763697,0.7434787451293319
1772025750767894800,10.803894775390624,-0.43898412246108054,-0.3311231749400496,0.7337423640128224
1772025750777892900,10.813892822265625,-0.709731739154458,-0.3874482887521386,0.5323524342492223
1772025750787889700,10.8238896484375,-0.81761869789958,-0.4251923284739256,0.3780212658457458
1772025750797886700,10.83388671875,-0.8567851716399192,-0.3840492939636111,0.3764536512028426
1772025750807884800,10.843884765625,-0.68468088452816,-0.3380722634255886,0.4578148604635149
1772025750817881900,10.8538818359375,-0.647214784964919,-0.3759104111716151,0.64344578782022
1772025750827878700,10.863878662109375,-0.636217005610466,-0.4698191134467721,0.7388107533182948
1772025750837876700,10.873876708984374,-0.6198819568812847,-0.6898708543866873,0.8875986814461648
