time,seconds_elapsed,z,y,x
1772025775141039000,0.0810390625,-0.3657781481742859,0.03365107998251915,-0.056331485509872437
1772025775151036000,0.091035888671875,-0.23314312100410461,0.05447753146290779,0.03684719279408455
1772025775161033000,0.101032958984375,-0.09840073436498642,0.07775120437145233,0.13353991508483887
1772025775171031000,0.111031005859375,0.02639419585466385,0.08435690402984619,0.21881619095802307
1772025775181028000,0.121028076171875,0.12672947347164154,0.07629688829183578,0.2893362045288086
1772025775191025000,0.13102490234375,0.20142501592636108,0.062150709331035614,0.3382459282875061
1772025775201023000,0.14102294921875,0.2446410357952118,0.06084001809358597,0.36522865295410156
1772025775211020000,0.15102001953125,0.26849469542503357,0.07355421036481857,0.3845860958099365
1772025775221017000,0.16101708984375,0.28464972972869873,0.09914121776819229,0.39426735043525696
1772025775231015000,0.171014892578125,0.30491986870765686,0.13538417220115662,0.41336461901664734
1772025775241012200,0.18101220703125,0.32722094655036926,0.16064845025539398,0.43271246552467346
1772025775251009000,0.191009033203125,0.3477688431739807,0.17630863189697266,0.44989117980003357
1772025775261007000,0.201007080078125,0.3748382031917572,0.1689334362745285,0.4577096998691559
1772025775271004000,0.21100390625,0.3924901783466339,0.13543273508548737,0.4548092484474182
1772025775281001200,0.221001220703125,0.4029470682144165,0.08053861558437347,0.4460097849369049
1772025775290999000,0.2309990234375,0.4072438180446625,0.009508650749921799,0.42365628480911255
1772025775300996000,0.24099609375,0.40131595730781555,-0.061542168259620667,0.39203518629074097
1772025775310993000,0.250992919921875,0.37119346857070923,-0.13018007576465607,0.3349114656448364
1772025775320991000,0.260990966796875,0.3124099671840668,-0.19557686150074005,0.25834935903549194
1772025775330988000,0.270988037109375,0.2145252376794815,-0.25709664821624756,0.14441266655921936
1772025775340986000,0.280986083984375,0.08337143063545227,-0.32137027382850647,0.001068029785528779
1772025775350983000,0.29098291015625,-0.05460800603032112,-0.3783014714717865,-0.1616857349872589
1772025775360980000,0.30097998046875,-0.16836656630039215,-0.40382298827171326,-0.3056541979312897
1772025775370978000,0.31097802734375,-0.2333892434835434,-0.3844575583934784,-0.42826908826828003
1772025775380975000,0.32097509765625,-0.25177353620529175,-0.30695387721061707,-0.5108185410499573
1772025775390972000,0.330971923828125,-0.2389639914035797,-0.19133645296096802,-0.5518914461135864
1772025775400970000,0.340969970703125,-0.1813933253288269,-0.08524970710277557,-0.5610541701316833
1772025775410967000,0.350967041015625,-0.0706593468785286,-0.0001878039911389351,-0.5387944579124451
1772025775420964000,0.360964111328125,0.07222189754247665,0.0909334346652031,-0.5004666447639465
1772025775430962200,0.370962158203125,0.22020497918128967,0.16951480507850647,-0.4618332087993622
1772025775440959000,0.380958984375,0.3372895121574402,0.19954349100589752,-0.444290429353714
1772025775450956000,0.3909560546875,0.4211668372154236,0.19023440778255463,-0.4363076090812683
1772025775460953900,0.400953857421875,0.4810786843299866,0.1600356549024582,-0.4308510720729828
1772025775470951200,0.410951171875,0.5286699533462524,0.12552188336849213,-0.4256962537765503
1772025775480948000,0.420947998046875,0.5654539465904236,0.08363941311836243,-0.4122689664363861
1772025775490942200,0.430942138671875,0.5875188112258911,0.03991803154349327,-0.3938140571117401
1772025775500939000,0.44093896484375,0.5936458706855774,-0.012400452047586441,-0.3655185103416443
1772025775510936300,0.450936279296875,0.5758634209632874,-0.06700190901756287,-0.32756659388542175
1772025775520934400,0.460934326171875,0.5391363501548767,-0.12441471219062805,-0.2822214961051941
1772025775530931200,0.47093115234375,0.48486965894699097,-0.18887494504451752,-0.23729877173900604
1772025775540928000,0.480927978515625,0.42658525705337524,-0.27022409439086914,-0.18643197417259216
1772025775550926300,0.49092626953125,0.38450172543525696,-0.3648802936077118,-0.14046742022037506
1772025775560923400,0.50092333984375,0.3395406901836395,-0.4533842206001282,-0.09800199419260025
1772025775570920200,0.510920166015625,0.2850058078765869,-0.5142752528190613,-0.06747657805681229
1772025775580918300,0.520918212890625,0.2258131206035614,-0.5446925163269043,-0.049034345895051956
1772025775590915300,0.530915283203125,0.16493725776672363,-0.5385866761207581,-0.03648420050740242
1772025775600913400,0.540913330078125,0.10692138969898224,-0.49399489164352417,-0.033828530460596085
1772025775610910200,0.55091015625,0.048880454152822495,-0.43748608231544495,-0.03772206977009773
1772025775620907300,0.5609072265625,0.001577782561071217,-0.3655605614185333,-0.030470747500658035
1772025775630905000,0.570905029296875,-0.031855806708335876,-0.29103413224220276,-0.01494185533374548
1772025775640902400,0.58090234375,-0.04625743255019188,-0.23081141710281372,0.016517307609319687
1772025775650899200,0.590899169921875,-0.052800022065639496,-0.21726498007774353,0.03605159372091293
1772025775660897300,0.600897216796875,-0.049465786665678024,-0.2329413890838623,0.06322503834962845
1772025775670894000,0.61089404296875,-0.05089457333087921,-0.26771536469459534,0.08693676441907883
1772025775680891400,0.620891357421875,-0.07101351022720337,-0.3159973621368408,0.10921841114759445
1772025775690889200,0.63088916015625,-0.11000005900859833,-0.36381760239601135,0.1232476755976677
1772025775700886300,0.64088623046875,-0.1572687178850174,-0.41398361325263977,0.13018587231636047
1772025775710883000,0.650883056640625,-0.2034577876329422,-0.4447273910045624,0.1336945742368698
1772025775720881200,0.660881103515625,-0.24075208604335785,-0.4582716226577759,0.1363237351179123
1772025775730878200,0.670878173828125,-0.2521299123764038,-0.44075706601142883,0.13790379464626312
1772025775740875300,0.680875244140625,-0.24026064574718475,-0.4127705991268158,0.1394474357366562
1772025775750873300,0.690873291015625,-0.19665537774562836,-0.38340258598327637,0.15096133947372437
1772025775760870100,0.7008701171875,-0.12341950088739395,-0.3388846218585968,0.17645712196826935
1772025775770867200,0.7108671875,-0.03807982802391052,-0.31768932938575745,0.19076788425445557
1772025775780865300,0.720865234375,0.012643063440918922,-0.33725690841674805,0.17041105031967163
1772025775790862300,0.7308623046875,0.040151119232177734,-0.36568987369537354,0.1256593018770218
1772025775800860200,0.740860107421875,0.059677693992853165,-0.3769298493862152,0.08246215432882309
1772025775810857200,0.750857177734375,0.07975713163614273,-0.362969309091568,0.048020556569099426
1772025775820854300,0.760854248046875,0.09340901672840118,-0.3422628343105316,0.027111949399113655
1772025775830852400,0.770852294921875,0.09662877768278122,-0.33563023805618286,0.011142569594085217
1772025775840849200,0.78084912109375,0.09519405663013458,-0.34077417850494385,-0.01613869145512581
1772025775850846200,0.79084619140625,0.08169262856245041,-0.36045971512794495,-0.04629206284880638
1772025775860844000,0.800843994140625,0.0575932078063488,-0.3636946976184845,-0.07062205672264099
1772025775870841300,0.81084130859375,0.022617384791374207,-0.35284337401390076,-0.08995580673217773
1772025775880838100,0.820838134765625,-0.03209346905350685,-0.3217938542366028,-0.1064276248216629
1772025775890836200,0.830836181640625,-0.08475854247808456,-0.2674461901187897,-0.10656770318746567
1772025775900833000,0.8408330078125,-0.11610891669988632,-0.19908910989761353,-0.0915742889046669
1772025775910830300,0.850830322265625,-0.12982365489006042,-0.14968428015708923,-0.07482806593179703
1772025775920828400,0.860828369140625,-0.1322244554758072,-0.09643319249153137,-0.047559451311826706
1772025775930825200,0.8708251953125,-0.13062122464179993,-0.06532879918813705,-0.023582743480801582
1772025775940822000,0.880822021484375,-0.11613490432500839,-0.0405382364988327,0.01242196187376976
1772025775950820000,0.890820068359375,-0.09775110334157944,-0.026995796710252762,0.05251985043287277
1772025775960817400,0.9008173828125,-0.08547791838645935,-0.012034761719405651,0.09034432470798492
1772025775970814200,0.910814208984375,-0.09308603405952454,-0.00839049182832241,0.12174218893051147
1772025775980812300,0.920812255859375,-0.13001452386379242,-0.022080814465880394,0.1421196460723877
1772025775990809000,0.93080908203125,-0.1752435266971588,-0.04697684198617935,0.1603628247976303
1772025776000806400,0.940806396484375,-0.2324235588312149,-0.09683867543935776,0.17902764678001404
1772025776010804200,0.95080419921875,-0.3050413131713867,-0.15032799541950226,0.2013782262802124
1772025776020801300,0.96080126953125,-0.3812718689441681,-0.17058929800987244,0.2218368947505951
1772025776030799000,0.970799072265625,-0.4504357576370239,-0.17142899334430695,0.23221337795257568
1772025776040796200,0.980796142578125,-0.4935167133808136,-0.1625131368637085,0.2186800092458725
1772025776050793200,0.990793212890625,-0.5158316493034363,-0.1350274533033371,0.17076148092746735
1772025776060791300,1.000791259765625,-0.5329104661941528,-0.10736637562513351,0.08494550734758377
1772025776070788000,1.0107880859375,-0.5484300255775452,-0.08529356867074966,-0.030552858486771584
1772025776080785200,1.02078515625,-0.5620220899581909,-0.04602270945906639,-0.15832383930683136
1772025776090783200,1.030783203125,-0.5719761848449707,0.0017783686053007841,-0.27758896350860596
1772025776100780300,1.0407802734375,-0.5586743354797363,0.05781371518969536,-0.3810391426086426
1772025776110777000,1.050777099609375,-0.539281964302063,0.1096944808959961,-0.4654555022716522
1772025776120775200,1.060775146484375,-0.5080112814903259,0.15270096063613892,-0.5292390584945679
1772025776130772200,1.070772216796875,-0.46640312671661377,0.18104924261569977,-0.5647222399711609
1772025776140769300,1.080769287109375,-0.4204924404621124,0.19644509255886078,-0.5713009834289551
1772025776150767400,1.090767333984375,-0.3783811926841736,0.20554324984550476,-0.5576727390289307
1772025776160764200,1.10076416015625,-0.3379112780094147,0.18408361077308655,-0.522639274597168
1772025776170761200,1.11076123046875,-0.3042774200439453,0.14741960167884827,-0.467712938785553
1772025776180759300,1.12075927734375,-0.26870018243789673,0.12436199933290482,-0.3996163308620453
1772025776190756400,1.13075634765625,-0.24605345726013184,0.09004078060388565,-0.3353230953216553
1772025776200753200,1.140753173828125,-0.2302026003599167,0.03288823738694191,-0.28057223558425903
1772025776210751200,1.150751220703125,-0.2284691482782364,-0.022960113361477852,-0.24290448427200317
1772025776220748300,1.160748291015625,-0.23883390426635742,-0.06947910785675049,-0.20977583527565002
1772025776230745300,1.170745361328125,-0.24933341145515442,-0.11084305495023727,-0.1880846470594406
1772025776240743200,1.1807431640625,-0.26299676299095154,-0.13217566907405853,-0.1777336150407791
1772025776250740200,1.190740234375,-0.2666064202785492,-0.13215462863445282,-0.172140970826149
1772025776260737300,1.2007373046875,-0.2660544216632843,-0.10878793895244598,-0.18553930521011353
1772025776270735400,1.2107353515625,-0.25390028953552246,-0.0764949768781662,-0.21489107608795166
1772025776280732200,1.220732177734375,-0.23179787397384644,-0.03598635643720627,-0.2577495872974396
1772025776290730200,1.230730224609375,-0.1999019980430603,-0.0014177276752889156,-0.3088250160217285
1772025776300727000,1.24072705078125,-0.16788999736309052,0.022208578884601593,-0.3511723577976227
1772025776310724400,1.250724365234375,-0.13240523636341095,0.0380202978849411,-0.38438624143600464
1772025776320722400,1.260722412109375,-0.09955552965402603,0.03837241232395172,-0.4054163694381714
1772025776330719200,1.27071923828125,-0.07243842631578445,0.015448718331754208,-0.4007672965526581
1772025776340716000,1.280716064453125,-0.05856482312083244,-0.021655049175024033,-0.37224528193473816
1772025776350714000,1.290714111328125,-0.04922724515199661,-0.06596099585294724,-0.31687045097351074
1772025776360711400,1.30071142578125,-0.04183141142129898,-0.07008581608533859,-0.24030160903930664
1772025776370708200,1.310708251953125,-0.02227501943707466,-0.05501712113618851,-0.1625695377588272
1772025776380706300,1.320706298828125,-0.014337734319269657,-0.06726553291082382,-0.08705081790685654
1772025776390703000,1.330703125,-0.010837401263415813,-0.08470523357391357,-0.018309779465198517
1772025776400700400,1.340700439453125,-0.012016511522233486,-0.09490825980901718,0.04042963311076164
1772025776410698200,1.3506982421875,-0.021295230835676193,-0.09571253508329391,0.10669813305139542
1772025776420695300,1.3606953125,-0.03343664109706879,-0.09115085005760193,0.1724727898836136
1772025776430692000,1.370692138671875,-0.04099016264081001,-0.06657759845256805,0.2508442997932434
1772025776440690200,1.380690185546875,-0.025056634098291397,0.02221219427883625,0.3280426263809204
1772025776450687200,1.390687255859375,0.01583247445523739,0.08352269232273102,0.4116445779800415
1772025776460684300,1.400684326171875,0.02823776751756668,0.09370311349630356,0.4643782079219818
1772025776470682000,1.41068212890625,-0.021128183230757713,0.09126845002174377,0.4837532341480255
1772025776480679200,1.42067919921875,-0.09524412453174591,0.10429112613201141,0.48452937602996826
1772025776490675500,1.430675537109375,-0.15385471284389496,0.12456576526165009,0.49559614062309265
1772025776500673300,1.44067333984375,-0.19553063809871674,0.11947114020586014,0.48841896653175354
1772025776510670300,1.45067041015625,-0.2487238198518753,0.0968630313873291,0.4663245975971222
1772025776520667400,1.46066748046875,-0.2992420792579651,0.08944153040647507,0.43075206875801086
1772025776530665500,1.47066552734375,-0.327155739068985,0.09588984400033951,0.39629316329956055
1772025776540662300,1.480662353515625,-0.3345223367214203,0.11128055304288864,0.3536502420902252
1772025776550659300,1.490659423828125,-0.3374057412147522,0.12468983978033066,0.2985300123691559
1772025776560657400,1.500657470703125,-0.3443208336830139,0.1376601904630661,0.2171623855829239
1772025776570654500,1.510654541015625,-0.3464500308036804,0.15905895829200745,0.12831267714500427
1772025776580652500,1.520652587890625,-0.33400794863700867,0.1843836009502411,0.036833081394433975
1772025776590649300,1.5306494140625,-0.31187495589256287,0.22017063200473785,-0.04714038223028183
1772025776600646400,1.540646484375,-0.27094629406929016,0.27328383922576904,-0.11134380102157593
1772025776610644200,1.550644287109375,-0.2235172688961029,0.3208577632904053,-0.15419113636016846
1772025776620641500,1.5606416015625,-0.17451195418834686,0.3598712384700775,-0.17412899434566498
1772025776630638300,1.570638427734375,-0.11744919419288635,0.39446142315864563,-0.16905620694160461
1772025776640636400,1.580636474609375,-0.0438825860619545,0.4253599941730499,-0.13258406519889832
1772025776650633200,1.59063330078125,0.05016694590449333,0.4698963165283203,-0.06463458389043808
1772025776660630500,1.600630615234375,0.15331314504146576,0.5085877776145935,0.029911044985055923
1772025776670628400,1.61062841796875,0.2593194842338562,0.5352095365524292,0.13360893726348877
1772025776680625400,1.62062548828125,0.35654717683792114,0.5464840531349182,0.24101758003234863
1772025776690622200,1.630622314453125,0.43835973739624023,0.5374380946159363,0.33781683444976807
1772025776700620300,1.640620361328125,0.5141249895095825,0.5031030178070068,0.43148544430732727
1772025776710617300,1.650617431640625,0.576791524887085,0.4558117091655731,0.5160589218139648
1772025776720614400,1.660614501953125,0.6313445568084717,0.3832719326019287,0.5934298038482666
1772025776730612200,1.6706123046875,0.6663033366203308,0.28713342547416687,0.6389573812484741
1772025776740609300,1.680609375,0.6815293431282043,0.18270957469940186,0.6532125473022461
1772025776750606300,1.6906064453125,0.6748821139335632,0.048525940626859665,0.6289902925491333
1772025776760604400,1.7006044921875,0.6597143411636353,-0.09938956797122955,0.5732672214508057
1772025776770601500,1.7106015625,0.6228620409965515,-0.2191615104675293,0.48726019263267517
1772025776780598500,1.7205986328125,0.5630504488945007,-0.3018137216567993,0.37600740790367126
1772025776790596600,1.7305966796875,0.4911802411079407,-0.33808836340904236,0.2560889720916748
1772025776800593400,1.740593505859375,0.4268757700920105,-0.32500210404396057,0.12191669642925262
1772025776810590500,1.750590576171875,0.347973495721817,-0.298674076795578,-0.04229940101504326
1772025776820588300,1.76058837890625,0.2662258446216583,-0.25679394602775574,-0.22587744891643524
1772025776830585600,1.770585693359375,0.18375279009342194,-0.19226209819316864,-0.42735543847084045
1772025776840583400,1.78058349609375,0.11645899713039398,-0.11480116099119186,-0.6193636655807495
1772025776850580500,1.79058056640625,0.06972238421440125,-0.04065369814634323,-0.795356810092926
1772025776860577300,1.800577392578125,0.061790868639945984,0.04306691884994507,-0.9248610734939575
1772025776870575400,1.810575439453125,0.07310158014297485,0.125675231218338,-1.0153323411941528
1772025776880572400,1.820572509765625,0.09895583987236023,0.18399973213672638,-1.0683597326278687
1772025776890569500,1.830569580078125,0.1276783049106598,0.2354477345943451,-1.0854862928390503
1772025776900567300,1.8405673828125,0.15054121613502502,0.2731761634349823,-1.0721087455749512
1772025776910564400,1.850564453125,0.16601045429706573,0.27395033836364746,-1.0276073217391968
1772025776920561400,1.8605615234375,0.18805429339408875,0.2728148400783539,-0.9367855191230774
1772025776930559500,1.8705595703125,0.21379348635673523,0.2672991454601288,-0.8106563091278076
1772025776940556300,1.880556396484375,0.2552603781223297,0.2540525496006012,-0.6550453305244446
1772025776950553300,1.89055322265625,0.30992576479911804,0.2437295913696289,-0.48607900738716125
1772025776960551400,1.900551513671875,0.3692818880081177,0.2158263623714447,-0.32579323649406433
1772025776970548500,1.910548583984375,0.4134829044342041,0.1435796022415161,-0.21202486753463745
1772025776980545300,1.920545166015625,0.426023930311203,0.04624520614743233,-0.1460098773241043
1772025776990543400,1.93054345703125,0.41690579056739807,-0.047157712280750275,-0.10828912258148193
1772025777000540400,1.94054052734375,0.3875587284564972,-0.1392788141965866,-0.09561961889266968
1772025777010537500,1.950537353515625,0.33572909235954285,-0.2236911654472351,-0.08588976413011551
1772025777020535600,1.96053564453125,0.264813631772995,-0.28588172793388367,-0.07220763713121414
1772025777030532400,1.970532470703125,0.18202421069145203,-0.3375534415245056,-0.05636289343237877
1772025777040529400,1.980529296875,0.1012839749455452,-0.37515223026275635,-0.035612281411886215
1772025777050527200,1.99052734375,0.03818010538816452,-0.3993813991546631,-0.015191162005066872
1772025777060524500,2.000524658203125,-0.011304209008812904,-0.4038363993167877,0.0037730024196207523
1772025777070521300,2.010521240234375,-0.04351221024990082,-0.3948735296726227,0.008787734434008598
1772025777080519400,2.02051953125,-0.05548826977610588,-0.3831970989704132,0.015647802501916885
1772025777090516200,2.03051611328125,-0.044444140046834946,-0.3535776734352112,0.024072447791695595
1772025777100513500,2.040513427734375,-0.01744837872684002,-0.31466031074523926,0.04060171917080879
1772025777110511400,2.050511474609375,0.018489381298422813,-0.2942042946815491,0.0675816759467125
1772025777120508400,2.06050830078125,0.05663785710930824,-0.2744615375995636,0.11406433582305908
1772025777130505200,2.070505126953125,0.09597274661064148,-0.23452745378017426,0.17530693113803864
1772025777140503300,2.08050341796875,0.13677026331424713,-0.19616033136844635,0.2484074831008911
1772025777150500400,2.090500244140625,0.16856840252876282,-0.180402934551239,0.3133939504623413
1772025777160498400,2.10049853515625,0.18609295785427094,-0.17696048319339752,0.3709228038787842
1772025777170495500,2.11049560546875,0.20017682015895844,-0.17356149852275848,0.4222549796104431
1772025777180492300,2.1204921875,0.21835511922836304,-0.16616159677505493,0.46758630871772766
1772025777190490400,2.130490478515625,0.24306339025497437,-0.18373073637485504,0.4858841001987457
1772025777200487400,2.1404873046875,0.24734868109226227,-0.233647421002388,0.4808720350265503
1772025777210484500,2.150484375,0.20290905237197876,-0.2941374182701111,0.4314304292201996
1772025777220482300,2.160482421875,0.111040860414505,-0.34818753600120544,0.3500142991542816
1772025777230479400,2.170479248046875,0.01689731702208519,-0.38012924790382385,0.2635233402252197
1772025777240476400,2.180476318359375,-0.0649486556649208,-0.3727710545063019,0.18452167510986328
1772025777250474500,2.190474609375,-0.11712637543678284,-0.33938488364219666,0.11947796493768692
1772025777260471300,2.20047119140625,-0.1420239955186844,-0.2772916853427887,0.07122894376516342
1772025777270468400,2.21046826171875,-0.13967029750347137,-0.23717117309570312,0.034359607845544815
1772025777280466400,2.220466552734375,-0.12605957686901093,-0.20722056925296783,0.0015138500602915883
1772025777290463500,2.23046337890625,-0.11422128975391388,-0.20009101927280426,-0.04373219236731529
1772025777300460300,2.240460205078125,-0.0890563353896141,-0.22404566407203674,-0.09633904695510864
1772025777310458400,2.250458251953125,-0.07083605229854584,-0.25179582834243774,-0.16214920580387115
1772025777320455400,2.260455322265625,-0.06250711530447006,-0.2883661389350891,-0.22446008026599884
1772025777330452500,2.270452392578125,-0.06789788603782654,-0.30276933312416077,-0.2781025469303131
1772025777340450300,2.2804501953125,-0.07201695442199707,-0.3046037256717682,-0.3244275748729706
1772025777350447400,2.290447265625,-0.0748356431722641,-0.34154337644577026,-0.3553343713283539
1772025777360444400,2.3004443359375,-0.08606922626495361,-0.38705891370773315,-0.36893561482429504
1772025777370442500,2.3104423828125,-0.09856877475976944,-0.4079570174217224,-0.3606315851211548
1772025777380439300,2.320439208984375,-0.0973786860704422,-0.46001094579696655,-0.3271850645542145
1772025777390436400,2.330436279296875,-0.07606540620326996,-0.46099257469177246,-0.2537926137447357
1772025777400434400,2.340434326171875,-0.015237870626151562,-0.4035041928291321,-0.13721226155757904
1772025777410431500,2.350431396484375,0.06327930837869644,-0.28237828612327576,0.000688877422362566
1772025777420428300,2.36042822265625,0.14073684811592102,-0.132381409406662,0.13446544110774994
1772025777430426400,2.37042626953125,0.19009001553058624,-0.03406309708952904,0.22212551534175873
1772025777440423400,2.38042333984375,0.2146134227514267,0.021914759650826454,0.25866371393203735
1772025777450420500,2.39042041015625,0.21722306311130524,0.039670586585998535,0.24653565883636475
1772025777460418600,2.40041845703125,0.20063135027885437,0.03737250715494156,0.2049792855978012
1772025777470415400,2.410415283203125,0.1549203246831894,0.03058410994708538,0.1419081687927246
1772025777480412400,2.420412353515625,0.08151800185441971,0.021467424929142,0.06124728173017502
1772025777490410200,2.43041015625,-0.020781472325325012,-0.004943144507706165,-0.021631887182593346
1772025777500408300,2.440408203125,-0.13664177060127258,-0.01680474914610386,-0.09664127975702286
1772025777510406400,2.450406494140625,-0.24111491441726685,-0.02125702239573002,-0.16379715502262115
1772025777520403500,2.460403564453125,-0.3234211802482605,-0.03158944100141525,-0.23297518491744995
1772025777530400500,2.470400390625,-0.3716457188129425,-0.05066113546490669,-0.304441899061203
1772025777540398300,2.4803984375,-0.39679089188575745,-0.06911132484674454,-0.3715308606624603
1772025777550395400,2.4903955078125,-0.40758439898490906,-0.08117198944091797,-0.4409882128238678
1772025777560392400,2.500392333984375,-0.4075902998447418,-0.07577554136514664,-0.4982319176197052
1772025777570390500,2.510390625,-0.3933738172054291,-0.07349640876054764,-0.5407663583755493
1772025777580387600,2.5203876953125,-0.36895379424095154,-0.05046120658516884,-0.5566725730895996
1772025777590384400,2.53038427734375,-0.3336293697357178,-0.0247300136834383,-0.5495542287826538
1772025777600382500,2.540382568359375,-0.30269014835357666,0.0030259087216109037,-0.5240466594696045
1772025777610379500,2.550379638671875,-0.2811680734157562,0.020549243316054344,-0.48409155011177063
1772025777620376600,2.56037646484375,-0.27362343668937683,0.02732032909989357,-0.43961241841316223
1772025777630374400,2.57037451171875,-0.27313289046287537,0.024746384471654892,-0.39677175879478455
1772025777640371500,2.580371337890625,-0.2625385820865631,0.0012446343898773193,-0.3469230830669403
1772025777650368500,2.590368408203125,-0.252977579832077,-0.015147920697927475,-0.2929258942604065
1772025777660366600,2.60036669921875,-0.2415262758731842,-0.020155351608991623,-0.23952630162239075
1772025777670363400,2.61036328125,-0.2332848608493805,-0.028288643807172775,-0.1912333369255066
1772025777680360400,2.6203603515625,-0.23611290752887726,-0.04493480920791626,-0.1604623645544052
1772025777690358500,2.630358642578125,-0.24952512979507446,-0.05847484990954399,-0.14722245931625366
1772025777700355600,2.64035546875,-0.2654060125350952,-0.07074768096208572,-0.13950425386428833
1772025777710352400,2.650352294921875,-0.2730194628238678,-0.06130651384592056,-0.13531376421451569
1772025777720350500,2.6603505859375,-0.2714380621910095,-0.03160823509097099,-0.11741307377815247
1772025777730347500,2.670347412109375,-0.25824421644210815,0.010666517540812492,-0.08298133313655853
1772025777740344600,2.680344482421875,-0.24134157598018646,0.042724549770355225,-0.05017789453268051
1772025777750342400,2.69034228515625,-0.21879498660564423,0.06714573502540588,-0.016615407541394234
1772025777760339500,2.70033935546875,-0.20382237434387207,0.07979495078325272,0.016422811895608902
1772025777770336500,2.71033642578125,-0.1928727924823761,0.09436110407114029,0.047854505479335785
1772025777780334600,2.72033447265625,-0.1892460286617279,0.09301971644163132,0.07282945513725281
1772025777790331400,2.730331298828125,-0.19677479565143585,0.09020262211561203,0.09806876629590988
1772025777800328400,2.740328369140625,-0.1986459344625473,0.08856397867202759,0.11797589808702469
1772025777810326500,2.750326416015625,-0.209016814827919,0.08631440997123718,0.1390542834997177
1772025777820323600,2.760323486328125,-0.21964433789253235,0.07016359269618988,0.15528728067874908
1772025777830320400,2.7703203125,-0.22932998836040497,0.06036688759922981,0.16478331387043
1772025777840318500,2.780318359375,-0.24435316026210785,0.05359804257750511,0.17092390358448029
1772025777850315500,2.7903154296875,-0.2640434801578522,0.05769185349345207,0.1748451441526413
1772025777860313300,2.800313232421875,-0.2879393994808197,0.0735967829823494,0.1792060136795044
1772025777870310700,2.810310546875,-0.3264828026294708,0.0909281075000763,0.17885446548461914
1772025777880307500,2.820307373046875,-0.37137874960899353,0.10668139159679413,0.1773289293050766
1772025777890305500,2.830305419921875,-0.42141419649124146,0.12376396358013153,0.165491983294487
1772025777900302300,2.84030224609375,-0.46052300930023193,0.12580569088459015,0.14439402520656586
1772025777910299600,2.850299560546875,-0.5041087865829468,0.1253545582294464,0.11195058375597
1772025777920297500,2.86029736328125,-0.5451461672782898,0.1388448029756546,0.07823119312524796
1772025777930294500,2.87029443359375,-0.589887797832489,0.16895316541194916,0.04130992293357849
1772025777940291300,2.880291259765625,-0.629246711730957,0.19774216413497925,0.005299997981637716
1772025777950289400,2.890289306640625,-0.6538039445877075,0.23095791041851044,-0.020997386425733566
1772025777960286500,2.900286376953125,-0.6597161889076233,0.25811445713043213,-0.036988869309425354
1772025777970283500,2.910283447265625,-0.6547856330871582,0.2852669656276703,-0.03004574403166771
1772025777980281600,2.920281494140625,-0.6269381642341614,0.33411160111427307,-0.009144107811152935
1772025777990278400,2.9302783203125,-0.5647197961807251,0.3923757076263428,0.02617979422211647
1772025778000275500,2.940275390625,-0.4969916045665741,0.40496522188186646,0.04989445209503174
1772025778010273500,2.9502734375,-0.45328593254089355,0.3469357192516327,0.04059735685586929
1772025778020270600,2.9602705078125,-0.4676183760166168,0.27861207723617554,-0.0017860046355053782
1772025778030267400,2.970267333984375,-0.5226730704307556,0.24462564289569855,-0.05738508328795433
1772025778040265500,2.980265380859375,-0.582156777381897,0.20474064350128174,-0.11772333830595016
1772025778050262500,2.990262451171875,-0.6452664732933044,0.16499483585357666,-0.1693686842918396
1772025778060259600,3.000259521484375,-0.6973766684532166,0.16475287079811096,-0.2029738575220108
1772025778070257400,3.01025732421875,-0.7415321469306946,0.19968955218791962,-0.2204282134771347
1772025778080254500,3.02025439453125,-0.7509499192237854,0.2333579808473587,-0.21854695677757263
1772025778090251500,3.03025146484375,-0.7208924293518066,0.2501921057701111,-0.19858495891094208
1772025778100249600,3.04024951171875,-0.7018045783042908,0.255315899848938,-0.18060241639614105
1772025778110246400,3.050246337890625,-0.6710472106933594,0.24503503739833832,-0.16058450937271118
1772025778120243500,3.060243408203125,-0.6195127367973328,0.24057713150978088,-0.12555807828903198
1772025778130241300,3.0702412109375,-0.5673823952674866,0.22012698650360107,-0.08138369023799896
1772025778140238600,3.080238525390625,-0.5279079079627991,0.21888573467731476,-0.03216821327805519
1772025778150235400,3.0902353515625,-0.49434253573417664,0.22905127704143524,0.035616159439086914
1772025778160233500,3.1002333984375,-0.4596244990825653,0.24269039928913116,0.12184958159923553
1772025778170230300,3.110230224609375,-0.4272897243499756,0.2738155424594879,0.21639899909496307
1772025778180227600,3.1202275390625,-0.4005507230758667,0.29759904742240906,0.3105792701244354
1772025778190225400,3.130225341796875,-0.3726128339767456,0.30099084973335266,0.39649444818496704
1772025778200222500,3.140222412109375,-0.341719388961792,0.3043014109134674,0.4818146526813507
1772025778210219300,3.15021923828125,-0.3113146126270294,0.2998954951763153,0.5637795329093933
1772025778220217300,3.16021728515625,-0.2766737639904022,0.28616878390312195,0.6267550587654114
1772025778230214400,3.17021435546875,-0.2386864423751831,0.2559528350830078,0.6647083163261414
1772025778240212500,3.18021240234375,-0.2048601508140564,0.2274925708770752,0.672817587852478
1772025778250209500,3.19020947265625,-0.17594487965106964,0.18530942499637604,0.6526462435722351
1772025778260206300,3.200206298828125,-0.15141765773296356,0.12031654268503189,0.6087949872016907
1772025778270204700,3.21020458984375,-0.1386725753545761,0.07859359681606293,0.5539109706878662
1772025778280201500,3.220201416015625,-0.1395525187253952,0.07889031618833542,0.4850529730319977
1772025778290198500,3.230198486328125,-0.14026224613189697,0.07572248578071594,0.4147668182849884
1772025778300196400,3.2401962890625,-0.1401626020669937,0.062774159014225,0.3306800127029419
1772025778310193700,3.250193603515625,-0.14420688152313232,0.010769810527563095,0.23859617114067078
1772025778320190500,3.2601904296875,-0.17260561883449554,-0.08339842408895493,0.11816690117120743
1772025778330188500,3.2701884765625,-0.2366706281900406,-0.20832118391990662,-0.02185758762061596
1772025778340185300,3.280185302734375,-0.3310285210609436,-0.34769538044929504,-0.18135790526866913
1772025778350182700,3.2901826171875,-0.4336822032928467,-0.44305866956710815,-0.33163583278656006
1772025778360180500,3.300180419921875,-0.5080886483192444,-0.48116210103034973,-0.44300395250320435
1772025778370177500,3.310177490234375,-0.5535480380058289,-0.4582807719707489,-0.5159639120101929
1772025778380174300,3.32017431640625,-0.5660005211830139,-0.3544478118419647,-0.5501806735992432
1772025778390172400,3.33017236328125,-0.5513081550598145,-0.22945500910282135,-0.5470849871635437
1772025778400169500,3.34016943359375,-0.49742090702056885,-0.1206938624382019,-0.506210207939148
1772025778410166500,3.35016650390625,-0.4159683883190155,-0.03697659820318222,-0.4355922341346741
1772025778420164600,3.36016455078125,-0.3027617335319519,0.05965361371636391,-0.3296513557434082
1772025778430161400,3.370161376953125,-0.18598584830760956,0.13058771193027496,-0.21333009004592896
1772025778440158500,3.380158447265625,-0.09494362026453018,0.1560608446598053,-0.11049064248800278
1772025778450156500,3.390156494140625,-0.03573276102542877,0.15145038068294525,-0.03577645495533943
1772025778460153600,3.400153564453125,0.007638176903128624,0.15220797061920166,0.020514370873570442
1772025778470150400,3.410150390625,0.04449153319001198,0.15689833462238312,0.06391377747058868
1772025778480148500,3.4201484375,0.0769994705915451,0.15873776376247406,0.08800004422664642
1772025778490145500,3.4301455078125,0.10211440920829773,0.16309763491153717,0.09336471557617188
1772025778500142000,3.44014208984375,0.10732568800449371,0.14735108613967896,0.08004023879766464
1772025778510140200,3.45014013671875,0.08903615921735764,0.11805738508701324,0.04836806282401085
1772025778520137000,3.460136962890625,0.06628987938165665,0.08431996405124664,0.01309981569647789
1772025778530134300,3.47013427734375,0.040878262370824814,0.03958098590373993,-0.028979195281863213
1772025778540132000,3.480132080078125,0.008333235047757626,-0.034639328718185425,-0.08073115348815918
1772025778550129200,3.490129150390625,-0.03369517624378204,-0.13037757575511932,-0.13636751472949982
1772025778560126000,3.5001259765625,-0.08214942365884781,-0.2190876603126526,-0.1706092804670334
1772025778570124000,3.5101240234375,-0.12150508910417557,-0.2801475524902344,-0.18390217423439026
1772025778580121000,3.52012109375,-0.15229293704032898,-0.33221426606178284,-0.1831154227256775
1772025778590119200,3.530119140625,-0.18655504286289215,-0.38961151242256165,-0.1749030351638794
1772025778600116000,3.540115966796875,-0.22112374007701874,-0.4497905671596527,-0.16327643394470215
1772025778610113000,3.550113037109375,-0.25971028208732605,-0.5055704712867737,-0.13837453722953796
1772025778620111000,3.560111083984375,-0.2911524176597595,-0.5411762595176697,-0.099513940513134
1772025778630108200,3.570108154296875,-0.30414944887161255,-0.568869948387146,-0.055184029042720795
1772025778640105000,3.58010498046875,-0.30435219407081604,-0.5976089835166931,-0.005879419390112162
1772025778650103000,3.59010302734375,-0.2888757586479187,-0.6121634244918823,0.037616126239299774
1772025778660100000,3.60010009765625,-0.2775347828865051,-0.6094376444816589,0.08491044491529465
1772025778670097200,3.61009716796875,-0.26485785841941833,-0.5963317155838013,0.13598747551441193
1772025778680095200,3.62009521484375,-0.2469348907470703,-0.5748939514160156,0.18279831111431122
1772025778690092000,3.630092041015625,-0.22320400178432465,-0.5499278903007507,0.2175067514181137
1772025778700089300,3.64008935546875,-0.2023809403181076,-0.5179035067558289,0.2310681939125061
1772025778710087200,3.650087158203125,-0.1803443431854248,-0.5000518560409546,0.23068976402282715
1772025778720084200,3.660084228515625,-0.17889532446861267,-0.48373177647590637,0.22684496641159058
1772025778730081000,3.6700810546875,-0.17646093666553497,-0.4514601230621338,0.23425334692001343
1772025778740079000,3.6800791015625,-0.1768103986978531,-0.4111531674861908,0.2552938163280487
1772025778750076200,3.690076171875,-0.18074974417686462,-0.3752524256706238,0.2900797426700592
1772025778760073200,3.7000732421875,-0.17199160158634186,-0.3416830897331238,0.32888463139533997
1772025778770071000,3.710071044921875,-0.14891983568668365,-0.3234942555427551,0.3738393187522888
1772025778780068000,3.720068115234375,-0.12633302807807922,-0.33054283261299133,0.40768569707870483
1772025778790065200,3.730065185546875,-0.12588483095169067,-0.349138081073761,0.4133092164993286
1772025778800063200,3.740063232421875,-0.13726893067359924,-0.3757695257663727,0.38292211294174194
1772025778810060000,3.75006005859375,-0.14782756567001343,-0.39399805665016174,0.33323657512664795
1772025778820057000,3.76005712890625,-0.16480962932109833,-0.3883078098297119,0.2603485882282257
1772025778830055000,3.770054931640625,-0.19477632641792297,-0.3696880340576172,0.1715172678232193
1772025778840052200,3.78005224609375,-0.24182522296905518,-0.35403335094451904,0.0701230838894844
1772025778850049000,3.790049072265625,-0.2903253734111786,-0.33718937635421753,-0.031686633825302124
1772025778860047000,3.800047119140625,-0.3208923637866974,-0.31640613079071045,-0.1244162917137146
1772025778870044000,3.8100439453125,-0.3384314179420471,-0.3106473386287689,-0.21193255484104156
1772025778880041200,3.820041259765625,-0.3556027114391327,-0.341511070728302,-0.2973704934120178
1772025778890039300,3.830039306640625,-0.37565016746520996,-0.3857608139514923,-0.3796597719192505
1772025778900036000,3.8400361328125,-0.3922004699707031,-0.43048742413520813,-0.4464389979839325
1772025778910033000,3.850032958984375,-0.4167364239692688,-0.46517086029052734,-0.490894079208374
1772025778920031000,3.860031005859375,-0.4504324197769165,-0.4726431965827942,-0.5206416845321655
1772025778930028300,3.8700283203125,-0.49394315481185913,-0.4692186415195465,-0.528754472732544
1772025778940025000,3.880025146484375,-0.5312018394470215,-0.45303860306739807,-0.5229072570800781
1772025778950023200,3.890023193359375,-0.549358606338501,-0.42516595125198364,-0.508546769618988
1772025778960020000,3.90002001953125,-0.5617401599884033,-0.3763071298599243,-0.4686301052570343
1772025778970017300,3.910017333984375,-0.5418726801872253,-0.31919535994529724,-0.4040444791316986
1772025778980015000,3.92001513671875,-0.48320454359054565,-0.2409859448671341,-0.3045499920845032
1772025778990012200,3.93001220703125,-0.3975474238395691,-0.14687010645866394,-0.19655641913414001
1772025779000010000,3.940010009765625,-0.30675074458122253,-0.039994604885578156,-0.08544383943080902
1772025779010007000,3.950007080078125,-0.22843702137470245,0.054362788796424866,0.004056751262396574
1772025779020004000,3.960004150390625,-0.18512561917304993,0.12504053115844727,0.059309277683496475
1772025779030002200,3.970002197265625,-0.17874974012374878,0.17811253666877747,0.07592074573040009
1772025779039999000,3.9799990234375,-0.1913769692182541,0.20755724608898163,0.05936019495129585
1772025779049996000,3.98999609375,-0.21878568828105927,0.2258225381374359,0.01951025053858757
1772025779059993900,3.999993896484375,-0.25534552335739136,0.24385373294353485,-0.036508701741695404
1772025779069991200,4.0099912109375,-0.28629598021507263,0.2799614369869232,-0.0915013775229454
1772025779079988000,4.019988037109375,-0.3275966942310333,0.30431780219078064,-0.1596534699201584
1772025779089986000,4.029986083984375,-0.3637927770614624,0.3064912259578705,-0.23481452465057373
1772025779099983000,4.039983154296875,-0.40135660767555237,0.28336986899375916,-0.3243187367916107
1772025779109980200,4.049980224609375,-0.43063458800315857,0.23585109412670135,-0.4110986590385437
1772025779119978200,4.059978271484375,-0.4418300986289978,0.17613016068935394,-0.48911577463150024
1772025779129975000,4.06997509765625,-0.4472874402999878,0.12496178597211838,-0.5552444458007812
1772025779139972000,4.07997216796875,-0.4427441358566284,0.07339739054441452,-0.6070553064346313
1772025779149970200,4.08997021484375,-0.4376431107521057,0.06763164699077606,-0.6394504904747009
1772025779159967200,4.09996728515625,-0.4256419539451599,0.09553396701812744,-0.6540918350219727
1772025779169964000,4.109964111328125,-0.4056759774684906,0.11112357676029205,-0.6477186679840088
1772025779179962000,4.119962158203125,-0.37654998898506165,0.13499252498149872,-0.6104804873466492
1772025779189959200,4.129959228515625,-0.34373825788497925,0.16210776567459106,-0.5425126552581787
1772025779199956200,4.139956298828125,-0.30618587136268616,0.179769828915596,-0.4563045799732208
1772025779209954000,4.1499541015625,-0.26617613434791565,0.17452207207679749,-0.3510228991508484
1772025779219951000,4.159951171875,-0.2412126213312149,0.15845301747322083,-0.25183582305908203
1772025779229948200,4.1699482421875,-0.23361675441265106,0.1259390115737915,-0.1684333235025406
1772025779239946200,4.1799462890625,-0.2440463900566101,0.08662542700767517,-0.10556492954492569
1772025779249943000,4.189943115234375,-0.26486697793006897,0.06623360514640808,-0.06576771289110184
1772025779259940000,4.199940185546875,-0.2868790924549103,0.07606706023216248,-0.0422687865793705
1772025779269938000,4.20993798828125,-0.3042841851711273,0.09415045380592346,-0.04185519739985466
1772025779279935200,4.219935302734375,-0.32253482937812805,0.11612986773252487,-0.0533929318189621
1772025779289932000,4.22993212890625,-0.32912564277648926,0.13119669258594513,-0.07511340081691742
1772025779299930000,4.23993017578125,-0.3227739930152893,0.14613080024719238,-0.10212092846632004
1772025779309927000,4.249927001953125,-0.30070358514785767,0.1551695466041565,-0.13035549223423004
1772025779319924200,4.25992431640625,-0.2721250653266907,0.15350070595741272,-0.16037990152835846
1772025779329922300,4.26992236328125,-0.23334544897079468,0.16167980432510376,-0.17656844854354858
1772025779339919000,4.279919189453125,-0.18842026591300964,0.1833033412694931,-0.16786833107471466
1772025779349916200,4.289916259765625,-0.15527136623859406,0.22189787030220032,-0.15644070506095886
1772025779359914000,4.2999140625,-0.10809145867824554,0.22517818212509155,-0.12248067557811737
1772025779369911300,4.309911376953125,-0.06218495965003967,0.21842892467975616,-0.10756377875804901
1772025779379908000,4.319908203125,-0.0188409723341465,0.1859687864780426,-0.0845043882727623
1772025779389906200,4.32990625,0.017893340438604355,0.15017910301685333,-0.06728971004486084
1772025779399903000,4.339903076171875,0.030922366306185722,0.1137496829032898,-0.056044936180114746
1772025779409900300,4.349900390625,0.03705029934644699,0.10176253318786621,-0.04043321684002876
1772025779419898000,4.359898193359375,0.048982396721839905,0.10143382102251053,-0.028577664867043495
1772025779429895200,4.369895263671875,0.06612223386764526,0.11816699802875519,-0.015885837376117706
1772025779439893000,4.37989306640625,0.08379261195659637,0.1462564468383789,-0.004681933205574751
1772025779449890000,4.38989013671875,0.09791748970746994,0.16951356828212738,-0.0074478923343122005
1772025779459887000,4.39988720703125,0.12029965221881866,0.18716956675052643,0.00007745588663965464
1772025779469885200,4.40988525390625,0.1472817361354828,0.22170570492744446,0.019541967660188675
1772025779479882000,4.419882080078125,0.1740514039993286,0.2365577667951584,0.03402724489569664
1772025779489879000,4.429879150390625,0.19161655008792877,0.20304028689861298,0.037603870034217834
1772025779499877000,4.439877197265625,0.17847386002540588,0.12879019975662231,0.017001783475279808
1772025779509874400,4.44987451171875,0.13793842494487762,0.06357896327972412,-0.010192552581429482
1772025779519871200,4.459871337890625,0.09036926925182343,0.03294800594449043,-0.026616787537932396
1772025779529869300,4.469869384765625,0.05903051793575287,0.05800542235374451,-0.029728690162301064
1772025779539866000,4.4798662109375,0.04962760955095291,0.13248609006404877,-0.01361625175923109
1772025779549863400,4.489863525390625,0.05877849832177162,0.23483243584632874,0.016044704243540764
1772025779559861200,4.499861328125,0.08902569115161896,0.33504992723464966,0.05019477382302284
1772025779569858300,4.5098583984375,0.1320440024137497,0.40726712346076965,0.08683667331933975
1772025779579855000,4.519855224609375,0.18494607508182526,0.43816500902175903,0.09741584211587906
1772025779589853200,4.529853271484375,0.2293420284986496,0.43463632464408875,0.08224701136350632
1772025779599850200,4.539850341796875,0.2621186077594757,0.4050064980983734,0.039097677916288376
1772025779609847300,4.549847412109375,0.28448835015296936,0.35079678893089294,-0.01331519428640604
1772025779619845000,4.55984521484375,0.28905659914016724,0.30894455313682556,-0.0728817731142044
1772025779629842200,4.56984228515625,0.27687397599220276,0.2643166184425354,-0.14571283757686615
1772025779639839200,4.579839111328125,0.2716655135154724,0.21321167051792145,-0.220381960272789
1772025779649837300,4.58983740234375,0.2797577977180481,0.17351965606212616,-0.28226369619369507
1772025779659834000,4.599834228515625,0.3124985992908478,0.1357094943523407,-0.323742151260376
1772025779669831200,4.6098310546875,0.36421266198158264,0.1082318052649498,-0.33406588435173035
1772025779679829200,4.619829345703125,0.43329569697380066,0.08285301923751831,-0.31794992089271545
1772025779689826300,4.629826416015625,0.49754446744918823,0.06472780555486679,-0.28128325939178467
1772025779699823000,4.639822998046875,0.5481616854667664,0.03613889217376709,-0.2368861585855484
1772025779709821200,4.6498212890625,0.5966522097587585,0.0065264045260846615,-0.18588636815547943
1772025779719818200,4.659818359375,0.6456670165061951,0.008585029281675816,-0.1075572595000267
1772025779729815300,4.669815185546875,0.7215337753295898,0.051336221396923065,-0.0021280371583998203
1772025779739813400,4.6798134765625,0.8079452514648438,0.11668581515550613,0.11923494935035706
1772025779749810200,4.68981005859375,0.8902257680892944,0.17837581038475037,0.23435381054878235
1772025779759807200,4.69980712890625,0.9356521368026733,0.2135135978460312,0.3282700181007385
1772025779769805300,4.709805419921875,0.9663368463516235,0.22290655970573425,0.4022805988788605
1772025779779802400,4.71980224609375,0.977818489074707,0.18193873763084412,0.4499927759170532
1772025779789799200,4.729799072265625,0.9617036581039429,0.11041449010372162,0.4699382483959198
1772025779799797200,4.73979736328125,0.9334235191345215,0.03054766170680523,0.47013625502586365
1772025779809794300,4.749794189453125,0.8997763395309448,-0.06500203162431717,0.46337318420410156
1772025779819791400,4.759791259765625,0.846878707408905,-0.17380870878696442,0.4487539231777191
1772025779829789200,4.7697890625,0.7689919471740723,-0.2765875458717346,0.42976823449134827
1772025779839786200,4.7797861328125,0.6685463786125183,-0.3436686396598816,0.4043654799461365
1772025779849783300,4.789783203125,0.5551042556762695,-0.3759903609752655,0.361327201128006
1772025779859781400,4.799781494140625,0.4548478424549103,-0.3981817364692688,0.2990580201148987
1772025779869778200,4.809778076171875,0.3648170232772827,-0.4248860478401184,0.21595355868339539
1772025779879776300,4.8197763671875,0.27566564083099365,-0.42530766129493713,0.11148089170455933
1772025779889773000,4.82977294921875,0.1686433106660843,-0.4172457456588745,-0.013467169366776943
1772025779899770400,4.839770263671875,0.04258814454078674,-0.4227231442928314,-0.15251025557518005
1772025779909768400,4.8497685546875,-0.08673042804002762,-0.431866854429245,-0.28662678599357605
1772025779919765200,4.85976513671875,-0.20693093538284302,-0.40699630975723267,-0.40096399188041687
1772025779929762000,4.869761962890625,-0.28920504450798035,-0.3376185894012451,-0.466447114944458
1772025779939760000,4.879760009765625,-0.3237060606479645,-0.24621404707431793,-0.47949060797691345
1772025779949757400,4.88975732421875,-0.31133514642715454,-0.1345391869544983,-0.43369513750076294
1772025779959754200,4.899754150390625,-0.24756556749343872,-0.0071813794784247875,-0.33815768361091614
1772025779969752300,4.90975244140625,-0.1338600516319275,0.144044890999794,-0.21286872029304504
1772025779979749000,4.9197490234375,0.012081669643521309,0.3074296712875366,-0.06756556034088135
1772025779989746400,4.929746337890625,0.1901739090681076,0.46260035037994385,0.04910752922296524
1772025779999744300,4.939744140625,0.358374685049057,0.5508863925933838,0.113958939909935
1772025780009741300,4.9497412109375,0.4963027238845825,0.594879686832428,0.13605812191963196
1772025780019738000,4.959738037109375,0.6190513372421265,0.6190061569213867,0.13379013538360596
1772025780029736200,4.969736083984375,0.7121509313583374,0.626467227935791,0.11956779658794403
1772025780039733200,4.979733154296875,0.7880921363830566,0.6176140308380127,0.08591963350772858
1772025780049730300,4.989730224609375,0.8279391527175903,0.5826368927955627,0.04171142727136612
1772025780059728100,4.99972802734375,0.8368633985519409,0.5254297852516174,0.006139959208667278
1772025780069725200,5.00972509765625,0.8023893237113953,0.42701664566993713,-0.02017899788916111
1772025780079722200,5.01972216796875,0.7397569417953491,0.30178752541542053,-0.04158126562833786
1772025780089720300,5.02972021484375,0.6596165895462036,0.16234202682971954,-0.036670662462711334
1772025780099717000,5.039717041015625,0.5720506310462952,0.030008522793650627,-0.014650372788310051
1772025780109714200,5.049714111328125,0.47539278864860535,-0.09757474064826965,0.02170044369995594
1772025780119712000,5.0597119140625,0.39869746565818787,-0.20683978497982025,0.06704051047563553
1772025780129709300,5.069709228515625,0.3376130759716034,-0.2926543056964874,0.11370042711496353
1772025780139706000,5.0797060546875,0.2894691526889801,-0.373675137758255,0.142715185880661
1772025780149704200,5.0897041015625,0.2534291446208954,-0.439617395401001,0.16863121092319489
1772025780159701000,5.099700927734375,0.2287263423204422,-0.48414841294288635,0.17535068094730377
1772025780169698300,5.1096982421875,0.21767635643482208,-0.5014208555221558,0.17004966735839844
1772025780179696400,5.1196962890625,0.22141052782535553,-0.5048258304595947,0.15806138515472412
1772025780189693200,5.129693115234375,0.24254751205444336,-0.49502915143966675,0.1415092945098877
1772025780199690200,5.139690185546875,0.28611335158348083,-0.46561217308044434,0.12840069830417633
1772025780209688000,5.14968798828125,0.34762251377105713,-0.4132547080516815,0.12525975704193115
1772025780219685400,5.159685302734375,0.41513410210609436,-0.3474343419075012,0.12784306704998016
1772025780229682200,5.16968212890625,0.4863896369934082,-0.27226048707962036,0.14183159172534943
1772025780239680300,5.17968017578125,0.5484030246734619,-0.19851355254650116,0.16356025636196136
1772025780249677000,5.189677001953125,0.5967399477958679,-0.14113681018352509,0.18616437911987305
1772025780259674400,5.19967431640625,0.6273572444915771,-0.11153567582368851,0.21015027165412903
1772025780269672200,5.209672119140625,0.6330191493034363,-0.11224513500928879,0.23309312760829926
1772025780279669200,5.219669189453125,0.6369594931602478,-0.1350231170654297,0.2593376934528351
1772025780289666000,5.229666015625,0.6370862722396851,-0.17047566175460815,0.28210559487342834
1772025780299664400,5.239664306640625,0.642825722694397,-0.20491522550582886,0.30396515130996704
1772025780309661200,5.2496611328125,0.6440116763114929,-0.2494422197341919,0.32353296875953674
1772025780319659300,5.2596591796875,0.6396560072898865,-0.3040321469306946,0.3119450807571411
1772025780329656000,5.269656005859375,0.6217741966247559,-0.3471210300922394,0.28347963094711304
1772025780339653400,5.2796533203125,0.6130067706108093,-0.3686898648738861,0.22732168436050415
1772025780349651500,5.2896513671875,0.6223180294036865,-0.39317336678504944,0.15610235929489136
1772025780359648300,5.299648193359375,0.6412950754165649,-0.41858628392219543,0.07796898484230042
1772025780369645000,5.30964501953125,0.6626778244972229,-0.4297744929790497,0.0002765835961326957
1772025780379643100,5.31964306640625,0.6877911686897278,-0.4249478280544281,-0.06803348660469055
1772025780389640400,5.329640380859375,0.7150185108184814,-0.40295252203941345,-0.10741045325994492
1772025780399636200,5.33963623046875,0.7542043924331665,-0.38002321124076843,-0.10751277208328247
1772025780409633300,5.34963330078125,0.7947723269462585,-0.3745062053203583,-0.0823938399553299
1772025780419631400,5.35963134765625,0.8203759789466858,-0.36545076966285706,-0.04148462787270546
1772025780429628200,5.369628173828125,0.8410799503326416,-0.35579654574394226,0.00924140028655529
1772025780439625200,5.379625244140625,0.8490839004516602,-0.3594071865081787,0.061872053891420364
1772025780449623000,5.389623046875,0.83101886510849,-0.3926548659801483,0.11484445631504059
1772025780459620400,5.399620361328125,0.7894333004951477,-0.4100766181945801,0.17272579669952393
1772025780469617200,5.4096171875,0.7219751477241516,-0.38853830099105835,0.23836925625801086
1772025780479615200,5.419615234375,0.6410824656486511,-0.36357900500297546,0.2879332900047302
1772025780489612300,5.4296123046875,0.5540202856063843,-0.3218193054199219,0.3342027962207794
1772025780499609300,5.439609375,0.4811500012874603,-0.26378995180130005,0.37493589520454407
1772025780509607400,5.449607421875,0.42637863755226135,-0.2106010466814041,0.4067356288433075
1772025780519604200,5.459604248046875,0.39667248725891113,-0.15805520117282867,0.43512076139450073
1772025780529601300,5.469601318359375,0.3791118562221527,-0.07754544913768768,0.4672352969646454
1772025780539599000,5.47959912109375,0.38206735253334045,0.04050902649760246,0.4985855221748352
1772025780549596400,5.489596435546875,0.40619930624961853,0.1737629473209381,0.5235409736633301
1772025780559593200,5.49959326171875,0.4435229003429413,0.2843824028968811,0.5237007737159729
1772025780569591300,5.50959130859375,0.47498759627342224,0.36451929807662964,0.49518072605133057
1772025780579588000,5.519588134765625,0.4838317036628723,0.4188600480556488,0.4387992024421692
1772025780589585400,5.52958544921875,0.4779343903064728,0.45128828287124634,0.3698701858520508
1772025780599583200,5.539583251953125,0.46872761845588684,0.4942006468772888,0.2983023524284363
1772025780609580300,5.549580322265625,0.45970457792282104,0.5383661985397339,0.2212643176317215
1772025780619577000,5.5595771484375,0.45719799399375916,0.5820907354354858,0.14098826050758362
1772025780629575200,5.5695751953125,0.4694434702396393,0.6122696399688721,0.06023508310317993
1772025780639572500,5.579572509765625,0.48599112033843994,0.6329301595687866,-0.016819803044199944
1772025780649569300,5.5895693359375,0.5152505040168762,0.6343088746070862,-0.09609252214431763
1772025780659567400,5.5995673828125,0.5524234175682068,0.6158195734024048,-0.1773449033498764
1772025780669564200,5.609564208984375,0.59947669506073,0.5584734678268433,-0.25325724482536316
1772025780679561500,5.6195615234375,0.6579552888870239,0.4751499891281128,-0.3138223886489868
1772025780689559300,5.629559326171875,0.7082938551902771,0.40515464544296265,-0.35277801752090454
1772025780699556400,5.639556396484375,0.7593736052513123,0.35592666268348694,-0.3532210886478424
1772025780709553200,5.64955322265625,0.8016065359115601,0.32393625378608704,-0.32309967279434204
1772025780719551200,5.65955126953125,0.8363873958587646,0.2936141788959503,-0.27036264538764954
1772025780729548300,5.66954833984375,0.8598024249076843,0.2665175795555115,-0.20272395014762878
1772025780739546400,5.67954638671875,0.8799974322319031,0.24688385426998138,-0.12897582352161407
1772025780749543200,5.689543212890625,0.8919781446456909,0.23354807496070862,-0.06198055297136307
1772025780759540200,5.699540283203125,0.8950514197349548,0.21916113793849945,-0.010747030377388
1772025780769538000,5.7095380859375,0.8910647034645081,0.21313679218292236,0.02729462832212448
1772025780779535400,5.719535400390625,0.8861644864082336,0.21258209645748138,0.04177502542734146
1772025780789532200,5.7295322265625,0.8771699070930481,0.2305658906698227,0.03898350149393082
1772025780799530200,5.7395302734375,0.8688177466392517,0.25582370162010193,0.01720254495739937
1772025780809527000,5.749527099609375,0.8575709462165833,0.2902514636516571,-0.019271576777100563
1772025780819524400,5.7595244140625,0.8407821655273438,0.33023542165756226,-0.06965316087007523
1772025780829522400,5.7695224609375,0.8269691467285156,0.3742697238922119,-0.1216183602809906
1772025780839519200,5.779519287109375,0.8216235041618347,0.42549607157707214,-0.1685120314359665
1772025780849516000,5.78951611328125,0.8185710310935974,0.4788399934768677,-0.20748738944530487
1772025780859514000,5.79951416015625,0.818946897983551,0.5221165418624878,-0.23488736152648926
1772025780869511400,5.809511474609375,0.8251813650131226,0.5530955195426941,-0.2524959146976471
1772025780879508200,5.81950830078125,0.84380042552948,0.5746679306030273,-0.251360684633255
1772025780889506300,5.82950634765625,0.8631000518798828,0.5908205509185791,-0.24307824671268463
1772025780899503000,5.839503173828125,0.8887115120887756,0.602586030960083,-0.22881998121738434
1772025780909500400,5.84950048828125,0.9207363128662109,0.613640308380127,-0.21215525269508362
1772025780919498200,5.859498291015625,0.955773651599884,0.6165722012519836,-0.19691024720668793
1772025780929495300,5.869495361328125,0.9980465173721313,0.6094021797180176,-0.18081437051296234
1772025780939492400,5.879492431640625,1.0400965213775635,0.6033497452735901,-0.1652824729681015
1772025780949490400,5.889490478515625,1.0806258916854858,0.5978881120681763,-0.15106812119483948
1772025780959487200,5.8994873046875,1.1208536624908447,0.5946844816207886,-0.12874382734298706
1772025780969484300,5.909484375,1.166355848312378,0.5861474871635437,-0.1042637825012207
1772025780979482000,5.919482177734375,1.2012940645217896,0.5734891891479492,-0.06979469954967499
1772025780989479400,5.9294794921875,1.2258111238479614,0.5484150052070618,-0.04243151471018791
1772025780999476200,5.939476318359375,1.239963173866272,0.5156089663505554,-0.013509999960660934
1772025781009476000,5.94947607421875,1.2475779056549072,0.4810419976711273,0.014871574006974697
1772025781019473400,5.959473388671875,1.2414875030517578,0.45422348380088806,0.036374449729919434
1772025781029470200,5.96947021484375,1.2151174545288086,0.4373877942562103,0.04803989455103874
1772025781039468300,5.97946826171875,1.1828134059906006,0.42226219177246094,0.053451262414455414
1772025781049465000,5.989465087890625,1.1517950296401978,0.40868088603019714,0.0531173013150692
1772025781059462400,5.99946240234375,1.1282557249069214,0.40765708684921265,0.0472620353102684
1772025781069460200,6.009460205078125,1.1149553060531616,0.3913348615169525,0.03636224940419197
1772025781079457300,6.019457275390625,1.1013926267623901,0.3608415722846985,0.011373020708560944
1772025781089454000,6.0294541015625,1.0831449031829834,0.32535892724990845,-0.018829887732863426
1772025781099452200,6.0394521484375,1.0489009618759155,0.2862859070301056,-0.053975097835063934
1772025781109449500,6.049449462890625,1.0118968486785889,0.28165385127067566,-0.07533684372901917
1772025781119446300,6.0594462890625,0.9771592020988464,0.30200114846229553,-0.07473698258399963
1772025781129444400,6.0694443359375,0.9695473313331604,0.3503532409667969,-0.03729560598731041
1772025781139441200,6.079441162109375,0.9782295227050781,0.40129968523979187,0.03264285624027252
1772025781149438500,6.0894384765625,0.9973046779632568,0.4374427795410156,0.10657593607902527
1772025781159436300,6.099436279296875,1.0190825462341309,0.45388147234916687,0.1852049082517624
1772025781169433300,6.109433349609375,1.0614020824432373,0.4410346448421478,0.25824475288391113
1772025781179430100,6.11943017578125,1.0975286960601807,0.42526552081108093,0.3148796558380127
1772025781189428200,6.12942822265625,1.1140028238296509,0.41315558552742004,0.3456847071647644
1772025781199425300,6.13942529296875,1.1164125204086304,0.4070886969566345,0.34390243887901306
1772025781209423400,6.14942333984375,1.1220866441726685,0.4053563177585602,0.32384857535362244
1772025781219420200,6.159420166015625,1.1416363716125488,0.4283111095428467,0.3049125671386719
1772025781229417200,6.169417236328125,1.1534706354141235,0.44656839966773987,0.28215292096138
1772025781239415300,6.179415283203125,1.167323112487793,0.4596865475177765,0.2574361264705658
1772025781249412400,6.189412353515625,1.1742651462554932,0.4660187363624573,0.22661297023296356
1772025781259409200,6.1994091796875,1.1843650341033936,0.45549359917640686,0.18695607781410217
1772025781269407200,6.2094072265625,1.1871554851531982,0.4316290020942688,0.13219189643859863
1772025781279404300,6.219404296875,1.179884433746338,0.4126732051372528,0.06488143652677536
1772025781289401300,6.2294013671875,1.1591072082519531,0.3933123052120209,-0.013821096159517765
1772025781299399400,6.2393994140625,1.1324691772460938,0.37526360154151917,-0.08886142075061798
1772025781309396200,6.249396240234375,1.1053900718688965,0.3951379656791687,-0.1519077718257904
1772025781319393300,6.259393310546875,1.0868804454803467,0.444798082113266,-0.19300921261310577
1772025781329391400,6.269391357421875,1.0905852317810059,0.5003015995025635,-0.21482770144939423
1772025781339388400,6.279388427734375,1.1104267835617065,0.5673325061798096,-0.2188822478055954
1772025781349385200,6.28938525390625,1.1463658809661865,0.6214473843574524,-0.20862028002738953
1772025781359383300,6.29938330078125,1.1848775148391724,0.6457890272140503,-0.20117847621440887
1772025781369380400,6.30938037109375,1.2289299964904785,0.6442849040031433,-0.1898195594549179
1772025781379377400,6.31937744140625,1.271618366241455,0.6358363032341003,-0.18353158235549927
1772025781389375200,6.329375244140625,1.314276099205017,0.6067506074905396,-0.18876682221889496
1772025781399372300,6.339372314453125,1.3423088788986206,0.5323963165283203,-0.2073645293712616
1772025781409369300,6.349369384765625,1.3538109064102173,0.4584043323993683,-0.22787007689476013
1772025781419367400,6.359367431640625,1.3523969650268555,0.4453636109828949,-0.2503023147583008
1772025781429364200,6.3693642578125,1.3372856378555298,0.4338236153125763,-0.28681132197380066
1772025781439361300,6.379361328125,1.3254915475845337,0.39343276619911194,-0.324186235666275
1772025781449359000,6.389359130859375,1.3027023077011108,0.3667210042476654,-0.3523467779159546
1772025781459356400,6.3993564453125,1.2586544752120972,0.3429674208164215,-0.373887300491333
1772025781469353200,6.409353271484375,1.1885863542556763,0.29325950145721436,-0.39374011754989624
1772025781479351300,6.419351318359375,1.115666151046753,0.2301768809556961,-0.4022454619407654
1772025781489348000,6.42934814453125,1.0525790452957153,0.17413091659545898,-0.406308650970459
1772025781499345200,6.43934521484375,0.9979139566421509,0.11758056282997131,-0.41094309091567993
1772025781509343200,6.44934326171875,0.9526708722114563,0.06948307156562805,-0.4150853753089905
1772025781519340000,6.459340087890625,0.9267894625663757,0.04907721281051636,-0.40680837631225586
1772025781529337000,6.469337158203125,0.9073116183280945,0.07556954026222229,-0.38802430033683777
1772025781539335200,6.479335205078125,0.9036751389503479,0.11512722074985504,-0.367527574300766
1772025781549332200,6.489332275390625,0.9226880073547363,0.1543467938899994,-0.3310728967189789
1772025781559329000,6.4993291015625,0.961130678653717,0.20807184278964996,-0.29011812806129456
1772025781569327000,6.5093271484375,1.006398320198059,0.27224549651145935,-0.24062088131904602
1772025781579324200,6.51932421875,1.053633213043213,0.32165229320526123,-0.19143429398536682
1772025781589321200,6.5293212890625,1.095628023147583,0.3613714575767517,-0.1500738114118576
1772025781599319300,6.5393193359375,1.1288527250289917,0.37593138217926025,-0.12054987251758575
1772025781609316000,6.549316162109375,1.1492136716842651,0.37113475799560547,-0.10226886719465256
1772025781619313200,6.559313232421875,1.157297134399414,0.346189022064209,-0.09034767001867294
1772025781629311000,6.56931103515625,1.1660224199295044,0.3251180946826935,-0.06631796807050705
1772025781639308300,6.579308349609375,1.1715351343154907,0.3127976357936859,-0.025600340217351913
1772025781649305000,6.58930517578125,1.1757633686065674,0.28724992275238037,0.02064438723027706
1772025781659303200,6.59930322265625,1.1789034605026245,0.2590691149234772,0.07043576240539551
1772025781669300000,6.609300048828125,1.1788947582244873,0.22946646809577942,0.120701864361763
1772025781679297300,6.61929736328125,1.1717239618301392,0.20936192572116852,0.1636127084493637
1772025781689295000,6.629295166015625,1.149992823600769,0.20231600105762482,0.1976146101951599
1772025781699292200,6.639292236328125,1.1295782327651978,0.21794573962688446,0.2203281968832016
1772025781709289000,6.6492890625,1.1083520650863647,0.24087609350681305,0.23570981621742249
1772025781719287000,6.659287109375,1.0891021490097046,0.24681083858013153,0.23779775202274323
1772025781729284000,6.6692841796875,1.0666764974594116,0.23689322173595428,0.22821544110774994
1772025781739282200,6.6792822265625,1.0303328037261963,0.22734315693378448,0.20300504565238953
1772025781749279200,6.689279296875,0.992517352104187,0.21316049993038177,0.16541984677314758
1772025781759276000,6.699276123046875,0.9405401349067688,0.18701830506324768,0.12304587662220001
1772025781769274000,6.709274169921875,0.9024966359138489,0.1472328007221222,0.07815590500831604
1772025781779271200,6.719271240234375,0.877192497253418,0.12316551059484482,0.04330488294363022
1772025781789268200,6.729268310546875,0.8662881851196289,0.11079273372888565,0.01904960907995701
1772025781799266000,6.73926611328125,0.8705975413322449,0.10803624242544174,0.004790211096405983
1772025781809263000,6.74926318359375,0.8944727778434753,0.10603594779968262,0.0009898801799863577
1772025781819260200,6.75926025390625,0.9170597791671753,0.11094149202108383,-0.0024819187819957733
1772025781829258200,6.76925830078125,0.9381352663040161,0.1085723489522934,-0.003572216723114252
1772025781839255000,6.779255126953125,0.9559668302536011,0.09062785655260086,-0.003507691901177168
1772025781849252000,6.789252197265625,0.9715516567230225,0.06327825784683228,0.0013211520854383707
1772025781859250200,6.799250244140625,0.9816097617149353,0.02044008858501911,0.008542769588530064
1772025781869247200,6.809247314453125,0.9846998453140259,-0.02614285983145237,0.026802998036146164
1772025781879244000,6.819244140625,0.9760097861289978,-0.05838034674525261,0.05085819959640503
1772025781889242000,6.8292421875,0.972485363483429,-0.09758926928043365,0.06898128241300583
1772025781899239200,6.8392392578125,0.9693814516067505,-0.1470249593257904,0.08686093240976334
1772025781909236200,6.849236328125,0.9695330262184143,-0.20818045735359192,0.1011144369840622
1772025781919234000,6.859234130859375,0.9702730178833008,-0.26893529295921326,0.11247913539409637
1772025781929231000,6.869231201171875,0.9755748510360718,-0.31517523527145386,0.1294163018465042
1772025781939228200,6.879228271484375,0.9915526509284973,-0.3475397527217865,0.1574072390794754
1772025781949226200,6.889226318359375,1.0025744438171387,-0.37082669138908386,0.1884935200214386
1772025781959223000,6.89922314453125,1.0051747560501099,-0.39104607701301575,0.2205095887184143
1772025781969220000,6.90922021484375,1.0017012357711792,-0.39703071117401123,0.25891369581222534
1772025781979218200,6.91921826171875,0.9984550476074219,-0.39521676301956177,0.29766353964805603
1772025781989215200,6.92921533203125,1.0017582178115845,-0.3715423345565796,0.33239832520484924
1772025781999212000,6.9392119140625,1.0029072761535645,-0.3280054032802582,0.35903093218803406
1772025782009210000,6.949210205078125,1.006766676902771,-0.27450621128082275,0.37884509563446045
1772025782019207200,6.959207275390625,1.0126922130584717,-0.21395331621170044,0.39413392543792725
1772025782029204200,6.969204345703125,1.020585298538208,-0.1553049236536026,0.40246057510375977
1772025782039202300,6.979202392578125,1.0171233415603638,-0.11115559935569763,0.4030565917491913
1772025782049199000,6.98919921875,1.0019582509994507,-0.08248773962259293,0.3916212320327759
1772025782059196200,6.999196044921875,0.9682978391647339,-0.06368160247802734,0.3704977035522461
1772025782069194000,7.009194091796875,0.9160383343696594,-0.03989531099796295,0.34295767545700073
1772025782079191300,7.01919140625,0.8611165881156921,-0.02023296058177948,0.3116418123245239
1772025782089188000,7.02918798828125,0.8035641312599182,0.006371485069394112,0.2828913927078247
1772025782099186200,7.039186279296875,0.7559818029403687,0.03686247393488884,0.25882312655448914
1772025782109183000,7.049182861328125,0.7240685820579529,0.07610335201025009,0.24295468628406525
1772025782119180300,7.05918017578125,0.7193766832351685,0.12151169776916504,0.24194079637527466
1772025782129178000,7.06917822265625,0.7275747060775757,0.1722545027732849,0.23797188699245453
1772025782139175200,7.079175048828125,0.7411578893661499,0.22550973296165466,0.23075275123119354
1772025782149172000,7.089171875,0.7638336420059204,0.2774701416492462,0.21884095668792725
1772025782159170000,7.099170166015625,0.7848308086395264,0.3249005079269409,0.2096233367919922
1772025782169167000,7.1091669921875,0.8055096864700317,0.37904444336891174,0.19766201078891754
1772025782179164200,7.1191640625,0.834775984287262,0.4345625042915344,0.1911276876926422
1772025782189162200,7.129162353515625,0.8579385876655579,0.4820573329925537,0.19228562712669373
1772025782199159000,7.139158935546875,0.8690690994262695,0.5406809449195862,0.1972382664680481
1772025782209156000,7.149156005859375,0.8723647594451904,0.5955873131752014,0.19615782797336578
1772025782219154200,7.159154296875,0.884330689907074,0.6585639715194702,0.20291993021965027
1772025782229151200,7.169151123046875,0.9053032994270325,0.7046345472335815,0.19783435761928558
1772025782239148000,7.17914794921875,0.934489905834198,0.7272353172302246,0.18075129389762878
1772025782249146000,7.18914599609375,0.964155912399292,0.707339346408844,0.15317025780677795
1772025782259143200,7.19914306640625,0.9890074729919434,0.678241491317749,0.11516628414392471
1772025782269140200,7.20914013671875,1.0006574392318726,0.6354959011077881,0.07386279106140137
1772025782279138000,7.219137939453125,0.9917933344841003,0.5629798173904419,0.007599371485412121
1772025782289135000,7.229135009765625,0.9801276326179504,0.4761434495449066,-0.07013643532991409
1772025782299132200,7.239132080078125,0.965549111366272,0.3997162878513336,-0.14388979971408844
1772025782309130200,7.249130126953125,0.9596739411354065,0.3609640896320343,-0.19378651678562164
1772025782319127000,7.259126953125,0.9705386757850647,0.3408626914024353,-0.22091516852378845
1772025782329125000,7.269125,0.9924543499946594,0.3272201120853424,-0.22505851089954376
1772025782339122200,7.2791220703125,1.0178141593933105,0.3283978998661041,-0.20211859047412872
1772025782349119200,7.289119140625,1.03684401512146,0.34116271138191223,-0.16994281113147736
1772025782359117000,7.299116943359375,1.047903299331665,0.35542240738868713,-0.1363556832075119
1772025782369114000,7.309114013671875,1.0585607290267944,0.37582382559776306,-0.10196948051452637
1772025782379111200,7.319111083984375,1.057963490486145,0.4017162621021271,-0.08041313290596008
1772025782389109200,7.329109130859375,1.0572398900985718,0.41198301315307617,-0.07314802706241608
1772025782399106000,7.33910595703125,1.0493168830871582,0.4347976744174957,-0.07284355163574219
1772025782409103000,7.34910302734375,1.0277786254882812,0.4556688666343689,-0.08113504201173782
1772025782419101200,7.35910107421875,1.0046720504760742,0.46410030126571655,-0.09839784353971481
1772025782429098200,7.36909814453125,0.9659305214881897,0.45628899335861206,-0.12549418210983276
1772025782439095300,7.37909521484375,0.909987211227417,0.4548312723636627,-0.16054357588291168
1772025782449093000,7.389093017578125,0.8514043092727661,0.45277050137519836,-0.19927018880844116
1772025782459090200,7.399090087890625,0.7927782535552979,0.4474267363548279,-0.24220074713230133
1772025782469087200,7.409087158203125,0.739716112613678,0.43348801136016846,-0.2829843759536743
1772025782479085300,7.419085205078125,0.6986815929412842,0.4132302701473236,-0.3145506978034973
1772025782489082000,7.42908203125,0.675312876701355,0.40851008892059326,-0.33517423272132874
1772025782499079000,7.439078857421875,0.6781481504440308,0.41442516446113586,-0.33847349882125854
1772025782509077000,7.449076904296875,0.696661651134491,0.41443875432014465,-0.3452800214290619
1772025782519074000,7.459073974609375,0.7241539359092712,0.4004339277744293,-0.35721200704574585
1772025782529071000,7.469071044921875,0.7527544498443604,0.37784260511398315,-0.37153902649879456
1772025782539069000,7.47906884765625,0.7853124141693115,0.35476192831993103,-0.3876132071018219
1772025782549066000,7.48906591796875,0.8186826109886169,0.33415597677230835,-0.3923589587211609
1772025782559063000,7.49906298828125,0.8503504395484924,0.3204934298992157,-0.38396957516670227
1772025782569061000,7.50906103515625,0.8698408007621765,0.30873769521713257,-0.36394205689430237
1772025782579058000,7.519057861328125,0.8809256553649902,0.29876577854156494,-0.33619967103004456
1772025782589055000,7.529054931640625,0.877348780632019,0.2894503176212311,-0.3022744655609131
1772025782599052800,7.539052734375,0.8643571734428406,0.2778322398662567,-0.2679295837879181
1772025782609050000,7.549050048828125,0.8405618071556091,0.265816330909729,-0.2291121482849121
1772025782619047000,7.559046875,0.8069677948951721,0.2486683577299118,-0.20282451808452606
1772025782629045000,7.569044921875,0.7683122754096985,0.2258644998073578,-0.18365322053432465
1772025782639041800,7.579041748046875,0.7296651005744934,0.213196262717247,-0.16957993805408478
1772025782649039000,7.5890390625,0.6897451281547546,0.2060438096523285,-0.14882460236549377
1772025782659037200,7.599037109375,0.6475096344947815,0.21267877519130707,-0.12956668436527252
1772025782669034000,7.609033935546875,0.6036399006843567,0.22158251702785492,-0.11008646339178085
1772025782679031000,7.619031005859375,0.5651839971542358,0.24129052460193634,-0.08316836506128311
1772025782689028900,7.62902880859375,0.5420611500740051,0.25467610359191895,-0.06541626155376434
1772025782699026200,7.639026123046875,0.5204823017120361,0.25021886825561523,-0.0474669486284256
1772025782709023000,7.64902294921875,0.5065600872039795,0.24371886253356934,-0.023204216733574867
1772025782719021000,7.65902099609375,0.4984115660190582,0.27404192090034485,0.008798767812550068
1772025782729017900,7.669017822265625,0.49623310565948486,0.3230297267436981,0.049373891204595566
1772025782739015200,7.67901513671875,0.5152681469917297,0.37385672330856323,0.08896783739328384
1772025782749013000,7.689012939453125,0.5474127531051636,0.3948530852794647,0.1234443187713623
1772025782759010000,7.699010009765625,0.5588679313659668,0.38224297761917114,0.13460080325603485
1772025782769006800,7.7090068359375,0.5580042600631714,0.3744676113128662,0.13168038427829742
1772025782779005000,7.7190048828125,0.5526683926582336,0.38455745577812195,0.12898004055023193
1772025782789002000,7.729001953125,0.5408514142036438,0.3847140669822693,0.11741527169942856
1772025782798999000,7.7389990234375,0.508133590221405,0.3796146810054779,0.08869045972824097
1772025782808996900,7.748996826171875,0.48089128732681274,0.37096765637397766,0.05848701298236847
1772025782818994000,7.758993896484375,0.469634085893631,0.36402249336242676,0.0411812886595726
1772025782828991000,7.768990966796875,0.47956952452659607,0.3489724397659302,0.030630113556981087
1772025782838989000,7.778989013671875,0.5030915141105652,0.333334743976593,0.025152983143925667
1772025782848985900,7.78898583984375,0.5367653369903564,0.3205491900444031,0.013988743536174297
1772025782858984000,7.79898388671875,0.57036292552948,0.32701945304870605,-0.0058753713965415955
1772025782868981200,7.808981201171875,0.5888476371765137,0.34315821528434753,-0.043962299823760986
1772025782878978000,7.81897802734375,0.5907197594642639,0.36269861459732056,-0.0946030542254448
1772025782888976100,7.82897607421875,0.5902435779571533,0.37717103958129883,-0.13233818113803864
1772025782898973000,7.838972900390625,0.5720174312591553,0.38633888959884644,-0.1806553602218628
1772025782908970200,7.84897021484375,0.5473035573959351,0.38128846883773804,-0.22307685017585754
1772025782918968000,7.858968017578125,0.5271337032318115,0.3723469376564026,-0.2561911940574646
1772025782928965000,7.868965087890625,0.5092564225196838,0.38295111060142517,-0.2729579210281372
1772025782938962000,7.8789619140625,0.503302812576294,0.40862521529197693,-0.27076447010040283
1772025782948960000,7.8889599609375,0.5140406489372253,0.4187856912612915,-0.2593056857585907
1772025782958957000,7.89895703125,0.5267729163169861,0.4182571470737457,-0.22976842522621155
1772025782968954000,7.9089541015625,0.5619192123413086,0.4136834442615509,-0.18347017467021942
1772025782978952000,7.918951904296875,0.6205993294715881,0.4172762930393219,-0.1162666380405426
1772025782988949000,7.928948974609375,0.7059724926948547,0.4306829273700714,-0.023553211241960526
1772025782998946000,7.938946044921875,0.7924500107765198,0.43383458256721497,0.0645211860537529
1772025783008944000,7.948944091796875,0.8579017519950867,0.4095044732093811,0.13452211022377014
1772025783018941000,7.95894091796875,0.9031071066856384,0.36850079894065857,0.18028637766838074
1772025783028938000,7.96893798828125,0.9300563931465149,0.31847330927848816,0.20158900320529938
1772025783038935800,7.978935791015625,0.9448562264442444,0.25717461109161377,0.20215873420238495
1772025783048933000,7.98893310546875,0.9464016556739807,0.20139415562152863,0.19429202377796173
1772025783058930000,7.998929931640625,0.9368475675582886,0.15937279164791107,0.17650873959064484
1772025783068928000,8.008927978515626,0.9067309498786926,0.13321495056152344,0.148550346493721
1772025783078925000,8.018925048828125,0.8487613797187805,0.09977127611637115,0.10150271654129028
1772025783088922000,8.028922119140624,0.7693304419517517,0.036061543971300125,0.03614235296845436
1772025783098920200,8.038920166015625,0.6582323312759399,-0.03288579359650612,-0.04981847479939461
1772025783108917000,8.0489169921875,0.5128205418586731,-0.09710072726011276,-0.17209483683109283
1772025783118914000,8.0589140625,0.37073972821235657,-0.16622775793075562,-0.31778857111930847
1772025783128912000,8.068911865234375,0.2743125259876251,-0.2069869041442871,-0.4537442922592163
1772025783138909200,8.0789091796875,0.2156163603067398,-0.20864106714725494,-0.568586528301239
1772025783148906000,8.088906005859375,0.1825966238975525,-0.15482178330421448,-0.6504829525947571
1772025783158904000,8.098904052734374,0.17002174258232117,-0.06837709248065948,-0.6993328928947449
1772025783168900900,8.10890087890625,0.18799461424350739,0.029455190524458885,-0.7168468832969666
1772025783178898200,8.118898193359374,0.25386103987693787,0.1351105123758316,-0.7084996700286865
1772025783188896000,8.12889599609375,0.35550668835639954,0.2453310191631317,-0.6689493060112
1772025783198893000,8.13889306640625,0.48604774475097656,0.3462591767311096,-0.6077222228050232
1772025783208889900,8.148889892578126,0.626101016998291,0.4012422561645508,-0.5428494811058044
1772025783218888000,8.158887939453125,0.731488049030304,0.424739807844162,-0.48529621958732605
1772025783228885000,8.168885009765624,0.7986516356468201,0.45075514912605286,-0.4276198744773865
1772025783238882000,8.178882080078125,0.8412908911705017,0.4730771481990814,-0.389603853225708
1772025783248879900,8.1888798828125,0.8751833438873291,0.4746561348438263,-0.3681662082672119
1772025783258877000,8.198876953125,0.8887374401092529,0.46138712763786316,-0.3554888665676117
1772025783268874000,8.2088740234375,0.8693400025367737,0.4277796447277069,-0.36663392186164856
1772025783278872000,8.2188720703125,0.8187448978424072,0.36826643347740173,-0.38128089904785156
1772025783288868900,8.228868896484375,0.7473037242889404,0.2863742411136627,-0.39667022228240967
1772025783298866000,8.238865966796874,0.6600353121757507,0.20016370713710785,-0.4073130786418915
1772025783308864000,8.248864013671875,0.5751678347587585,0.09177358448505402,-0.4113810658454895
1772025783318861000,8.258861083984375,0.49281105399131775,-0.03169448301196098,-0.40909335017204285
1772025783328857900,8.26885791015625,0.42255738377571106,-0.14701628684997559,-0.403779536485672
1772025783338856000,8.27885595703125,0.3652338981628418,-0.23358145356178284,-0.38131776452064514
1772025783348853000,8.28885302734375,0.31991779804229736,-0.29136326909065247,-0.3531425893306732
1772025783358850000,8.29885009765625,0.2824031412601471,-0.332265168428421,-0.3190014958381653
1772025783368848100,8.30884814453125,0.2524780035018921,-0.35160717368125916,-0.2817518711090088
1772025783378845000,8.318844970703125,0.23283860087394714,-0.3385140895843506,-0.24376776814460754
1772025783388842000,8.328842041015625,0.23742829263210297,-0.315024733543396,-0.2134583294391632
1772025783398840000,8.338840087890626,0.2660238742828369,-0.32891353964805603,-0.19495131075382233
1772025783408837000,8.348837158203125,0.30923500657081604,-0.3457425832748413,-0.17412644624710083
1772025783418835000,8.3588349609375,0.3439357876777649,-0.342091828584671,-0.14657223224639893
1772025783428832000,8.36883203125,0.3844456672668457,-0.33842572569847107,-0.10593079775571823
1772025783438829000,8.3788291015625,0.43178656697273254,-0.29737651348114014,-0.045262936502695084
1772025783448827100,8.3888271484375,0.48687833547592163,-0.24137021601200104,0.029873622581362724
1772025783458824000,8.398823974609375,0.5401318669319153,-0.19594015181064606,0.10727483779191971
1772025783468821000,8.408821044921876,0.5844119787216187,-0.17663462460041046,0.17901480197906494
1772025783478819000,8.418819091796875,0.6115657091140747,-0.1811925172805786,0.2325201779603958
1772025783488816000,8.428816162109374,0.6243451833724976,-0.19242332875728607,0.27603650093078613
1772025783498813200,8.438813232421875,0.6288871765136719,-0.2025897204875946,0.30792760848999023
1772025783508811300,8.448811279296875,0.6308723092079163,-0.2273760288953781,0.3206428587436676
1772025783518808300,8.458808349609376,0.5917403697967529,-0.29810217022895813,0.2956661581993103
1772025783528805400,8.468805419921875,0.48973140120506287,-0.3659280836582184,0.23287172615528107
1772025783538803500,8.478803466796874,0.3837944269180298,-0.38235989212989807,0.16998979449272156
1772025783548800300,8.48880029296875,0.3266395330429077,-0.35111621022224426,0.13637883961200714
1772025783558797300,8.49879736328125,0.3151598870754242,-0.30821850895881653,0.1267305165529251
1772025783568795100,8.508795166015625,0.3129537105560303,-0.24721670150756836,0.14140373468399048
1772025783578792400,8.51879248046875,0.3132059872150421,-0.1647571623325348,0.17040938138961792
1772025783588789200,8.528789306640626,0.3420935571193695,-0.10313613712787628,0.21015998721122742
1772025783598787300,8.538787353515625,0.3996869623661041,-0.05905313789844513,0.24759502708911896
1772025783608784100,8.5487841796875,0.4679400622844696,-0.040318332612514496,0.26896902918815613
1772025783618781400,8.558781494140625,0.5058072805404663,-0.04093223065137863,0.2530663311481476
1772025783628779300,8.568779296875,0.5025606155395508,-0.05312098562717438,0.21504466235637665
1772025783638776300,8.5787763671875,0.47672396898269653,-0.054373279213905334,0.16399693489074707
1772025783648773000,8.588773193359375,0.4452595114707947,-0.024394340813159943,0.12176931649446487
1772025783658771200,8.598771240234376,0.42345818877220154,0.025274943560361862,0.09225478768348694
1772025783668768300,8.608768310546875,0.40940335392951965,0.05659611523151398,0.079407699406147
1772025783678765300,8.618765380859376,0.40231284499168396,0.09257367253303528,0.08710256218910217
1772025783688763400,8.628763427734375,0.4104623794555664,0.1393989622592926,0.12637725472450256
1772025783698760200,8.63876025390625,0.44960880279541016,0.20417143404483795,0.19831039011478424
1772025783708757200,8.64875732421875,0.5238127708435059,0.2664435803890228,0.2912616431713104
1772025783718755300,8.65875537109375,0.5976507067680359,0.31255847215652466,0.37872758507728577
1772025783728752400,8.66875244140625,0.6598741412162781,0.3444937765598297,0.45039087533950806
1772025783738749200,8.678749267578125,0.6962679624557495,0.34160399436950684,0.49112677574157715
1772025783748747300,8.688747314453124,0.7132208347320557,0.30704575777053833,0.504655122756958
1772025783758744300,8.698744384765625,0.6874538064002991,0.27516627311706543,0.48871055245399475
1772025783768741400,8.708741455078124,0.6203330755233765,0.24692398309707642,0.44823238253593445
1772025783778739200,8.7187392578125,0.5413784980773926,0.22590140998363495,0.39412689208984375
1772025783788736300,8.728736328125,0.43943583965301514,0.21869489550590515,0.3268652856349945
1772025783798733300,8.7387333984375,0.3374823331832886,0.21358630061149597,0.2504064440727234
1772025783808731400,8.7487314453125,0.2366843819618225,0.21620552241802216,0.17080402374267578
1772025783818728200,8.758728271484374,0.13464364409446716,0.2257605344057083,0.08693381398916245
1772025783828725200,8.768725341796875,0.026105454191565514,0.21057438850402832,-0.003959608729928732
1772025783838723000,8.77872314453125,-0.07713257521390915,0.18326787650585175,-0.1045030876994133
1772025783848720400,8.788720458984375,-0.17176958918571472,0.14372606575489044,-0.1976945549249649
1772025783858718200,8.79871826171875,-0.2415408194065094,0.12231859564781189,-0.27925047278404236
1772025783868715300,8.80871533203125,-0.2790501117706299,0.12884625792503357,-0.3264523148536682
1772025783878712000,8.818712158203125,-0.2944492995738983,0.15990518033504486,-0.3399335443973541
1772025783888710100,8.828710205078124,-0.2976677119731903,0.21479906141757965,-0.329105406999588
1772025783898707200,8.838707275390625,-0.2812195122241974,0.2988955080509186,-0.301658034324646
1772025783908704300,8.848704345703124,-0.23785047233104706,0.3761841654777527,-0.25290647149086
1772025783918702300,8.858702392578126,-0.18622101843357086,0.4313155710697174,-0.2062402218580246
1772025783928699100,8.86869921875,-0.1325671225786209,0.46679553389549255,-0.14704187214374542
1772025783938696400,8.878696533203126,-0.09287163615226746,0.47639116644859314,-0.09538614004850388
1772025783948694300,8.8886943359375,-0.0804852694272995,0.4712240993976593,-0.0513068288564682
1772025783958691300,8.89869140625,-0.07046348601579666,0.45920997858047485,-0.008111841045320034
1772025783968688000,8.908688232421875,-0.0719095841050148,0.44607022404670715,0.025439193472266197
1772025783978686200,8.918686279296875,-0.07584522664546967,0.43279871344566345,0.03791598230600357
1772025783988683300,8.928683349609376,-0.08964519947767258,0.42243021726608276,0.025503521785140038
1772025783998680300,8.938680419921875,-0.10515762120485306,0.4145476222038269,0.005462727975100279
1772025784008678100,8.94867822265625,-0.11776556074619293,0.4254963994026184,-0.024470936506986618
1772025784018675200,8.95867529296875,-0.11871124804019928,0.43871840834617615,-0.05984105169773102
1772025784028672300,8.96867236328125,-0.09856576472520828,0.4390696585178375,-0.10960141569375992
1772025784038670300,8.97867041015625,-0.06571091711521149,0.43612465262413025,-0.16667959094047546
1772025784048667100,8.988667236328125,-0.030499393120408058,0.4288526177406311,-0.23476943373680115
1772025784058664400,8.99866455078125,0.004270038567483425,0.38637465238571167,-0.3061559796333313
1772025784068662300,9.008662353515625,0.03903849050402641,0.34875667095184326,-0.37215477228164673
1772025784078659300,9.018659423828124,0.07959311455488205,0.3175640106201172,-0.4191277325153351
1772025784088656100,9.02865625,0.11123067140579224,0.2830640971660614,-0.4378074109554291
1772025784098654200,9.038654296875,0.14312858879566193,0.2358209192752838,-0.43021804094314575
1772025784108651300,9.0486513671875,0.17045848071575165,0.1970341056585312,-0.39620441198349
1772025784118648300,9.0586484375,0.20257841050624847,0.1693299263715744,-0.3294326066970825
1772025784128646400,9.068646484375,0.2267732322216034,0.1316395401954651,-0.24870046973228455
1772025784138643200,9.078643310546875,0.23382258415222168,0.09575976431369781,-0.15984168648719788
1772025784148640300,9.08864013671875,0.22688132524490356,0.06789617240428925,-0.0687839537858963
1772025784158638300,9.098638427734375,0.19128109514713287,0.05248841270804405,0.009105201810598373
1772025784168635400,9.108635498046874,0.14784972369670868,0.053403742611408234,0.07542510330677032
1772025784178632200,9.118632080078125,0.09414634853601456,0.05571381002664566,0.12657494843006134
1772025784188630300,9.12863037109375,0.04527680575847626,0.08574680984020233,0.1439044028520584
1772025784198627300,9.13862744140625,-0.004659228026866913,0.10661647468805313,0.1308981329202652
1772025784208624400,9.148624267578125,-0.037538081407547,0.13752245903015137,0.10620743781328201
1772025784218622200,9.158622314453124,-0.06227220967411995,0.17188379168510437,0.07659988105297089
1772025784228619300,9.168619384765625,-0.0670672282576561,0.22698432207107544,0.05982329696416855
1772025784238616300,9.1786162109375,-0.04908664524555206,0.2986169159412384,0.059515707194805145
1772025784248614400,9.188614501953126,-0.001518863020464778,0.35330653190612793,0.07276493310928345
1772025784258611200,9.198611083984375,0.05296279862523079,0.3628922998905182,0.0785188153386116
1772025784268608300,9.208608154296876,0.09524767100811005,0.359582781791687,0.07175891101360321
1772025784278606000,9.218606201171875,0.1333637833595276,0.35685527324676514,0.0674290657043457
1772025784288603400,9.228603271484374,0.16588817536830902,0.34353065490722656,0.06995107978582382
1772025784298601200,9.238601318359375,0.17518360912799835,0.31636926531791687,0.0618542917072773
1772025784308598300,9.248598388671875,0.1681869477033615,0.2724531888961792,0.0416552796959877
1772025784318595000,9.258594970703125,0.15396256744861603,0.21940810978412628,0.007589022628962994
1772025784328593200,9.26859326171875,0.1441110074520111,0.16567137837409973,-0.02032117173075676
1772025784338590500,9.278590576171876,0.14391866326332092,0.10874423384666443,-0.04532171040773392
1772025784348587300,9.288587158203125,0.15396198630332947,0.05449084937572479,-0.05407845228910446
1772025784358585300,9.29858544921875,0.1563463807106018,0.025906074792146683,-0.06538399308919907
1772025784368582100,9.30858203125,0.16418220102787018,0.02720782719552517,-0.0681464895606041
1772025784378579500,9.318579345703125,0.18736973404884338,0.04274973273277283,-0.05044429004192352
1772025784388577300,9.328577392578126,0.21705172955989838,0.062105320394039154,-0.024813232943415642
1772025784398572300,9.338572265625,0.26977330446243286,0.07848836481571198,0.019495362415909767
1772025784408569300,9.3485693359375,0.338613361120224,0.08395130932331085,0.07640045881271362
1772025784418567200,9.358567138671875,0.42019256949424744,0.08153479546308517,0.1354823112487793
1772025784428564200,9.368564208984376,0.48727548122406006,0.061126723885536194,0.19047951698303223
1772025784438561300,9.378561279296875,0.543296217918396,0.027796076610684395,0.24306240677833557
1772025784448559400,9.388559326171874,0.590448260307312,0.0027562372852116823,0.3075934648513794
1772025784458556200,9.39855615234375,0.6288968920707703,0.007031569257378578,0.37976813316345215
1772025784468553200,9.40855322265625,0.6586686372756958,0.031804557889699936,0.44929075241088867
1772025784478551000,9.418551025390625,0.6776896715164185,0.07644449919462204,0.4995894134044647
1772025784488548400,9.42854833984375,0.6894235610961914,0.09610262513160706,0.5132732391357422
1772025784498545200,9.438545166015626,0.6902993321418762,0.09762652963399887,0.512116014957428
1772025784508542200,9.448542236328125,0.6936653256416321,0.10813456028699875,0.4982524514198303
1772025784518539500,9.45853955078125,0.6899749040603638,0.10050403326749802,0.4614797830581665
1772025784528536300,9.468536376953125,0.6954551339149475,0.05357567220926285,0.40772494673728943
1772025784538534400,9.478534423828124,0.7066050171852112,0.02691107802093029,0.34537410736083984
1772025784548531200,9.48853125,0.7299667596817017,-0.005337405949831009,0.28488731384277344
1772025784558528500,9.498528564453125,0.7334041595458984,-0.04228123277425766,0.21240484714508057
1772025784568526300,9.5085263671875,0.7028049826622009,-0.08019212633371353,0.11967944353818893
1772025784578523400,9.5185234375,0.6251354813575745,-0.1051400899887085,0.00530279753729701
1772025784588520200,9.528520263671876,0.5140379667282104,-0.11508992314338684,-0.13720722496509552
1772025784598518300,9.538518310546875,0.37686097621917725,-0.12219996005296707,-0.2997910976409912
1772025784608515300,9.548515380859374,0.2438155859708786,-0.1403198391199112,-0.4587399959564209
1772025784618512400,9.558512451171875,0.13316474854946136,-0.12589529156684875,-0.588957667350769
1772025784628510200,9.56851025390625,0.056067559868097305,-0.09869801998138428,-0.6839076280593872
1772025784638507300,9.57850732421875,0.0031622867099940777,-0.05150364711880684,-0.7348891496658325
1772025784648504300,9.58850439453125,-0.008898637257516384,0.006987627595663071,-0.7380144000053406
1772025784658502400,9.59850244140625,0.024104014039039612,0.06527090817689896,-0.6918970346450806
1772025784668499500,9.60849951171875,0.09645383805036545,0.12028595805168152,-0.614824116230011
1772025784678496300,9.618496337890624,0.20728649199008942,0.17806212604045868,-0.5081878900527954
1772025784688494300,9.628494384765625,0.3488242030143738,0.2536469101905823,-0.38615334033966064
1772025784698491400,9.638491455078125,0.48627302050590515,0.31412386894226074,-0.262177050113678
1772025784708488400,9.648488525390626,0.5684664249420166,0.34693318605422974,-0.1696726530790329
1772025784718486300,9.658486328125,0.6080785989761353,0.3591039776802063,-0.10803728550672531
1772025784728483300,9.6684833984375,0.6345139145851135,0.3657722473144531,-0.06570074707269669
1772025784738481400,9.6784814453125,0.6602655649185181,0.36791715025901794,-0.042790837585926056
1772025784748478500,9.688478515625,0.6833133101463318,0.3620062470436096,-0.03318854421377182
1772025784758475300,9.698475341796875,0.6881126165390015,0.34299609065055847,-0.039596762508153915
1772025784768473300,9.708473388671875,0.6677109003067017,0.2993074655532837,-0.055483583360910416
1772025784778470400,9.718470458984376,0.619468092918396,0.23676763474941254,-0.06667183339595795
1772025784788467500,9.728467529296875,0.5596537590026855,0.1746206432580948,-0.08369981497526169
1772025784798465300,9.73846533203125,0.48840153217315674,0.10701218992471695,-0.09169109165668488
1772025784808462300,9.74846240234375,0.41851672530174255,0.03382878750562668,-0.09487516433000565
1772025784818459400,9.75845947265625,0.34829577803611755,-0.032335810363292694,-0.08891219645738602
1772025784828457500,9.76845751953125,0.2909664511680603,-0.07964207231998444,-0.066881462931633
1772025784838454300,9.778454345703125,0.24717745184898376,-0.11051895469427109,-0.03708602860569954
1772025784848451300,9.788451416015626,0.23339000344276428,-0.13797588646411896,0.003599083051085472
1772025784858449400,9.798449462890625,0.23401866853237152,-0.16160529851913452,0.04022452235221863
1772025784868446500,9.808446533203124,0.24350884556770325,-0.1905629187822342,0.05058794841170311
1772025784878443300,9.818443359375,0.25370657444000244,-0.22914622724056244,0.04537123441696167
1772025784888441300,9.82844140625,0.2659379243850708,-0.2657311260700226,0.0261144507676363
1772025784898438400,9.8384384765625,0.274147093296051,-0.28953462839126587,0.006924537010490894
1772025784908435500,9.848435546875,0.27823662757873535,-0.2983070909976959,-0.004915876779705286
1772025784918433500,9.85843359375,0.2819504737854004,-0.29777464270591736,-0.010091102682054043
1772025784928430300,9.868430419921875,0.29184144735336304,-0.28867170214653015,-0.0021082772873342037
1772025784938427400,9.878427490234374,0.2981441617012024,-0.28062209486961365,0.009520377963781357
1772025784948425200,9.88842529296875,0.3276730179786682,-0.25421497225761414,0.03530430421233177
1772025784958422500,9.898422607421875,0.3848404884338379,-0.20944808423519135,0.07729927450418472
1772025784968419300,9.90841943359375,0.4567359983921051,-0.17023304104804993,0.12564337253570557
1772025784978417400,9.91841748046875,0.4959627687931061,-0.1800001710653305,0.14795081317424774
1772025784988414200,9.928414306640626,0.4778476655483246,-0.1951141506433487,0.1275528520345688
1772025784998411500,9.93841162109375,0.4495052397251129,-0.2072315365076065,0.08155926316976547
1772025785008411400,9.948411376953125,0.426177054643631,-0.22367678582668304,0.027819596230983734
1772025785018408200,9.958408203125,0.3917848467826843,-0.2410072684288025,-0.04382508993148804
1772025785028405500,9.968405517578125,0.3371807038784027,-0.2613881826400757,-0.12819510698318481
1772025785038403300,9.9784033203125,0.2680399417877197,-0.2814575433731079,-0.21067237854003906
1772025785048400400,9.988400390625,0.22030571103096008,-0.2922699749469757,-0.27092212438583374
1772025785058397200,9.998397216796874,0.20523570477962494,-0.2965042293071747,-0.3025611639022827
1772025785068395300,10.008395263671876,0.20825785398483276,-0.2978445887565613,-0.3079220950603485
1772025785078392300,10.018392333984375,0.22728367149829865,-0.2771141231060028,-0.296015202999115
1772025785088389400,10.028389404296876,0.27443331480026245,-0.28042763471603394,-0.2596513330936432
1772025785098387200,10.03838720703125,0.3344094157218933,-0.24589359760284424,-0.20442569255828857
1772025785108384300,10.04838427734375,0.3982773423194885,-0.20234932005405426,-0.1212778091430664
1772025785118382300,10.05838232421875,0.4475802481174469,-0.14482107758522034,-0.015697211027145386
1772025785128379400,10.06837939453125,0.46603140234947205,-0.07520764321088791,0.09286442399024963
1772025785138376200,10.078376220703126,0.46516522765159607,-0.011535038240253925,0.1989486962556839
1772025785148374300,10.088374267578125,0.4604516923427582,0.03744395449757576,0.30544477701187134
1772025785158371300,10.098371337890624,0.4553757905960083,0.07330486178398132,0.40501341223716736
1772025785168368400,10.108368408203125,0.4475027024745941,0.0946652814745903,0.490703284740448
1772025785178366500,10.118366455078124,0.4347722828388214,0.10430653393268585,0.5557293891906738
1772025785188363300,10.12836328125,0.4213550090789795,0.10749087482690811,0.5884758830070496
1772025785198360300,10.1383603515625,0.4008229374885559,0.09430738538503647,0.5917880535125732
1772025785208358400,10.1483583984375,0.3712136447429657,0.09644510596990585,0.5667313933372498
1772025785218355500,10.15835546875,0.33083537220954895,0.11551455408334732,0.5205162763595581
1772025785228352300,10.168352294921876,0.28620532155036926,0.15591950714588165,0.46081987023353577
1772025785238350300,10.178350341796875,0.2465839385986328,0.2089722603559494,0.393261581659317
1772025785248347400,10.188347412109374,0.2204122543334961,0.27178266644477844,0.3202243745326996
1772025785258344400,10.198344482421875,0.19656959176063538,0.3139199912548065,0.23519480228424072
1772025785268342300,10.20834228515625,0.16638772189617157,0.3278310298919678,0.13681843876838684
1772025785278339300,10.21833935546875,0.12256963551044464,0.3147644102573395,0.019771980121731758
1772025785288336400,10.22833642578125,0.06075633689761162,0.2711232006549835,-0.11518077552318573
1772025785298334500,10.23833447265625,-0.004692507442086935,0.20951123535633087,-0.25104284286499023
1772025785308331300,10.248331298828125,-0.0599304623901844,0.15386103093624115,-0.36145642399787903
1772025785318328300,10.258328369140624,-0.0914585068821907,0.1223471611738205,-0.4307391345500946
1772025785328326400,10.268326416015626,-0.10932911932468414,0.11886987090110779,-0.4525160789489746
1772025785338323500,10.278323486328125,-0.10517677664756775,0.14016078412532806,-0.43986666202545166
1772025785348320300,10.2883203125,-0.08573543280363083,0.18526966869831085,-0.39347201585769653
1772025785358318300,10.298318359375,-0.05380425602197647,0.2520795464515686,-0.32329311966896057
1772025785368315400,10.3083154296875,-0.013099170289933681,0.31224435567855835,-0.2486090511083603
1772025785378312400,10.3183125,0.026184191927313805,0.3507430851459503,-0.18147587776184082
1772025785388310500,10.328310546875,0.045390643179416656,0.3541889488697052,-0.134799987077713
1772025785398307300,10.338307373046876,0.042370397597551346,0.3270704746246338,-0.1117590144276619
1772025785408304400,10.348304443359375,0.023600436747074127,0.2904528081417084,-0.1085302010178566
1772025785418302200,10.35830224609375,-0.0027750316075980663,0.26041892170906067,-0.11171291023492813
1772025785428299500,10.368299560546875,-0.03662167862057686,0.2454008013010025,-0.12029574811458588
1772025785438296300,10.37829638671875,-0.06344301253557205,0.25238850712776184,-0.12374567985534668
1772025785448294400,10.38829443359375,-0.08895450085401535,0.2697904109954834,-0.13314105570316315
1772025785458291200,10.398291259765625,-0.0982382521033287,0.28139346837997437,-0.14692066609859467
1772025785468288500,10.40828857421875,-0.09283523261547089,0.2802563011646271,-0.17033064365386963
1772025785478286300,10.418286376953125,-0.07699775695800781,0.2727431058883667,-0.19729432463645935
1772025785488283400,10.428283447265626,-0.04891498386859894,0.2671845555305481,-0.22318610548973083
1772025785498284800,10.438284912109374,-0.0059708901681005955,0.2677605152130127,-0.23759543895721436
1772025785508282600,10.44828271484375,0.040445342659950256,0.2633521854877472,-0.2488315850496292
1772025785518279700,10.45827978515625,0.08180073648691177,0.24156798422336578,-0.2598873972892761
1772025785528277800,10.46827783203125,0.12601934373378754,0.208844393491745,-0.2687368392944336
1772025785538274800,10.47827490234375,0.1749424934387207,0.1819925308227539,-0.2685603201389313
1772025785548271600,10.488271728515626,0.22209350764751434,0.1725979596376419,-0.2564634382724762
1772025785558269700,10.498269775390625,0.2753887176513672,0.16430404782295227,-0.23055049777030945
1772025785568266800,10.508266845703124,0.33017686009407043,0.16129574179649353,-0.19617176055908203
1772025785578263800,10.518263916015625,0.3763866722583771,0.16333530843257904,-0.15603779256343842
1772025785588262000,10.528261962890625,0.41192150115966797,0.17121002078056335,-0.1122724786400795
1772025785598258700,10.5382587890625,0.42768895626068115,0.17913968861103058,-0.07263101637363434
1772025785608255700,10.548255859375,0.4315177798271179,0.17991706728935242,-0.03519709035754204
1772025785618253800,10.55825390625,0.413598895072937,0.1802130937576294,-0.0020200423896312714
1772025785628251000,10.5682509765625,0.38465219736099243,0.18085704743862152,0.02850298024713993
1772025785638247700,10.57824755859375,0.3520314395427704,0.19214986264705658,0.060270607471466064
1772025785648245800,10.588245849609375,0.3154641091823578,0.21518461406230927,0.08816056698560715
1772025785658242800,10.598242919921875,0.2838555574417114,0.2517937421798706,0.11686891317367554
1772025785668240000,10.608239990234376,0.2556348443031311,0.3003048002719879,0.14262701570987701
1772025785678237700,10.61823779296875,0.24870215356349945,0.3539031445980072,0.1721518486738205
1772025785688234800,10.62823486328125,0.2672787606716156,0.3783525824546814,0.19218415021896362
1772025785698231800,10.638231689453125,0.2612537443637848,0.35487282276153564,0.1782403290271759
1772025785708230000,10.64822998046875,0.22904039919376373,0.348536878824234,0.13639940321445465
1772025785718226700,10.658226806640625,0.19405288994312286,0.36199310421943665,0.08875516057014465
1772025785728223700,10.6682236328125,0.17499689757823944,0.3914298415184021,0.0478237047791481
1772025785738221600,10.6782216796875,0.1637635976076126,0.4104420244693756,0.01998826488852501
1772025785748219000,10.688218994140625,0.14657555520534515,0.4062587320804596,-0.000009942450560629368
1772025785758215700,10.698215576171876,0.12003908306360245,0.39161574840545654,-0.009634369984269142
1772025785768213800,10.7082138671875,0.09945417940616608,0.37567806243896484,-0.015149510465562344
1772025785778210600,10.71821044921875,0.10141493380069733,0.36733102798461914,-0.017214858904480934
1772025785788207900,10.728207763671875,0.11543434858322144,0.3551529049873352,-0.018963757902383804
1772025785798205700,10.738205810546875,0.13329170644283295,0.34232988953590393,-0.03225310891866684
1772025785808202800,10.74820263671875,0.15362867712974548,0.3505936563014984,-0.043052490800619125
1772025785818199600,10.758199462890625,0.1770501434803009,0.36221814155578613,-0.061727914959192276
1772025785828197600,10.76819775390625,0.2177368551492691,0.3651931583881378,-0.08287421613931656
1772025785838194700,10.778194580078125,0.27258607745170593,0.36221784353256226,-0.10007669031620026
1772025785848191700,10.788191650390624,0.31671759486198425,0.3908420503139496,-0.11423645168542862
1772025785858189800,10.79818994140625,0.346132755279541,0.4281424582004547,-0.12123911082744598
1772025785868186600,10.8081865234375,0.3830721378326416,0.4454790949821472,-0.11612290889024734
1772025785878184000,10.818183837890626,0.417300820350647,0.4368443191051483,-0.10154364258050919
1772025785888181800,10.828181640625,0.4616536498069763,0.41130274534225464,-0.06695663928985596
1772025785898178800,10.8381787109375,0.5158416628837585,0.4042441248893738,-0.0007580927340313792
1772025785908175600,10.848175537109375,0.5931785106658936,0.4203703701496124,0.08443989604711533
1772025785918173700,10.858173583984374,0.6743848323822021,0.4308103024959564,0.17224541306495667
1772025785928170800,10.868170654296875,0.7414323091506958,0.41250479221343994,0.2481875866651535
1772025785938168800,10.8781689453125,0.7792286276817322,0.3847774565219879,0.31249815225601196
1772025785948165600,10.88816552734375,0.8006551265716553,0.360002338886261,0.36361807584762573
1772025785958162700,10.89816259765625,0.8057911396026611,0.3253483474254608,0.3890962302684784
1772025785968160500,10.908160400390624,0.7975507378578186,0.27251043915748596,0.3883689343929291
1772025785978157800,10.91815771484375,0.7935670614242554,0.19179479777812958,0.3758564889431
1772025785988154600,10.928154541015624,0.7866186499595642,0.10807034373283386,0.3610786199569702
1772025785998152700,10.938152587890626,0.7566466927528381,0.026688968762755394,0.3312048614025116
1772025786008149500,10.9481494140625,0.6832414269447327,-0.05992315337061882,0.2789033055305481
1772025786018146800,10.958146728515626,0.5758253335952759,-0.10425543040037155,0.20528602600097656
1772025786028145000,10.968144775390625,0.4510785937309265,-0.1597551703453064,0.09389424324035645
1772025786038141700,10.9781416015625,0.33029717206954956,-0.23120816051959991,-0.042037952691316605
1772025786048138500,10.988138427734375,0.2045120745897293,-0.29143422842025757,-0.20536188781261444
1772025786058136600,10.998136474609375,0.07807421684265137,-0.359183132648468,-0.3838537037372589
1772025786068134000,11.0081337890625,-0.043177638202905655,-0.40121740102767944,-0.5430702567100525
1772025786078130700,11.018130615234375,-0.1539289653301239,-0.39523234963417053,-0.6523067355155945
1772025786088128800,11.028128662109374,-0.24099943041801453,-0.3373032510280609,-0.7172185778617859
1772025786098125800,11.038125732421875,-0.2708788216114044,-0.24026751518249512,-0.7372560501098633
1772025786108123000,11.048122802734374,-0.21585312485694885,-0.11638924479484558,-0.7101749181747437
1772025786118120700,11.05812060546875,-0.09206731617450714,0.02999577857553959,-0.6512175798416138
1772025786128117800,11.06811767578125,0.06998629868030548,0.17357663810253143,-0.5770576000213623
1772025786138114800,11.07811474609375,0.22349177300930023,0.28273794054985046,-0.4887746572494507
1772025786148113000,11.08811279296875,0.34143251180648804,0.3577863574028015,-0.38889172673225403
1772025786158109700,11.098109619140626,0.40611955523490906,0.43653908371925354,-0.29466700553894043
1772025786168106800,11.108106689453125,0.4349898099899292,0.5100782513618469,-0.20587509870529175
1772025786178104600,11.1181044921875,0.43550562858581543,0.5177112221717834,-0.1403747797012329
1772025786188102000,11.128101806640625,0.43565744161605835,0.45726072788238525,-0.08269284665584564
1772025786198098700,11.1380986328125,0.4376773536205292,0.37589964270591736,-0.021703869104385376
1772025786208096800,11.1480966796875,0.440231055021286,0.30942288041114807,0.03236815705895424
1772025786218093600,11.158093505859375,0.4302333891391754,0.25716733932495117,0.05102046951651573
1772025786228091000,11.1680908203125,0.44094356894493103,0.18679384887218475,0.038114260882139206
1772025786238088700,11.178088623046875,0.4673754870891571,0.1070578470826149,0.006948592606931925
1772025786248085800,11.188085693359374,0.4899362027645111,0.03736105188727379,-0.022603174671530724
1772025786258082600,11.19808251953125,0.49651435017585754,0.006134578958153725,-0.04530990123748779
1772025786268080600,11.20808056640625,0.49072834849357605,0.006749236024916172,-0.05184689536690712
1772025786278078000,11.218077880859376,0.49258649349212646,0.03006874769926071,-0.033086806535720825
1772025786288074800,11.22807470703125,0.47932368516921997,0.08035402745008469,0.05039796605706215
1772025786298072800,11.23807275390625,0.4071853458881378,0.06609386205673218,0.22335654497146606
1772025786308069600,11.248069580078125,0.33753252029418945,-0.1061471477150917,0.3277322053909302
1772025786318067700,11.258067626953125,0.32711613178253174,-0.3363271951675415,0.3543981611728668
1772025786328064800,11.268064697265626,0.3188190460205078,-0.49414798617362976,0.3388522267341614
1772025786338061800,11.278061767578125,0.2773924171924591,-0.49429231882095337,0.32230257987976074
1772025786348059600,11.2880595703125,0.2156158834695816,-0.3969021141529083,0.2825075089931488
1772025786358056700,11.298056640625,0.16172447800636292,-0.31694167852401733,0.22301937639713287
1772025786368053800,11.3080537109375,0.1460680216550827,-0.27743715047836304,0.17080384492874146
1772025786378051800,11.3180517578125,0.1728314310312271,-0.18984638154506683,0.14681971073150635
1772025786388048600,11.328048583984375,0.2641959488391876,-0.1578519493341446,0.12801699340343475
