time,seconds_elapsed,z,y,x
1772025787117710600,0.064710693359375,-0.19309446817040443,-0.9363444460451602,-0.23992504679784177
1772025787127707400,0.074707275390625,-0.30678689832389355,-0.8872367162659763,-0.2919927954263985
1772025787137705500,0.08470556640625,-0.36652094379663464,-0.8780231899797916,-0.37108912849500775
1772025787147702500,0.09470263671875,-0.39882863768339155,-0.8518775258541107,-0.44545565656274555
1772025787157699600,0.104699462890625,-0.4255728522241115,-0.8292667578563093,-0.47194881895184515
1772025787167697700,0.11469775390625,-0.4733826511472463,-0.8162874492958188,-0.4294682522274553
1772025787177694500,0.124694580078125,-0.5584440301001071,-0.7673691046088934,-0.30093758777379986
1772025787187691500,0.13469140625,-0.6283516790628433,-0.7219590603038668,-0.15222528216540812
1772025787197689600,0.144689697265625,-0.6132546476960182,-0.8067164878740907,-0.016442162365466355
1772025787207686700,0.154686767578125,-0.5499053343355655,-0.9713400638416408,0.0645735944584012
1772025787217683500,0.164683349609375,-0.6231430045038462,-0.9369134781047701,0.04391951348632574
1772025787227681500,0.174681640625,-0.7870277448028326,-0.8236231990113854,0.18860928558036683
1772025787237678600,0.1846787109375,-0.8878384815514088,-0.9373182595133781,0.42999476031959055
1772025787247675600,0.194675537109375,-0.9446487485319376,-1.0777338614195584,0.6001917525053024
1772025787257673500,0.204673583984375,-0.9617366614550351,-1.0706900803878903,0.7296535603292286
1772025787267670500,0.21467041015625,-1.0090291585057973,-0.9237178964450955,0.7551933675162493
1772025787277667600,0.22466748046875,-1.0454296746641396,-0.659960284769535,0.6741694273859262
1772025787287665700,0.234665771484375,-1.013229532805085,-0.3674734222158789,0.5414804742090403
1772025787297662500,0.244662353515625,-0.8907938242256641,-0.13811287792176008,0.44793549067974087
1772025787307659500,0.254659423828125,-0.7552478741824626,0.008797054439783096,0.4410372555986046
1772025787317657300,0.2646572265625,-0.7432125684738159,0.16462532953321932,0.41759003677666184
1772025787327654700,0.274654541015625,-0.6015075112789869,0.3392547512084245,0.28415888693034647
1772025787337651500,0.2846513671875,-0.5383399842262268,0.4678451830253005,0.2766452964298427
1772025787347649500,0.2946494140625,-0.46522857078611846,0.5583993141755461,0.2259906294696033
1772025787357646600,0.304646484375,-0.46061026333570476,0.617333733703196,0.2367386718466878
1772025787367643600,0.3146435546875,-0.4492746303290128,0.7036044884458184,0.20960998803302644
1772025787377641700,0.324641845703125,-0.2973854482501745,0.8264706973969936,0.10017755341157317
1772025787387638500,0.334638427734375,-0.2729483416080475,0.9839645676150918,0.028630758939683434
1772025787397636600,0.34463671875,-0.17593641262054444,1.0696645367324351,-0.0008916881427168846
1772025787407633700,0.354633544921875,0.10463350990712642,1.040647116562724,0.005393383476138115
1772025787417630700,0.364630615234375,0.3662830433875322,0.9735285137966274,0.002598053669184446
1772025787427628500,0.374628662109375,0.48811786346435543,0.9177665868252515,0.08637684546560048
1772025787437625600,0.38462548828125,0.5513128630459309,0.8396054887801409,0.23941534371003506
1772025787447622700,0.39462255859375,0.5660241099655627,0.7357011699303985,0.33520854455754157
1772025787457620700,0.404620849609375,0.4967372232496738,0.6460083317846059,0.4344004479326308
1772025787467617500,0.414617431640625,0.45050329534113404,0.5555901019737124,0.5560343386098742
1772025787477614600,0.424614501953125,0.44025078139603135,0.3992915790200233,0.6624576545432209
1772025787487612400,0.4346123046875,0.35911680501997467,0.2335200020611286,0.762040456932038
1772025787497609700,0.444609619140625,0.24011399349868295,0.10489040727764368,0.8542506847262382
1772025787507607300,0.454607177734375,0.19792963324189186,0.06321604236960411,0.8089312413141131
1772025787517605400,0.46460546875,0.27217794175744053,0.10811842941343784,0.7215170156247913
1772025787527602200,0.474602294921875,0.2532908704578876,0.1683051870897412,0.6640829176574945
1772025787537599200,0.48459912109375,0.023597148686647414,0.2319604976594448,0.6895132731206715
1772025787547597000,0.49459716796875,-0.22908815709352492,0.2846922631546855,0.7117134144909679
1772025787557594400,0.504594482421875,-0.2652437585800886,0.38280426233857867,0.5260008732654154
1772025787567591200,0.514591064453125,-0.15259469999969005,0.5166220734149217,0.23807781149595975
1772025787577589200,0.52458935546875,-0.0379933383077383,0.626103023353219,-0.021809680747985838
1772025787587586000,0.5345859375,0.01706745465695858,0.7239303603768348,-0.07753595188409089
1772025787597583400,0.544583251953125,0.13957155229747295,0.7844748454496264,-0.04961728673651814
1772025787607581400,0.55458154296875,0.2845020012795925,0.7874617523059249,-0.06078121643811464
1772025787617578200,0.564578125,0.45521687985956666,0.7745771362915634,-0.08641323195323347
1772025787627575000,0.574574951171875,0.6801461637079715,0.7170899929627775,-0.11833733334988356
1772025787637573000,0.584572998046875,0.9024690644502639,0.6195110777422785,-0.0915893194168806
1772025787647570400,0.5945703125,0.9739274499863385,0.5011176302909851,0.12114011581093072
1772025787657567200,0.604567138671875,0.890831233626604,0.3671308923885226,0.37302448047176
1772025787667565300,0.6145654296875,0.8463543785184622,0.20103899743407963,0.5360632714658975
1772025787677562000,0.62456201171875,0.8800017965763807,-0.022456746479868887,0.5521440531730651
1772025787687559400,0.634559326171875,0.888697728729248,-0.2006263249799609,0.5297131717868149
1772025787697557200,0.64455712890625,0.8260042489290237,-0.31403204714655875,0.5637688783846795
1772025787707554300,0.65455419921875,0.71759823474586,-0.38670214655995366,0.5983228898935019
1772025787717552000,0.66455224609375,0.6912380510866641,-0.43407764571905133,0.6223294961638748
1772025787727549400,0.674549560546875,0.8438707450091838,-0.45487435003221033,0.5619466313935816
1772025787737546200,0.684546142578125,0.8190484384417533,-0.48591655402779577,0.5296285622432828
1772025787747544300,0.69454443359375,0.6533218696683645,-0.5410869448468089,0.5047336288310587
1772025787757541000,0.704541015625,0.5192530064404011,-0.554738453580439,0.5087406725153326
1772025787767538400,0.714538330078125,0.4025122946321964,-0.5576446964159607,0.5406665274776518
1772025787777536500,0.72453662109375,0.35242929008007046,-0.584476004718244,0.49609278786629435
1772025787787533300,0.734533203125,0.31994857771396634,-0.6238812556505203,0.4304270142570138
1772025787797530000,0.744530029296875,0.28719255553781986,-0.6428019369587302,0.3708953594885766
1772025787807528200,0.754528076171875,0.1992085671365261,-0.6441004523366689,0.34973420577719805
1772025787817525500,0.764525390625,0.05551555099487304,-0.6586918722689151,0.3613428105063736
1772025787827522300,0.774522216796875,-0.09658990418314933,-0.6745289083480834,0.3656999828025698
1772025787837520400,0.784520263671875,-0.19620470914542673,-0.6301017376005649,0.33748671862259505
1772025787847517200,0.79451708984375,-0.27990649018287656,-0.565676903963089,0.3087786566630006
1772025787857514500,0.804514404296875,-0.3016530425667763,-0.5457005761221051,0.2910340333968401
1772025787867512300,0.81451220703125,-0.3427221350580454,-0.5029802092924713,0.2418728929299861
1772025787877509400,0.82450927734375,-0.3982938001543283,-0.47895080666840073,0.21462167871519922
1772025787887506200,0.834506103515625,-0.45075113262236116,-0.4367480339720845,0.17313859859555958
1772025787897504300,0.844504150390625,-0.4187853840410709,-0.39564971538633104,0.09493366140872239
1772025787907501300,0.854501220703125,-0.4106698821246624,-0.38729076010286806,0.055610608867183324
1772025787917498400,0.864498291015625,-0.4669353747040033,-0.48338411294072864,0.1847184886869043
1772025787927496200,0.87449609375,-0.47442777628600596,-0.7746928716257214,0.4035537665091455
1772025787937493200,0.8844931640625,-0.41976504272818566,-1.0065560463905334,0.4883462653927505
1772025787947490300,0.894490234375,-0.3967652754127979,-0.8612073719963431,0.5004552208594978
1772025787957488400,0.90448828125,-0.41369478290379047,-0.7677119266971946,0.5987993482988327
1772025787967485200,0.914485107421875,-0.49515024631917476,-0.9995169415339827,0.7127317246880381
1772025787977482200,0.924482177734375,-0.5933779808372259,-1.2068486093714832,0.8455151512153446
1772025787987480000,0.93447998046875,-0.6801783124119043,-1.136663020250201,0.9546146275553852
1772025787997477400,0.944477294921875,-0.7047744090080261,-0.850528449332714,0.8814000460017472
1772025788007474200,0.95447412109375,-0.6604758330762386,-0.6131289754897356,0.7550551280893385
1772025788017472300,0.96447216796875,-0.6590361556619405,-0.49850510970503087,0.5548373108450323
1772025788027469000,0.974468994140625,-0.6469283692389727,-0.3502139521181583,0.3673484806619584
1772025788037466400,0.98446630859375,-0.6330939051538705,-0.057412616787850854,0.1986011758279055
1772025788047464400,0.99446435546875,-0.6237094062149524,0.26786504699438807,0.07183708265535534
1772025788057461200,1.004461181640625,-0.5836679032057523,0.4847334817230701,-0.12534414337202907
1772025788067459300,1.014459228515625,-0.5087696063488721,0.6389698114499449,-0.3483131599981338
1772025788077456100,1.0244560546875,-0.3583838145703077,0.7483823723271489,-0.5148860434025526
1772025788087453400,1.034453369140625,-0.29449966368079183,0.8387260755971073,-0.6848305951971561
1772025788097451300,1.044451171875,-0.2955184853345156,0.8974863076016306,-0.7954385764040053
1772025788107448300,1.0544482421875,-0.20519582485258578,0.964760100929439,-0.8658201264888048
1772025788117445000,1.064445068359375,-0.024932196682691574,1.0626812537163495,-0.9725061850115656
1772025788127443200,1.074443115234375,0.1107557921797037,1.1079980667799711,-0.9984810226149856
1772025788137440300,1.084440185546875,0.14090543124973773,1.0202876346230507,-0.9186017224751413
1772025788147437300,1.094437255859375,0.15287351694107054,0.8425728141531348,-0.7836893941603601
1772025788157435100,1.10443505859375,0.19572072502076623,0.7468427416697144,-0.6902484555274248
1772025788167432200,1.11443212890625,0.1962105543643236,0.7324427526563405,-0.6716590520001947
1772025788177429200,1.12442919921875,0.13178455168306827,0.6877981397658586,-0.5985711290335283
1772025788187427300,1.13442724609375,0.16838088267445564,0.6061567983895539,-0.55653403176032
1772025788197424000,1.144424072265625,0.2050064397603273,0.5214870491027832,-0.4813167686147615
1772025788207421200,1.154421142578125,0.2208978363752365,0.4339005355864763,-0.4522305575251579
1772025788217419300,1.164419189453125,0.29083061977922914,0.38164427864849565,-0.48750440774112935
1772025788227416300,1.174416259765625,0.3509592175275087,0.4018813032522797,-0.5330158300613984
1772025788237413000,1.1844130859375,0.3145265526652336,0.4572293887257576,-0.5393411240927874
1772025788247411200,1.1944111328125,0.19726795446276663,0.5348550647199154,-0.5193630426861345
1772025788257408300,1.204408203125,0.052607554593682285,0.5741168155282735,-0.4717537347711622
1772025788267405300,1.2144052734375,-0.03774900815784931,0.604455839690566,-0.45252924821078777
1772025788277403400,1.2244033203125,-0.06818681651949882,0.6681167032182216,-0.5408288053672761
1772025788287400200,1.234400146484375,-0.05923135664761066,0.7391247146382928,-0.6508114942826331
1772025788297397200,1.244397216796875,-0.038061142846941946,0.777571349671483,-0.6478767560049891
1772025788307395300,1.254395263671875,0.1443704770117998,0.7542424965322018,-0.6966261008005589
1772025788317392400,1.264392333984375,0.28327158270180225,0.6550877102971077,-0.7196024141751229
1772025788327389200,1.27438916015625,0.4340361446648836,0.5579959940716623,-0.7486883695363998
1772025788337387300,1.28438720703125,0.5223100559234619,0.4737441779360175,-0.7458397021070122
1772025788347384300,1.29438427734375,0.5502934568703174,0.32894904577136036,-0.6374675171282143
1772025788357381400,1.30438134765625,0.5113076003938913,0.1412953073501587,-0.4714518292151391
1772025788367379200,1.314379150390625,0.43316637609302994,-0.06037906537801027,-0.3726624422263354
1772025788377376300,1.324376220703125,0.43204701667428014,-0.23618980579227208,-0.378435837996006
1772025788387373300,1.334373291015625,0.4002233069121837,-0.39185675284415483,-0.432299968522042
1772025788397371400,1.344371337890625,0.350399245557189,-0.4823232057109475,-0.43351847746632993
1772025788407368200,1.3543681640625,0.32160803535878657,-0.5323495116397738,-0.42909415821805597
1772025788417365200,1.364365234375,0.3298977247983217,-0.5951385607689619,-0.37944085032008584
1772025788427363000,1.374363037109375,0.3623264147162437,-0.6160261582359671,-0.31697416501305997
1772025788437360400,1.3843603515625,0.42981706566512584,-0.5603492791995406,-0.3861002351440489
1772025788447357200,1.394357177734375,0.4370464323967695,-0.5823559438243509,-0.5597410841733217
1772025788457355300,1.404355224609375,0.4659638993233442,-0.6178507433146238,-0.5784351171188056
1772025788467352300,1.414352294921875,0.45367549563646314,-0.5478080697953701,-0.5554706403125077
1772025788477350100,1.42435009765625,0.42417292229831216,-0.4449430308654904,-0.5451336629543453
1772025788487347500,1.434347412109375,0.46061610855460167,-0.3840209446519613,-0.5668105111028999
1772025788497344300,1.44434423828125,0.47064299705028534,-0.3692456925854087,-0.5910447886493057
1772025788507341800,1.454341796875,0.3978074779421091,-0.32788696949779983,-0.5791957262277603
1772025788517339000,1.4643388671875,0.3277145355403423,-0.29079905559718605,-0.5662420635651797
1772025788527336000,1.4743359375,0.3033200989961624,-0.27602584935724733,-0.5332085396219045
1772025788537334000,1.484333984375,0.2630804430663585,-0.29946430035084487,-0.5052965964760631
1772025788547330800,1.494330810546875,0.19622692097723482,-0.35557431010752916,-0.4793488660752773
1772025788557328000,1.504327880859375,0.08946925852298736,-0.4267547554850578,-0.44451888716928656
1772025788567326000,1.514325927734375,-0.049877837368845934,-0.5016065828517079,-0.38552930338829755
1772025788577323000,1.524322998046875,-0.20185995842814444,-0.5484580581367016,-0.35163170996159315
1772025788587319800,1.53431982421875,-0.3422872507721185,-0.5730506476014852,-0.3375916403017938
1772025788597318000,1.54431787109375,-0.4544651847094297,-0.5651335908666253,-0.3291724792636931
1772025788607315000,1.55431494140625,-0.608357523304224,-0.5528115771710872,-0.31375454537943004
1772025788617312000,1.56431201171875,-0.7400555657476187,-0.5618602682843804,-0.28428024828769266
1772025788627309800,1.574309814453125,-0.8719137671887874,-0.6482993653312326,-0.18359167661406098
1772025788637307000,1.584306884765625,-1.033028458252549,-0.6344529185473918,-0.17070253055505455
1772025788647304000,1.594303955078125,-1.2304372824907301,-0.33923780007362364,-0.20742891766689717
1772025788657302000,1.604302001953125,-1.4102362157583237,-0.08268558973222971,-0.19835048900246618
1772025788667298800,1.614298828125,-1.5417121398836373,-0.08862813152372837,-0.23510230281651018
1772025788677295900,1.6242958984375,-1.5714941146850585,-0.08054565509408712,-0.19605821334682405
1772025788687294000,1.6342939453125,-1.5857394976586103,0.000443067592382431,-0.22239611210897564
1772025788697291000,1.644291015625,-1.4926614009886978,0.16007336531728505,-0.29364823448322713
1772025788707287800,1.654287841796875,-1.3302262749761342,0.29108780941069123,-0.20980836014933882
1772025788717286000,1.664285888671875,-1.4232108481436967,0.3210521550416946,-0.09098331634774803
1772025788727283000,1.674282958984375,-1.4361819733977317,0.3382975966140628,-0.15650683194212614
1772025788737280000,1.684280029296875,-1.386400582140684,0.40394320421814917,-0.1268788786586374
1772025788747278000,1.694278076171875,-1.4194108713388442,0.49893444103300566,-0.1629649951055646
1772025788757275000,1.70427490234375,-1.3591706299096344,0.5569304106667637,-0.22312048086076974
1772025788767272000,1.71427197265625,-1.3179168285012244,0.5813286466032266,-0.2421623773958534
1772025788777269800,1.724269775390625,-1.1388444559425115,0.6311155908182263,-0.2840773461267352
1772025788787267000,1.73426708984375,-0.7973825500786303,0.7419140530958771,-0.38289924714565277
1772025788797264000,1.744263916015625,-0.466387677693367,0.8526435417905449,-0.3995203462745994
1772025788807262000,1.754261962890625,-0.2299386364430189,0.9919386152341961,-0.4960207455433905
1772025788817258800,1.7642587890625,0.08161971406638621,1.1101605055108665,-0.5292812101103365
1772025788827256000,1.774256103515625,0.47204818767309187,1.1198252826958894,-0.3991982016481459
1772025788837254000,1.78425390625,0.8226613682419062,1.0111591562718152,-0.22645284015387296
1772025788847251000,1.7942509765625,1.1178326475739477,0.837812760144472,-0.030308482893556355
1772025788857247700,1.804247802734375,1.2821715613812208,0.6898866364777088,0.15688362936526537
1772025788867245800,1.814245849609375,1.32818278644979,0.592144931910932,0.37230668759122487
1772025788877243000,1.824242919921875,1.1925924127429723,0.581626460506022,0.5823642732612788
1772025788887240000,1.834239990234375,1.0176116934120654,0.5808961004048585,0.6927408568650484
1772025788897238000,1.844238037109375,0.8417056759297847,0.44650195074528454,0.7818358752481639
1772025788907234800,1.85423486328125,0.6350146440833807,0.2224295759871602,0.8526718911021948
1772025788917231900,1.86423193359375,0.5015227039605379,0.05957067160457372,0.9037703563071787
1772025788927230000,1.87422998046875,0.4237690176725387,-0.008470014442503452,1.0557955858558417
1772025788937227000,1.88422705078125,0.3060872256219387,-0.08865092787742614,1.1479543757237494
1772025788947223800,1.894223876953125,0.3376934932410717,-0.062493281053006645,1.005119729977101
1772025788957222000,1.904221923828125,0.20099311246573923,0.028519992041587828,0.8081617182463408
1772025788967219000,1.914218994140625,-0.1485147372096777,0.026751521064341068,0.4737044304475188
1772025788977216000,1.924216064453125,-0.3863648774296045,0.058202598121762275,0.005375847819447517
1772025788987213800,1.9342138671875,-0.40850364400148387,0.1314849842146039,-0.25231428051069377
1772025788997211000,1.9442109375,-0.3952706529408693,0.2740525034576654,-0.2127083924397826
1772025789007208700,1.954208740234375,-0.591688128054142,0.4921379127606749,-0.26491686471328135
1772025789017206000,1.9642060546875,-0.48507191989719867,0.5117793095588684,-0.33884850849509235
1772025789027202800,1.974202880859375,-0.22311785051226615,0.4691586037114262,-0.30200054083019495
1772025789037201000,1.984200927734375,-0.06935819838643073,0.4801332944512367,-0.22442235723957418
1772025789047197700,1.99419775390625,0.10004092141985893,0.4981678405746817,-0.1620565019585192
1772025789057195000,2.004195068359375,0.41307752778828144,0.3878682677298784,-0.14109174760207532
1772025789067192800,2.01419287109375,0.6849409967690706,0.2799950452491641,-0.11613500100001692
1772025789077190000,2.02418994140625,0.823430014526844,0.2325654778152704,-0.0038607670813798904
1772025789087186700,2.034186767578125,0.8248965799480676,0.13822130673229693,0.2703247151061892
1772025789097185000,2.04418505859375,0.6986603100419044,-0.0705319183409214,0.622220044440031
1772025789107181800,2.054181884765625,0.5772486838132143,-0.3133011025235057,0.7890230102732777
1772025789117179000,2.064178955078125,0.5133043271690607,-0.4743444819167256,0.7995948193006217
1772025789127177000,2.074177001953125,0.4610837260663509,-0.5440881724894047,0.7907230921894312
1772025789137174000,2.084174072265625,0.5031564426422119,-0.5628250216633081,0.7691273464530706
1772025789147170800,2.0941708984375,0.5897960306972265,-0.5655009628742933,0.8243722638130188
1772025789157169000,2.1041689453125,0.5678595086991787,-0.5347486817359924,0.9255340059563517
1772025789167166000,2.114166015625,0.4935995097458362,-0.542263587410748,0.9854809635274112
1772025789177163000,2.1241630859375,0.46391865723133086,-0.5815618708372116,0.9621737376980483
1772025789187161000,2.1341611328125,0.45435471007227896,-0.6256164088800549,0.8514126848213374
1772025789197158000,2.144157958984375,0.4179501022607088,-0.6065645024076104,0.721716191458702
1772025789207155000,2.154155029296875,0.37645489331185816,-0.5250786438539624,0.6591591975197195
1772025789217152800,2.16415283203125,0.34912849496901033,-0.4158595597222447,0.6125720722593366
1772025789227150000,2.174150146484375,0.3213268803298473,-0.3121896341502666,0.5879734914451837
1772025789237147000,2.18414697265625,0.26479192315936084,-0.2582286191210151,0.5574214090541004
1772025789247145000,2.19414501953125,0.17455811000466345,-0.19756576836556194,0.49856750741675493
1772025789257141800,2.204141845703125,0.08331599659025668,-0.1137342234686017,0.4173820931144058
1772025789267139000,2.21413916015625,0.014660393515229225,-0.0362616922095418,0.3434320368930697
1772025789277137000,2.224136962890625,-0.02312368595600128,0.01142594163864851,0.2904557951174676
1772025789287134000,2.234134033203125,0.01878945614397526,0.006867255420982837,0.25175533145368095
1772025789297130800,2.244130859375,0.07998071468770504,-0.0015235563054680824,0.27771409470513464
1772025789307128800,2.25412890625,0.14262275656163692,0.0026756489500403403,0.2981532177522778
1772025789317126000,2.2641259765625,0.16513444809913636,0.015781798760592936,0.36472456189915536
1772025789327123000,2.274123046875,0.20760756216943263,-0.017859774078428745,0.463167692733556
1772025789337121000,2.28412109375,0.2557376790881157,-0.0800695620149374,0.5741967488966881
1772025789347117800,2.294117919921875,0.30175299580991266,-0.15221446851044892,0.6631390609361231
1772025789357115000,2.304114990234375,0.348785965141654,-0.2075432647615671,0.7595293508939445
1772025789367113000,2.314113037109375,0.377087345996499,-0.2683957928702235,0.8410694238528609
1772025789377110000,2.324110107421875,0.37280396958887574,-0.33142098884284493,0.9067068481504916
1772025789387106800,2.33410693359375,0.36533085722923275,-0.3931885859698057,0.9771190856344998
1772025789397105000,2.34410498046875,0.3189619047641754,-0.4757046643540263,1.0316742671646177
1772025789407102000,2.35410205078125,0.2289233219206333,-0.6038806701511145,1.120297576382756
1772025789417099000,2.36409912109375,0.13416414029598236,-0.8502475865647197,1.2345587463349104
1772025789427096800,2.374096923828125,0.0683136577695608,-1.0531728361368178,1.2540898146264254
1772025789437094000,2.384093994140625,-0.07210369770228862,-0.9731558810919523,1.2011444063805043
1772025789447091000,2.394091064453125,-0.2657072844386101,-0.8218728482127189,1.1533633951604365
1772025789457089000,2.404089111328125,-0.37685178367495537,-0.8254378472179174,1.0670698440641164
1772025789467085800,2.4140859375,-0.3984171342730522,-0.8781406788796186,0.9546109742935747
1772025789477083000,2.424082763671875,-0.3482978893637657,-0.8091428382381797,0.8234138671096414
1772025789487080700,2.434080810546875,-0.2815279539048672,-0.6706260556906462,0.7268421561703086
1772025789497078000,2.444078125,-0.23060849852859971,-0.6019900340989232,0.6641969724912196
1772025789507074600,2.454074462890625,-0.2320774020373821,-0.6073445468693971,0.6448834924731404
1772025789517072400,2.464072265625,-0.2609253108590841,-0.592894581234455,0.6536260402467101
1772025789527069700,2.474069580078125,-0.3006435732632875,-0.5180193729922176,0.6796255738999695
1772025789537066500,2.48406640625,-0.34395956789851184,-0.419913511288166,0.6496295179564505
1772025789547064600,2.494064697265625,-0.41124622070789335,-0.33628158061653374,0.5555888598646969
1772025789557061400,2.504061279296875,-0.4159235648691654,-0.22102029371112583,0.4016485174097121
1772025789567058700,2.51405859375,-0.38385786304473873,-0.050881169192492956,0.24859036461673675
1772025789577056500,2.524056396484375,-0.3670318159282207,0.13394260649979114,0.12171908474266528
1772025789587053600,2.534053466796875,-0.42486148908436294,0.3637324821218848,0.002818126160651445
1772025789597050400,2.54405029296875,-0.5100181451052427,0.6074158585399388,-0.11881247658096253
1772025789607048400,2.55404833984375,-0.5372153641104698,0.8476599081590771,-0.21515790448375044
1772025789617045800,2.564045654296875,-0.4185544978946447,1.0225465194657444,-0.37294082077629864
1772025789627042600,2.57404248046875,-0.26935470103025433,1.0672001924455166,-0.5263170630751177
1772025789637040600,2.58404052734375,-0.19404431624114513,1.0656155536025762,-0.6677354488156736
1772025789647037400,2.594037353515625,-0.14810264927744865,1.0417059779658913,-0.7565052538324147
1772025789657034800,2.60403466796875,-0.12074293318688868,0.9826724819779395,-0.7711671817176043
1772025789667032600,2.614032470703125,-0.14509002345800398,0.9088499976590275,-0.7519044820386916
1772025789677029600,2.624029541015625,-0.1841945378780365,0.8183616252213716,-0.641327188231051
1772025789687026400,2.6340263671875,-0.15963234355151654,0.7327826521351933,-0.6052301850639283
1772025789697024500,2.6440244140625,-0.10455343040823936,0.6629489451915025,-0.6025106604395434
1772025789707021600,2.654021484375,-0.023028993409872054,0.6162684425592422,-0.588106324044615
1772025789717018600,2.6640185546875,0.08879939643740653,0.569992429074645,-0.5219085259178653
1772025789727016400,2.674016357421875,0.18630466189980505,0.5232613652989268,-0.46481878440883007
1772025789737013500,2.684013427734375,0.28898411512970923,0.47673722227215765,-0.47631190953217445
1772025789747011300,2.69401123046875,0.3724298755794763,0.4178872661575675,-0.4794331833578646
1772025789757008600,2.704008544921875,0.4145078528523445,0.3685188396155834,-0.4683994559071958
1772025789767005400,2.71400537109375,0.39183074162006376,0.3234571703568101,-0.44659262470342215
1772025789777002500,2.72400244140625,0.35087387733161446,0.31155981181412934,-0.46008083263412114
1772025789787000300,2.734000244140625,0.326111191996932,0.3434887355163693,-0.4227794951785356
1772025789796997600,2.74399755859375,0.2879384054690599,0.32550358149260283,-0.42336153285019096
1772025789806995700,2.75399560546875,0.2638771464020014,0.3003735241502523,-0.4942113580338657
1772025789816992500,2.763992431640625,0.1977618754595518,0.3548571017488837,-0.5612849526144564
1772025789826989300,2.7739892578125,0.16587620637714862,0.4334942928731441,-0.6144387429140508
1772025789836986600,2.783986572265625,0.18625673110485075,0.5002484462410212,-0.624031916167587
1772025789846984700,2.793984619140625,0.282999780023098,0.4872387425422668,-0.6659298606984317
1772025789856981500,2.8039814453125,0.4277455200880766,0.4102972494199872,-0.7340360862623899
1772025789866979600,2.8139794921875,0.5137058937072754,0.2888637036204338,-0.758701229506731
1772025789876976400,2.823976318359375,0.5813134490340948,0.14448504330217837,-0.754380882089585
1772025789886973700,2.8339736328125,0.6084691669851541,-0.014980419249832629,-0.6794046246256679
1772025789896971500,2.843971435546875,0.5766904654085636,-0.17829145131409166,-0.5506896896462887
1772025789906968600,2.853968505859375,0.5339584081411362,-0.37117227673381564,-0.44682409537173806
1772025789916965400,2.86396533203125,0.4974824886590242,-0.5842661613598465,-0.415303752470389
1772025789926963500,2.87396337890625,0.3860048119455576,-0.7948939481332897,-0.3335151115778833
1772025789936960500,2.88396044921875,0.37689503829479215,-0.9324635129585862,-0.24666348820738493
1772025789946957600,2.89395751953125,0.4171744417130947,-0.9207990863889455,-0.22644334167316554
1772025789956955400,2.903955322265625,0.44020285060107706,-0.8911693795397877,-0.22759857612289486
1772025789966952400,2.913952392578125,0.4229372430235147,-0.9034203738257288,-0.17628544525392353
1772025789976949500,2.923949462890625,0.4363672179609537,-0.8875251778185367,-0.14746749317906796
1772025789986947600,2.933947509765625,0.4447276345491409,-0.8152394015476108,-0.12325053209364413
1772025789996944400,2.9439443359375,0.4466606484383344,-0.7306202134042978,-0.0881781227339059
1772025790006941400,2.95394140625,0.4758604394376278,-0.6367360610485077,-0.09884089798033237
1772025790016939500,2.963939453125,0.5109060338556766,-0.5520423463642596,-0.14575484404228628
1772025790026936600,2.9739365234375,0.502389549922943,-0.5029293558880686,-0.17905067218355833
1772025790036933400,2.983933349609375,0.4572469243824482,-0.4597419560685754,-0.17033735050447285
1772025790046931500,2.993931396484375,0.39042788908481596,-0.4337222564101219,-0.16601897584870456
1772025790056928500,3.003928466796875,0.30652853964865207,-0.4378630094766617,-0.13286672089658677
1772025790066925600,3.013925537109375,0.23564006295502185,-0.4302613023012876,-0.07988507229350507
1772025790076923600,3.023923583984375,0.13753741612136364,-0.4277957889705896,-0.041392479226738214
1772025790086920400,3.03392041015625,0.07303133394122123,-0.3999932975485921,-0.09553367312848568
1772025790096917500,3.04391748046875,0.06729132898449898,-0.3467126659989357,-0.13918342976272105
1772025790106915600,3.05391552734375,-0.006654197192192077,-0.3679594521671533,-0.1248671004448086
1772025790116912600,3.06391259765625,-0.05297872599363327,-0.4070578291073441,-0.12106821961849927
1772025790126909400,3.073909423828125,-0.18859306509792803,-0.47688189143985504,-0.05538125709071755
1772025790136907500,3.083907470703125,-0.29548633663058277,-0.5260980500295758,-0.07341127316951751
1772025790146904600,3.093904541015625,-0.4010451446890831,-0.5383031593471765,-0.040856472653895616
1772025790156901600,3.103901611328125,-0.5767682068198919,-0.5427662762358785,-0.06123356331549584
1772025790166899500,3.1138994140625,-0.6945195569753646,-0.524197184844315,-0.1282338003989309
1772025790176896500,3.123896484375,-0.779496180254221,-0.43384237565845246,-0.19555778954401612
1772025790186893600,3.1338935546875,-0.8397977964818477,-0.33248394189924,-0.2456904053915292
1772025790196891600,3.1438916015625,-0.8398843057215213,-0.32696488621681924,-0.25373386498503386
1772025790206888400,3.153888427734375,-0.8328764727860689,-0.5143921224057674,-0.2001037624105811
1772025790216885500,3.163885498046875,-0.8896803100258112,-0.7643059176459908,-0.15016155456863342
1772025790226883300,3.17388330078125,-0.9356009342014789,-0.7366632929608226,-0.18143303727544843
1772025790236880600,3.183880615234375,-0.9409960712432861,-0.5814402902841568,-0.07555683383084834
1772025790246877400,3.19387744140625,-1.0477461349129675,-0.7074404133468866,0.0908946882162243
1772025790256875500,3.20387548828125,-1.1772452060073613,-0.9631155485928058,0.20650961086489258
1772025790266872300,3.213872314453125,-1.2500310407549142,-1.0655641156762838,0.28512407870069145
1772025790276869600,3.22386962890625,-1.2887111922830343,-0.9403656643852591,0.278631940202415
1772025790286867700,3.23386767578125,-1.285526132506132,-0.7025900507062673,0.20001345377862453
1772025790296864500,3.243864501953125,-1.2416279540687798,-0.49167087977081536,0.08097169848643243
1772025790306861600,3.253861572265625,-1.1660124488532542,-0.3528378708809614,0.017477058371156453
1772025790316859400,3.263859375,-1.0857751290559767,-0.20895430060327053,0.012983546344190836
1772025790326856700,3.273856689453125,-0.9613654900550842,0.008428805649280547,0.023296412174403668
1772025790336853500,3.283853515625,-0.8676543561786413,0.17467267629504202,0.07625416844524442
1772025790346851600,3.2938515625,-0.685432579678297,0.277430747719109,-0.021670856799185276
1772025790356848400,3.303848388671875,-0.39051089119315147,0.40967327230274675,-0.03042429129295051
1772025790366845700,3.313845703125,-0.19380349322259424,0.5651107945129275,0.02048508108071983
1772025790376843500,3.323843505859375,-0.023279168778657912,0.7095686575472354,0.05180442151725292
1772025790386840600,3.333840576171875,0.11373860738277435,0.7894543874278664,0.16522497592680155
1772025790396837400,3.34383740234375,0.22225392715930936,0.8771040293082595,0.2382950344432145
1772025790406835500,3.35383544921875,0.4008575131624937,1.0259440529495476,0.20520795368179678
1772025790416832500,3.36383251953125,0.6017974341362714,1.1225313267841934,0.16966098561286924
1772025790426829600,3.37382958984375,0.7475029591441154,1.0990221486419438,0.20009755186550318
1772025790436827400,3.383827392578125,0.8009159849017858,1.0159335310667752,0.3036784109145403
1772025790446824400,3.393824462890625,0.8696580972164869,0.9164835612773895,0.47755306869968767
1772025790456821500,3.403821533203125,0.8901566953659057,0.9318582405418157,0.5933019199263304
1772025790466819600,3.413819580078125,0.8736725935548544,0.970461527441442,0.6272355345144868
1772025790476816400,3.42381640625,0.8290572067588567,0.9145981859222054,0.6653954615607858
1772025790486813400,3.4338134765625,0.7397785023719072,0.7711439469724893,0.7676349159382283
1772025790496811500,3.4438115234375,0.6377069519072771,0.5941320140749216,0.8822581972010434
1772025790506809600,3.4538095703125,0.6901561010688543,0.4370484782233834,0.9624253013063222
1772025790516806400,3.463806396484375,0.6384142233937978,0.2988940992474556,1.1079039587557316
1772025790526804500,3.473804443359375,0.4932172324299812,0.15717998196333646,1.146782190139219
1772025790536801300,3.48380126953125,0.4151239389240742,0.10957301213592291,1.1185958139661698
1772025790546798600,3.493798583984375,0.2896352725148201,0.13241788115054368,1.0803675709240137
1772025790556796400,3.50379638671875,0.013872458007931708,0.19454758958816526,1.0062837322551756
1772025790566793500,3.51379345703125,-0.38761809236109257,0.27622867845296856,0.9512536266896873
1772025790576790300,3.523790283203125,-0.7668149778574704,0.38347763155549763,0.9630108461093156
1772025790586788400,3.533788330078125,-0.9679401922702788,0.45961423803567886,0.8445600424475967
1772025790596785400,3.543785400390625,-0.8725292687386274,0.5194286552682519,0.487276225008443
1772025790606782500,3.553782470703125,-0.5265741431087255,0.5989040507823229,0.20042766060270367
1772025790616780300,3.5637802734375,-0.17972119185626506,0.6832268863275647,-0.04086136802472174
1772025790626777300,3.57377734375,0.06740005005598068,0.7473828398957848,-0.27309147640578446
1772025790636774400,3.5837744140625,0.3037719344168901,0.7307669283986091,-0.35237383356578644
1772025790646772500,3.5937724609375,0.5160498264849186,0.649111558496952,-0.24041231885813175
1772025790656769500,3.60376953125,0.6710697078049183,0.6219964648172259,-0.17107706295587122
1772025790666766300,3.613766357421875,0.8142816624313592,0.5005778243258595,0.09935790759176015
1772025790676764400,3.623764404296875,0.8725292687386274,0.3009697364777326,0.36036541684158147
1772025790686761500,3.633761474609375,0.950423824802041,0.08547901984304189,0.431429030906409
1772025790696758500,3.643758544921875,0.8965104483067989,-0.11665975552648306,0.5036443722896278
1772025790706756400,3.65375634765625,0.8976192863315343,-0.2651081495016813,0.5322733776636421
1772025790716753400,3.66375341796875,0.9521271215885877,-0.38754444260299203,0.5926694672416896
1772025790726750500,3.67375048828125,0.8775421284645796,-0.47670448904633517,0.7234831280659884
1772025790736748500,3.68374853515625,0.7556880191653966,-0.559117691577971,0.8339503125626593
1772025790746745300,3.693745361328125,0.6978010628640652,-0.6288213424012065,0.9013098844777793
1772025790756742400,3.703742431640625,0.673656801688671,-0.7010419444814324,0.8735683294627815
1772025790766740200,3.713740234375,0.6204699859023094,-0.7437763398364186,0.8294090158712119
1772025790776737500,3.723737548828125,0.5431459232032299,-0.7420297884300351,0.7620164915345609
1772025790786734300,3.733734375,0.47489831640720365,-0.7288456049472093,0.7354403270371258
1772025790796732400,3.743732421875,0.45094168675839896,-0.7071507827505469,0.7250459204033016
1772025790806729200,3.753729248046875,0.35460838768482206,-0.7006415469869971,0.7030774688970297
1772025790816726500,3.7637265625,0.20998422817289827,-0.676333327421546,0.6907259368460625
1772025790826724400,3.773724365234375,0.04628127418160438,-0.6015417058095336,0.6707876029279083
1772025790836721400,3.783721435546875,-0.044975452280044556,-0.5470686496049165,0.604483896741271
1772025790846718200,3.79371826171875,-0.035142040529847145,-0.5236176313906907,0.5333084928650409
1772025790856716300,3.80371630859375,-0.10548983447551727,-0.4802434768274426,0.47290845776423807
1772025790866713300,3.81371337890625,-0.2441547933220863,-0.4420218827217817,0.4570095354299992
1772025790876710400,3.82371044921875,-0.3330786929219961,-0.4118146682456135,0.4317738988213241
1772025790886708500,3.83370849609375,-0.43036885432898997,-0.3622749767899513,0.3816642985232174
1772025790896705300,3.843705322265625,-0.5076029006570577,-0.30683687494546175,0.42410665212906895
1772025790906702300,3.853702392578125,-0.45975569233298297,-0.2361506428256631,0.4614014867786318
1772025790916700400,3.863700439453125,-0.46048868278265,-0.14072393720299003,0.4348356975447386
1772025790926697500,3.873697509765625,-0.40517362279593944,-0.08019377291649579,0.3911714739937335
1772025790936694300,3.8836943359375,-0.2804839978098869,-0.01700695664137602,0.3243308844514191
1772025790946692400,3.8936923828125,-0.28255320529937744,0.02849631890505552,0.3113176736213267
1772025790956689400,3.903689453125,-0.24057050509452818,-0.051557168757915495,0.4364357531525194
1772025790966686500,3.9136865234375,-0.16373042652010916,-0.24325784448236226,0.583417216380313
1772025790976684300,3.923684326171875,-0.1278618252813816,-0.3347770212724805,0.7087929969996214
1772025790986681300,3.933681396484375,-0.1951297733902931,-0.2498746322736144,0.8019220201391726
1772025790996678400,3.943678466796875,-0.2724514980018139,-0.24250088863521813,0.8420033437021076
1772025791006676500,3.953676513671875,-0.35615970878005027,-0.4320169137969613,0.8413590544492006
1772025791016673300,3.96367333984375,-0.41435237002968783,-0.6334352659374475,0.8994893910523504
1772025791026670300,3.97367041015625,-0.4772936871111393,-0.6307020415812731,0.8953029722131788
1772025791036668400,3.98366845703125,-0.5025532160520554,-0.447370258012414,0.8135990139294416
1772025791046665500,3.99366552734375,-0.48916474216878414,-0.27957506627142426,0.6434529482133686
1772025791056662300,4.003662353515625,-0.4816361002296209,-0.1935568249851465,0.4388793103797361
1772025791066660400,4.013660400390625,-0.5256786555737256,-0.14399842882901429,0.26527181563079355
1772025791076657400,4.023657470703125,-0.6263818402945995,-0.07884235830754041,0.14524218181241302
1772025791086654500,4.033654541015625,-0.7225432899326085,0.03621668402403593,0.04848957961453124
1772025791096652500,4.043652587890625,-0.7368985630214214,0.17003040344715117,-0.09332147697173059
1772025791106649300,4.0536494140625,-0.7220119595348835,0.26473990071117875,-0.23664249972952528
1772025791116646400,4.063646484375,-0.7081096909105777,0.3245458423763513,-0.3936762964215129
1772025791126644500,4.07364453125,-0.6613134529441594,0.4484595145538449,-0.526358052672632
1772025791136641500,4.0836416015625,-0.5237918189138173,0.617272066643834,-0.666101490938291
1772025791146638300,4.093638427734375,-0.5820166288673877,0.7043629055976868,-0.7563771704733371
1772025791156636400,4.103636474609375,-0.5651163474708796,0.7394359725445508,-0.861684561054036
1772025791166633500,4.113633544921875,-0.3389391093879938,0.7970002727627754,-0.906121960934624
1772025791176630500,4.123630615234375,-0.15541209550797938,0.860813988764584,-0.8972644815444946
1772025791186628400,4.13362841796875,-0.03949263695478439,0.8971303337708115,-0.8311493567325174
1772025791196625400,4.14362548828125,0.033417116433382035,0.8628945944309234,-0.7447589211329817
1772025791206622500,4.15362255859375,0.07222703182101249,0.7884636228248476,-0.6622960342407226
1772025791216620500,4.16362060546875,0.10675824697613716,0.7261758012160658,-0.587209740531072
1772025791226617300,4.173617431640625,0.19347148478925227,0.6875342281326651,-0.5435777387492359
1772025791236614400,4.183614501953125,0.26294892564117905,0.6414686425283551,-0.4825859848329797
1772025791246612200,4.1936123046875,0.32984804043769833,0.572896333822608,-0.4042141301140189
1772025791256609500,4.203609619140625,0.3903466405421495,0.49856969937384127,-0.31155265142098065
1772025791266606300,4.2136064453125,0.3723077105045318,0.40126813978999853,-0.24753650818224995
1772025791276604400,4.2236044921875,0.34719255847036834,0.40619185992777346,-0.2374402807774022
1772025791286601200,4.233601318359375,0.29106618210077284,0.4496799962595105,-0.1683948381345719
1772025791296598500,4.2435986328125,0.2628635854452848,0.4589002445474267,-0.16730773701760918
1772025791306596600,4.2535966796875,0.2356371403455734,0.48434448240548367,-0.18439535767976192
1772025791316593400,4.263593505859375,0.19205168111920357,0.517712499000132,-0.2298584108136594
1772025791326590200,4.273590087890625,0.22811960432231426,0.5330082678094505,-0.36039588504508135
1772025791336588300,4.28358837890625,0.32128596379756924,0.5529764123439789,-0.4048325542733073
1772025791346585600,4.293585693359375,0.41559038739204407,0.541461623378098,-0.41390546651240434
1772025791356582400,4.30358251953125,0.5138777431428432,0.4673991928234696,-0.47012189578562974
1772025791366580500,4.31358056640625,0.5911971296668053,0.3720581196576357,-0.48487672611866145
1772025791376577300,4.323577392578125,0.6154144560784102,0.2945741902217269,-0.43447051749415694
1772025791386574600,4.33357470703125,0.5807365259289741,0.1690901999875903,-0.30121750069372355
1772025791396572400,4.343572509765625,0.5164905559897423,0.003995207116007805,-0.16179533027168364
1772025791406569500,4.353569580078125,0.4807569793075323,-0.16852935123443602,-0.08793689785655587
1772025791416566300,4.363566162109375,0.4488403305649757,-0.30255612888634204,-0.13105466650594025
1772025791426564400,4.373564453125,0.358929758015275,-0.39801118382066486,-0.14130816683173178
1772025791436561400,4.3835615234375,0.27641630997955796,-0.46944355813264843,-0.1057344934189692
1772025791446558500,4.393558349609375,0.2681488323718309,-0.4979638424351811,-0.13489873818084597
1772025791456556300,4.403556396484375,0.2696048763990402,-0.48458647446781394,-0.20631211553141474
1772025791466553300,4.41355322265625,0.19048866958618163,-0.4648980236575007,-0.2536719056647271
1772025791476550400,4.42355029296875,0.14847674328684807,-0.41928047408163543,-0.349609775679931
1772025791486548500,4.433548583984375,0.1980138043940067,-0.340085649074614,-0.47630182652957737
1772025791496545300,4.443545166015625,0.20506606099307537,-0.263670810174942,-0.5568755386743695
1772025791506541800,4.453541748046875,0.16870178519189358,-0.20195786584466693,-0.5662048002947122
1772025791516540000,4.463539794921875,0.14177110816836355,-0.15496435174047946,-0.5546230835724621
1772025791526536700,4.47353662109375,0.19447978504896163,-0.10239449880868196,-0.5702112594570964
1772025791536533800,4.48353369140625,0.2686421688467264,-0.03142418905049562,-0.588450095980987
1772025791546531600,4.493531494140625,0.28810791681706904,-0.008970072919130325,-0.5828375898614525
1772025791556529000,4.50352880859375,0.3070446724772453,-0.06086217271983623,-0.5619613175060599
1772025791566525700,4.513525634765625,0.32391865038871764,-0.14810557188689707,-0.4852741644710302
1772025791576523800,4.523523681640625,0.3053986588358879,-0.21432839485704896,-0.3977049674157053
1772025791586520600,4.5335205078125,0.2663642870426178,-0.23253537493795154,-0.34764285952113566
1772025791596518000,4.543517822265625,0.21447744793891904,-0.284775265263021,-0.30042079735808075
1772025791606516000,4.553515869140625,0.1891349168896675,-0.36400896097570656,-0.2793449107773602
1772025791616512800,4.5635126953125,0.12852876475751399,-0.44567572905421254,-0.23260369093380867
1772025791626509600,4.573509521484375,0.0485375286757946,-0.5067091666877269,-0.19499489496424793
1772025791636507600,4.583507568359375,-0.006046878948807716,-0.5445017217263579,-0.14662483180984853
1772025791646505000,4.5935048828125,-0.032119477838277816,-0.5415139380872249,-0.14987301995083688
1772025791656501800,4.603501708984375,-0.08337912495434284,-0.5268994295403361,-0.1863589493703097
1772025791666499800,4.613499755859375,-0.13552315368950366,-0.5099202376887202,-0.21115276049561799
1772025791676496600,4.62349658203125,-0.19494857160449028,-0.5034086638376116,-0.23205124468281862
1772025791686494000,4.633493896484375,-0.2736141120404005,-0.46851066119670864,-0.2581962512213737
1772025791696491800,4.64349169921875,-0.3408814756274223,-0.421120256729424,-0.31287761641442774
1772025791706488800,4.65348876953125,-0.3490606904298067,-0.43689124183505773,-0.3083641575779766
1772025791716485600,4.663485595703125,-0.3966752590417862,-0.5962590892314911,-0.2043744985323399
1772025791726483700,4.673483642578125,-0.5501923345834017,-0.6723392893493175,-0.14390402854382991
1772025791736480800,4.683480712890625,-0.7093149750471115,-0.5021463888168335,-0.12613595133684574
1772025791746477800,4.693477783203125,-0.7412000596076249,-0.412091731621325,-0.1247098640564829
1772025791756475600,4.7034755859375,-0.7360229492306709,-0.5199795671492815,-0.15470292432531713
1772025791766472700,4.71347265625,-0.7630594247162341,-0.6109548463210464,-0.12111381232589483
1772025791776469800,4.7234697265625,-0.8057078953534365,-0.5773384079232812,-0.06205225928723812
1772025791786467800,4.7334677734375,-0.8071499108552932,-0.5316229509308934,-0.0014218494966626166
1772025791796464600,4.743464599609375,-0.741356711474061,-0.5118626039281488,0.023454379215091466
1772025791806461700,4.753461669921875,-0.7112018117070198,-0.49474049647450447,0.11031798528432846
1772025791816459800,4.763459716796875,-0.7612848162591457,-0.5065039995044469,0.2137397813141346
1772025791826456800,4.773456787109375,-0.8417500995934009,-0.515118390853703,0.3031519758876413
1772025791836453600,4.78345361328125,-0.9067524408578872,-0.5013391640871763,0.35494945620745416
1772025791846451700,4.79345166015625,-0.9213666571438311,-0.4487821706369519,0.37446116221137343
1772025791856448800,4.80344873046875,-0.8943839576721191,-0.37742432286590333,0.3621872254412621
1772025791866445800,4.81344580078125,-0.8189642672896384,-0.24636077893376349,0.34780382223650813
1772025791876444000,4.82344384765625,-0.7442781518787145,-0.08680471548885106,0.359087798121199
1772025791886440700,4.833440673828125,-0.6750438721328973,0.1120674593001604,0.3064513096939772
1772025791896437800,4.843437744140625,-0.5575356830835342,0.2962883006632328,0.20012254017628728
1772025791906435800,4.853435791015625,-0.4303951578140259,0.387307711237669,0.2092166048012674
1772025791916433000,4.863432861328125,-0.3197890032380819,0.5023220376446843,0.2160392173629254
1772025791926429700,4.8734296875,-0.11143325304985045,0.7207000001534819,0.10368921479433775
1772025791936427800,4.883427734375,0.14113281026482583,0.9185954388648271,0.035474195093661544
1772025791946424800,4.8934248046875,0.3563753973573446,1.0786606208756566,-0.05506232733465731
1772025791956422000,4.903421875,0.5917991872131824,1.1190551751062274,-0.052058030952140684
1772025791966419700,4.913419677734375,0.7878478290140628,1.0685358249634505,0.06645188248567283
1772025791976416800,4.923416748046875,0.977139982292056,1.003285354156792,0.29049305838793515
1772025791986413800,4.933413818359375,1.1016939981997012,0.954815922281146,0.5100143457129598
1772025791996412000,4.943411865234375,1.1004086345642805,0.8563973413661122,0.6835087720088661
1772025792006408700,4.95340869140625,1.0591676926374434,0.6930614671215415,0.7590858449101447
1772025792016405800,4.96340576171875,0.9989069929420947,0.5467015698581934,0.8035152076147496
1772025792026403600,4.973403564453125,0.8868202444195746,0.4101265690281987,0.9296515973430126
1772025792036401000,4.98340087890625,0.7634189056783914,0.23856588727384803,1.0693903959661721
1772025792046397700,4.993397705078125,0.6653396397203206,0.056850598990917205,1.1823534889318048
1772025792056395800,5.003395751953125,0.5705301892131567,-0.03766279117912054,1.2115681852392852
1772025792066392600,5.013392578125,0.4493605550467968,-0.08997779256701469,1.2268135390356183
1772025792076390000,5.023389892578125,0.3283586786627769,-0.11829875490516424,1.1919308070290833
1772025792086388000,5.033387939453125,0.2426309447556734,-0.12477964135706424,1.1044383284717798
1772025792096384800,5.043384765625,0.11731880395710467,-0.13179010464102028,1.056842391495034
1772025792106381800,5.0533818359375,-0.07498655966222285,-0.08238573000282048,1.0077874148163943
1772025792116379600,5.063379638671875,-0.2631651987403631,0.03098112145811319,0.9115704355988651
1772025792126377000,5.073376953125,-0.3878133226722479,0.15710837803184985,0.7126997221145779
1772025792136373800,5.083373779296875,-0.4617898285090923,0.2868710684984922,0.5063213364139199
1772025792146371800,5.093371826171875,-0.4371206666767597,0.4056690050974488,0.3783540049314499
1772025792156368600,5.10336865234375,-0.2649135037124157,0.5262184615388512,0.22978896230664103
1772025792166366000,5.113365966796875,-0.11790975558757781,0.5400125936135649,0.1545387102069333
1772025792176363800,5.12336376953125,0.06310322964489459,0.5026607680797577,0.05373728927597403
1772025792186360800,5.13336083984375,0.38038931015133853,0.48415831218361854,-0.042794747240096326
1772025792196357600,5.143357666015625,0.5856354038864374,0.4876555066496134,-0.014543416072055696
1772025792206355700,5.153355712890625,0.6076321316391229,0.4422057148560881,0.21198745775409042
1772025792216352800,5.163352783203125,0.5961053599745035,0.29691636943370103,0.5291208319168538
1772025792226349800,5.173349853515625,0.7039461414903402,0.10471943462491035,0.7155870410539209
1772025792236347600,5.18334765625,0.8257002975463866,-0.05348287612348795,0.7818245501365512
1772025792246344700,5.1933447265625,0.876774651223421,-0.1898065325409174,0.8500305097479373
1772025792256341800,5.203341796875,0.9020499622553586,-0.3455827851861715,0.8942676378160714
1772025792266339800,5.21333984375,0.9144885880678891,-0.4603045583873987,0.9720160634070635
1772025792276336600,5.223336669921875,0.914574512785673,-0.5329238043963909,1.0500224092818795
1772025792286333700,5.233333740234375,0.9276958601653575,-0.5713578722089528,1.0964224144723265
1772025792296331800,5.243331787109375,0.9103291303008795,-0.6040908057704567,1.116007039581984
1772025792306328800,5.253328857421875,0.8374895195394754,-0.6705041828766465,1.0737963027749209
1772025792316325600,5.26332568359375,0.8075099763393402,-0.7518216991260648,1.0135054271370172
1772025792326323700,5.27332373046875,0.7315852590441704,-0.8016437146544456,0.9768287243857979
1772025792336320800,5.28332080078125,0.6065419983148574,-0.8098267288491129,1.0008605381626636
1772025792346317800,5.29331787109375,0.49544309178590773,-0.8216025068387389,1.0342208098422736
1772025792356316000,5.30331591796875,0.35967619246840477,-0.8046800136104225,1.0487393837340175
1772025792366312700,5.313312744140625,0.2280354331701994,-0.7625570281520485,1.0315706606596708
1772025792376307700,5.3233076171875,0.09332476490736007,-0.7148027588084339,1.0173288578826933
1772025792386305800,5.333305908203125,-0.06792319714725017,-0.6574196603760123,0.9603774288658052
1772025792396302600,5.343302490234375,-0.25795886226892467,-0.5550663703605533,0.9323773690450936
1772025792406300000,5.3532998046875,-0.46517421025037764,-0.4282648677870631,0.8747637497924268
1772025792416297700,5.363297607421875,-0.6660767218232154,-0.31739480157792566,0.7875060298390686
1772025792426294800,5.373294677734375,-0.7941033822774887,-0.2218017994776368,0.7103199873711913
1772025792436291600,5.38329150390625,-0.8581722420841454,-0.11539075850397348,0.6267247354481369
1772025792446289700,5.39328955078125,-0.9092804980307817,-0.020017828895151614,0.5466274817086756
1772025792456286700,5.40328662109375,-0.9035404930740595,0.030990473808348178,0.5399223580468445
1772025792466283800,5.41328369140625,-0.8266361170917749,-0.002395662964880466,0.5937881690733134
1772025792476280600,5.423280517578125,-0.7242717211604118,-0.22697481820136306,0.7136581918831915
1772025792486278700,5.433278564453125,-0.7363041042596101,-0.44952772830724713,0.8394993980571627
1772025792496275700,5.443275634765625,-0.8301666293054819,-0.29473522600233554,0.9574572305701673
1772025792506272800,5.453272705078125,-0.8959621667742729,0.03833060743808746,1.0482926628798246
1772025792516275200,5.463275146484375,-0.8694085063695907,0.10059183330088853,0.9504624763119965
1772025792526272000,5.47327197265625,-0.7102133851915597,-0.07373159116506577,0.79630871030204
1772025792536269000,5.48326904296875,-0.5397130261451005,-0.12008096214681863,0.6567067628663033
1772025792546267100,5.49326708984375,-0.40497605439722534,0.07288081955462694,0.5990868965359404
1772025792556264200,5.50326416015625,-0.28186288494765754,0.22959201496243475,0.6307322905890643
1772025792566261000,5.513260986328125,-0.16625088490843773,0.15229454800933598,0.6731240099862218
1772025792576259000,5.523259033203125,-0.11549451113939285,0.03563157761245966,0.6964785820886492
1772025792586256100,5.533256103515625,-0.10650456447601318,0.0038859015226364135,0.6968599095564335
1772025792596253200,5.543253173828125,-0.18168167827427387,-0.008387889117002487,0.6916765886344015
1772025792606251000,5.5532509765625,-0.31673779897391796,-0.0532429298877716,0.662698550627008
1772025792616248000,5.563248046875,-0.4377911132842302,-0.09065086952298879,0.6227090700659901
1772025792626245000,5.5732451171875,-0.46265199829638004,-0.052743455933034415,0.6016200317427516
1772025792636243200,5.5832431640625,-0.5326566778928041,0.06662614307403564,0.543876867826283
1772025792646240000,5.593239990234375,-0.613543986031413,0.24563684857338666,0.34720333559270944
1772025792656237000,5.603237060546875,-0.5833095912873745,0.44729543921053405,0.08293359141023829
1772025792666235000,5.61323486328125,-0.578670241048932,0.6545347525894641,-0.14648487534988672
1772025792676232200,5.623232177734375,-0.6121177526205778,0.888561535128951,-0.31033943970631805
1772025792686229000,5.63322900390625,-0.6456313151657581,1.0523419382706285,-0.37848267281241715
1772025792696227000,5.64322705078125,-0.5321434676736593,1.1406067894399166,-0.5569497364217415
1772025792706223900,5.653223876953125,-0.34617373681664465,1.1943170445784925,-0.7227125090196729
1772025792716221200,5.66322119140625,-0.23682488882541655,1.1844999994412064,-0.8361156739030032
1772025792726219300,5.67321923828125,-0.11504793641567229,1.1320277616649865,-0.9527131047829985
1772025792736216000,5.683216064453125,0.004872574472427368,1.0517445568993686,-0.8926803686246275
1772025792746212900,5.693212890625,0.03738660458624363,0.9664373864918947,-0.7465205970432609
1772025792756211000,5.7032109375,0.0844569833189249,0.8721709568202495,-0.6131842128083109
1772025792766208300,5.713208251953125,0.11197861197292804,0.7515794148027897,-0.540706457629241
1772025792776205000,5.723205078125,0.09061667499244212,0.5826911671280861,-0.41590968247428534
1772025792786203100,5.733203125,0.11952420504689217,0.5127563378974795,-0.3895472337927669
1772025792796200000,5.743199951171875,0.1214478665858507,0.5106263401314616,-0.3533439207069576
1772025792806197200,5.753197265625,0.018069909697771072,0.491796551977098,-0.3543980328697711
1772025792816195000,5.763195068359375,-0.05184183091819286,0.4736781269624829,-0.376903294666484
1772025792826192100,5.773192138671875,-0.06327215647101402,0.4418167155385017,-0.38352351652383804
1772025792836189000,5.78318896484375,-0.01801905629336834,0.4647802424967289,-0.5229278224956244
1772025792846187000,5.79318701171875,0.115283498737216,0.4770400046110153,-0.6680040366239846
1772025792856184000,5.80318408203125,0.2854512648284435,0.44787762301266193,-0.6846592572182416
1772025792866181000,5.81318115234375,0.35281741261482236,0.4098775627031922,-0.6906224034063517
1772025792876179000,5.823178955078125,0.4268547087281942,0.31167525488734243,-0.6982996600359678
1772025792886176000,5.833176025390625,0.4932406133055687,0.16642507243156432,-0.6401655971057713
1772025792896173000,5.843173095703125,0.5065320565551519,0.024011574706435203,-0.5537321626147255
1772025792906171100,5.853171142578125,0.49374622474014757,-0.14433920509070158,-0.418223950766027
1772025792916168000,5.86316796875,0.5264718517780304,-0.32567250831872224,-0.3195858088161796
1772025792926165000,5.8731650390625,0.5505781190305948,-0.4586714042276144,-0.2592516054932028
1772025792936163000,5.8831630859375,0.5016279179006815,-0.5230465535044669,-0.15881901787463576
1772025792946160000,5.89316015625,0.46583998068273064,-0.5511252315193415,-0.10421185042895376
1772025792956157000,5.903156982421875,0.4832669163018465,-0.5872346557766199,-0.08936978020388632
1772025792966155000,5.913155029296875,0.4314999041855335,-0.6406903516322374,0.03822396872583776
1772025792976152000,5.923152099609375,0.35914077041745185,-0.5867781441807747,-0.013256408468820154
1772025792986151000,5.93315087890625,0.4038625401973724,-0.5051958395153284,-0.08017382610701024
1772025792996149000,5.94314892578125,0.4362450528860092,-0.4774100069671869,-0.13765833908729255
1772025793006146000,5.95314599609375,0.40486382619440553,-0.42977118069678544,-0.1912229386774823
1772025793016143000,5.96314306640625,0.33091537740826604,-0.33721389303058386,-0.2002334532048553
1772025793026141200,5.97314111328125,0.32330782501399513,-0.27468992457836866,-0.2136257995456457
1772025793036138000,5.983137939453125,0.3017699469447136,-0.22923574887067077,-0.23136220297273247
1772025793046135000,5.993135009765625,0.27263912952840325,-0.19425591316521168,-0.26202366402242333
1772025793056133000,6.003133056640625,0.22532675873339175,-0.18010259238928555,-0.2728996070954948
1772025793066130200,6.013130126953125,0.19280863696634767,-0.16567133145481347,-0.24736451261620968
1772025793076127000,6.023126953125,0.19074059852063655,-0.13243454002439975,-0.22005608832146972
1772025793086125000,6.033125,0.1925204676747322,-0.1310436701878905,-0.18866960093285887
1772025793096122000,6.0431220703125,0.19324936647117136,-0.14074907164424658,-0.19265428665485232
1772025793106119200,6.053119140625,0.21229133607149123,-0.16133037964105604,-0.2195361926332116
1772025793116117000,6.063116943359375,0.1972089177519083,-0.17284253825843332,-0.23706257003881037
1772025793126114000,6.073114013671875,0.14427227733433245,-0.21580781975984573,-0.23857721238546073
1772025793136111000,6.083111083984375,0.11833002682626247,-0.3020814971119165,-0.21393581534288822
1772025793146109200,6.093109130859375,0.07181085223555564,-0.40945787598639727,-0.1832001565458253
1772025793156106000,6.10310595703125,0.012335165438055991,-0.48862639750838277,-0.15501202680710702
1772025793166103000,6.11310302734375,-0.07183481763303279,-0.5311141246259212,-0.16163681524172424
1772025793176100900,6.123100830078125,-0.2069815392255783,-0.5277230208829045,-0.17312259730882942
1772025793186098200,6.13309814453125,-0.30224574776291846,-0.5083884980767965,-0.20448544809352606
1772025793196095000,6.143094970703125,-0.29236440521776674,-0.5012453483238816,-0.22196765756383538
1772025793206093000,6.153093017578125,-0.2627706464648247,-0.5197264691710471,-0.22150051497612147
1772025793216089900,6.16308984375,-0.29228140310943124,-0.5976628185495734,-0.1616614747589454
1772025793226087200,6.173087158203125,-0.3799696234345436,-0.5735188496351242,-0.17237163281105458
1772025793236085200,6.183085205078125,-0.4957914668321609,-0.3894613821402192,-0.1849311085242778
1772025793246082000,6.19308203125,-0.5424637861579656,-0.24536533815562725,-0.21508863863982258
1772025793256078800,6.203078857421875,-0.5521341163009404,-0.21071137340366838,-0.2574132841501385
1772025793266076200,6.213076171875,-0.5687368760555982,-0.16436960120648145,-0.27938093193881214
1772025793276074200,6.22307421875,-0.566635519862175,-0.03342880687117576,-0.2515270756557584
1772025793286071000,6.233071044921875,-0.5301648610770702,0.06809592336565255,-0.21941643871106206
1772025793296069000,6.243069091796875,-0.4691191484838724,0.13838205025196074,-0.21181283183954655
1772025793306066000,6.25306591796875,-0.4339782769978046,0.19051029689610002,-0.1424559486273676
1772025793316063200,6.263063232421875,-0.39557051267027854,0.16092179884016514,-0.03564451015926897
1772025793326060000,6.27306005859375,-0.2625987970292568,0.11404577363580465,0.0659291737858206
1772025793336058000,6.28305810546875,-0.27846155207157136,0.07744272064268588,0.22413367649130522
1772025793346055000,6.293054931640625,-0.3975537954419851,0.024712416452169417,0.39721857213824985
1772025793356052200,6.30305224609375,-0.4951210202246904,-0.10374415985196828,0.5391617489378899
1772025793366050000,6.313050048828125,-0.4942325469523668,-0.2520081371709704,0.6824902426160872
1772025793376047000,6.323047119140625,-0.5113935251116752,-0.30434856526106596,0.8116064518727362
1772025793386044000,6.3330439453125,-0.5960808100551367,-0.2763163567364216,0.9165606451015919
1772025793396042000,6.3430419921875,-0.6794897456258535,-0.19949907451570034,0.9591126696269958
1772025793406039000,6.3530390625,-0.6981067678123712,-0.10973054078519344,0.9346928063806146
1772025793416036000,6.3630361328125,-0.6758394064247608,-0.006415712261199951,0.8514532360274344
1772025793426034000,6.373033935546875,-0.6190723940640688,0.14334434883445502,0.751967025880888
1772025793436031000,6.383031005859375,-0.583140664461255,0.3603758651703596,0.7804115415334701
1772025793446028000,6.393028076171875,-0.4934533792734146,0.5468170129314065,0.7381150992043316
1772025793456026000,6.403026123046875,-0.3621913901597261,0.66537821816504,0.6379151147652417
1772025793466023000,6.41302294921875,-0.18631869042515753,0.831481219035387,0.4548764689240604
1772025793476020200,6.423020263671875,-0.029328970336914062,1.0250850980326534,0.4147869620546698
1772025793486018300,6.433018310546875,0.11061492240428925,1.172874151316285,0.3242693635225296
1772025793496015000,6.44301513671875,0.4122036675632,1.1888409512549638,0.25872831227146087
1772025793506011400,6.453011474609375,0.7287754623204469,1.0911425013080238,0.2543046506103128
1772025793516009200,6.46300927734375,0.9745809454590082,1.0202040479928254,0.2407954729568213
1772025793526006500,6.473006591796875,1.089109241914749,0.8761801924616098,0.49055919220186767
1772025793536003300,6.48300341796875,1.0769687222659587,0.6871379222914576,0.8165385745126753
1772025793546001400,6.49300146484375,0.9736042093813418,0.529872307871282,1.050772204735875
1772025793555998200,6.502998291015625,0.8100421251654625,0.355561450625956,1.264829527566582
1772025793565995500,6.51299560546875,0.7275836221873759,0.14569266552627086,1.4462930330455301
1772025793575993300,6.522993408203125,0.5996025544404984,-0.07276859135180712,1.6518439549461006
1772025793585990400,6.532990478515625,0.37477614644467827,-0.24243600670546292,1.8423007680892942
1772025793595987200,6.5429873046875,0.15594634851515293,-0.32766689700633284,1.9304025376513598
1772025793605985300,6.5529853515625,0.048909284597635265,-0.2857213139414787,1.9157561726614831
1772025793615982300,6.562982421875,0.02965980972647667,-0.1854205725416541,1.7928578150063752
1772025793625979400,6.5729794921875,0.053635144075751304,-0.04292816436141729,1.5532584930315614
1772025793635977500,6.5829775390625,-0.06505611727833747,0.14476035311222077,1.3235802610903977
1772025793645974300,6.592974365234375,-0.2894429648131132,0.3548299214810133,1.138406210655719
1772025793655971300,6.602971435546875,-0.44086569842398166,0.534630023792386,0.9746362558428198
1772025793665969400,6.612969482421875,-0.43437750544846054,0.671530895575881,0.8722448988392949
1772025793675966500,6.622966552734375,-0.24566052170991895,0.7663248562529683,0.7412080967836081
1772025793685963500,6.632963623046875,-0.08404606443047523,0.7424731482833623,0.6172948629975319
1772025793695961600,6.642961669921875,0.08451075933277606,0.7214516953036189,0.36125644739717244
1772025793705958400,6.65295849609375,0.2906412346869707,0.7181736965462565,0.20091365402135997
1772025793715955500,6.66295556640625,0.4356698833465576,0.6555012595340609,0.21446188504360614
1772025793725953300,6.672953369140625,0.495246692430973,0.5405953619375825,0.4543077291253954
1772025793735950600,6.68295068359375,0.5298416204720735,0.3674059099376201,0.8195556573115289
1772025793745947400,6.692947509765625,0.6374743121951818,0.19961101045757532,1.0699114972308277
1772025793755945500,6.702945556640625,0.7413619721710681,0.03427373326271772,1.1279725679900496
1772025793765942300,6.7129423828125,0.7896171767741441,-0.117088794593513,1.2127238580804318
1772025793775939600,6.722939697265625,0.8110942645668983,-0.23930969137847422,1.3442971781656146
1772025793785937400,6.7329375,0.7784288432836532,-0.3366770096749067,1.4443454061090946
1772025793795934500,6.7429345703125,0.726753601104021,-0.43266076465845105,1.563497855234146
1772025793805931300,6.75293115234375,0.6833943518489599,-0.525560582152009,1.6267843324914573
1772025793815928600,6.762928466796875,0.6146785430192947,-0.582338700428605,1.6013529541149734
1772025793825926400,6.772926513671875,0.53587213280797,-0.6471656851261853,1.5251538037925958
1772025793835923500,6.78292333984375,0.4556891735464334,-0.6764870566785335,1.3878136638090013
1772025793845921500,6.792921630859375,0.2663385680794716,-0.6609656624197959,1.252802843555808
1772025793855918300,6.80291845703125,0.12166530872881412,-0.6723167852565646,1.17680250374116
1772025793865915400,6.812915283203125,-0.03402560372054576,-0.6832870920822024,1.106525436944142
1772025793875912400,6.822912353515625,-0.16945114225447178,-0.7014248063191771,1.0609196508713066
1772025793885910500,6.83291064453125,-0.22786825990974902,-0.7096949142754078,1.011476916984096
1772025793895907300,6.8429072265625,-0.25586042868494985,-0.6530638032540679,0.9794722246319055
1772025793905904400,6.852904296875,-0.33378245727717876,-0.5579810887634754,0.9089285427879542
1772025793915902500,6.86290234375,-0.43784079764485356,-0.48959641158431766,0.8519472300894558
1772025793925899500,6.8728994140625,-0.5361714080154896,-0.4206044161617756,0.8162013784475624
1772025793935896300,6.882896240234375,-0.6076508363395929,-0.3419654714718461,0.7833959641717374
1772025793945894400,6.892894287109375,-0.6557265927225351,-0.25291502288281914,0.7735789190344512
1772025793955891500,6.902891357421875,-0.6643032824099063,-0.21455022091418505,0.7298363695502281
1772025793965888500,6.912888427734375,-0.6530903990000486,-0.16721856089681386,0.6827329653307795
1772025793975886300,6.92288623046875,-0.5924947682619095,-0.13951280784755946,0.630220980066061
1772025793985883400,6.93288330078125,-0.5093687412858009,-0.11933511221557855,0.536270338345319
1772025793995880400,6.94288037109375,-0.40800329326391216,-0.11755202819108962,0.46945583309233185
1772025794005878500,6.95287841796875,-0.3739361884891987,-0.15612550447434187,0.4874011300297454
1772025794015875300,6.962875244140625,-0.3558697859227657,-0.21423165648430584,0.5611869356000796
1772025794025872400,6.972872314453125,-0.3444540734171867,-0.3201639740303159,0.7252320906251668
1772025794035870200,6.9828701171875,-0.31226211486458777,-0.5181090971022844,0.8758120898015797
1772025794045867500,6.992867431640625,-0.29700024832487104,-0.6143295834511519,0.8921887857154012
1772025794055864300,7.0028642578125,-0.3329302243620157,-0.5037433026194572,0.8426872343130409
1772025794065862400,7.0128623046875,-0.402050522339344,-0.4093853952720761,0.8147579747062176
1772025794075859200,7.022859130859375,-0.416508086758852,-0.42414983368366954,0.7552117799557745
1772025794085856500,7.0328564453125,-0.3605342706024647,-0.4288853377729654,0.6627421705730259
1772025794095854300,7.042854248046875,-0.3181809835195541,-0.3773781456366181,0.5721554157948121
1772025794105851400,7.052851318359375,-0.2634901929110288,-0.2836196654871106,0.44698958813175554
1772025794115848200,7.06284814453125,-0.21039105540812014,-0.1621469567209482,0.3267104730643332
1772025794125846300,7.07284619140625,-0.19470541049838064,-0.061250002993643284,0.22961974321957676
1772025794135843600,7.082843505859375,-0.18740882374942303,0.030651743373274802,0.14889485910106448
1772025794145840400,7.09284033203125,-0.17934592880308628,0.11157266152054071,0.08195764078386128
1772025794155838500,7.10283837890625,-0.20748773518204688,0.20691373468637464,0.038521819161251185
1772025794165835300,7.112835205078125,-0.2338818211108446,0.30093875681757926,-0.018916872782772407
1772025794175832600,7.12283251953125,-0.2400081950366497,0.38529169524013995,-0.08391644670143723
1772025794185830400,7.132830322265625,-0.18985621690154075,0.49725803225338455,-0.17769065414303914
1772025794195827500,7.142827392578125,-0.14767828638553618,0.6085796416223049,-0.2784865221160464
1772025794205824300,7.15282421875,-0.12527999209463594,0.7414861830726266,-0.3794693457622081
1772025794215822300,7.162822265625,-0.12713234196305273,0.8507952835753559,-0.4427639332607388
1772025794225819400,7.1728193359375,-0.09382160851359367,0.8711383989021182,-0.47236934591885654
1772025794235816400,7.18281640625,-0.020834698235988616,0.8599567874133587,-0.5063085134649649
1772025794245814300,7.192814208984375,0.028607670325040815,0.8759788246706127,-0.49806463592853395
1772025794255811300,7.202811279296875,0.01298047760426998,0.8694035379335284,-0.4646228965105489
1772025794265808400,7.212808349609375,-0.00022387188374996183,0.7938438545584678,-0.415918925226666
1772025794275806500,7.222806396484375,-0.04189619096517563,0.7074407056078315,-0.38128099829405543
1772025794285803300,7.23280322265625,-0.04097673803269863,0.6737979637250304,-0.32024847397599365
1772025794295800300,7.24280029296875,-0.022805706048011777,0.6825768979862332,-0.22928249235553666
1772025794305797400,7.25279736328125,0.009257073166966438,0.707187899890542,-0.13237997855925931
1772025794315795500,7.26279541015625,0.10224515346586703,0.700110216589272,-0.04617182245776057
1772025794325792300,7.272792236328125,0.18617489804029463,0.6541857930213213,0.01298290702337399
1772025794335789600,7.28278955078125,0.23627602277100085,0.6181371590405702,0.04238490606388077
1772025794345787400,7.292787353515625,0.2540244454294443,0.6291828691899776,0.0712161560117267
1772025794355784400,7.302784423828125,0.22234803518354893,0.6537213903799652,0.06624152767062187
1772025794365781200,7.31278125,0.1363280403316021,0.6426055376037955,0.08560328554352745
1772025794375779300,7.322779296875,0.08296352989077567,0.5832224975258111,0.10325853175949305
1772025794385776400,7.3327763671875,0.06496610090732574,0.5459992668077349,0.12253946121484041
1772025794395773400,7.3427734375,0.10241115768253803,0.5397022124901414,0.11720043827444314
1772025794405771500,7.352771484375,0.17663608532249928,0.4877765026807785,0.09388656350858508
1772025794415768300,7.362768310546875,0.22931319802105427,0.4362506058439612,0.09232998171634972
1772025794425765600,7.372765625,0.2798842783510685,0.38611119492948054,0.09064045772682874
1772025794435763500,7.382763427734375,0.3312918095052242,0.3080211162939668,0.11353899315744638
1772025794445760500,7.392760498046875,0.3671300156056881,0.20023791018426418,0.155475735328719
1772025794455757300,7.40275732421875,0.34754268708229064,0.0808756177008152,0.2069675472328439
1772025794465755400,7.41275537109375,0.2860059761017561,-0.04586187972575426,0.2419267420090735
1772025794475752400,7.42275244140625,0.2845604534685612,-0.1252092649459839,0.2067643162783235
1772025794485749500,7.43274951171875,0.289905906149745,-0.24385318002700804,0.17344079641252755
1772025794495747300,7.442747314453125,0.24936405240297316,-0.3712091016128659,0.15197722568847238
1772025794505744400,7.452744384765625,0.22565350646972654,-0.4366723383873701,0.09690306178554892
1772025794515737600,7.462737548828125,0.2637456289768219,-0.48168169293701646,0.03435165733713656
1772025794525735700,7.472735595703125,0.3039619040310383,-0.5197299763023853,0.01681073994953185
1772025794535732500,7.482732421875,0.3400602223724127,-0.5510241092324256,0.017967179975658654
1772025794545729500,7.4927294921875,0.3666939622759819,-0.5484896223187447,0.02997819149326533
1772025794555727400,7.502727294921875,0.41809506368935107,-0.535903989250958,0.03091591073479503
1772025794565724700,7.512724609375,0.48190498029887674,-0.5069166719585657,0.04334975077435374
1772025794575721500,7.522721435546875,0.5214782812744378,-0.45476124504655596,0.08042071354016661
1772025794585719600,7.532719482421875,0.49839726541638374,-0.4216998101830482,0.13659852783605456
1772025794595716400,7.54271630859375,0.49293607740104195,-0.36802579540163277,0.1586249931398779
1772025794605713700,7.552713623046875,0.5157517203211784,-0.3128299778804183,0.15911124228686094
1772025794615711500,7.56271142578125,0.5340326424211264,-0.2668278129011392,0.16720840482898056
1772025794625708500,7.57270849609375,0.5514361971646548,-0.26862814032137394,0.17101678413599727
1772025794635705300,7.582705322265625,0.5716320129752159,-0.29122955596894023,0.17188962144777178
1772025794645703700,7.59270361328125,0.5718693288624286,-0.31463702730238435,0.17593071353211998
1772025794655700700,7.60270068359375,0.5036760826021432,-0.3678025080397725,0.21369046227969227
1772025794665697500,7.612697509765625,0.44349721597135067,-0.4515580650910735,0.23725473161004482
1772025794675695600,7.622695556640625,0.39611119541823864,-0.5590343972086906,0.28956958686746653
1772025794685692700,7.632692626953125,0.30570494830608363,-0.6332695539817214,0.3540467352140695
1772025794695689700,7.642689697265625,0.15571780045628547,-0.7256573302999139,0.4131787231404334
1772025794705686500,7.6526865234375,0.012336919003725052,-0.824134947925806,0.44168607489615674
1772025794715684600,7.6626845703125,-0.06632803691029548,-0.8308356146082282,0.49350584011301396
1772025794725681700,7.672681640625,-0.1542126565903425,-0.7237599722459912,0.4788390899222344
1772025794735678700,7.6826787109375,-0.3170551943600178,-0.6088377080366015,0.41017691097594794
1772025794745676500,7.692676513671875,-0.44455110893845556,-0.5090609905108809,0.33403204812407494
1772025794755673600,7.702673583984375,-0.4722077621489763,-0.39516514673978087,0.22493308324068784
1772025794765670700,7.712670654296875,-0.48765141499638553,-0.25676760665774345,0.11463928254954517
1772025794775668700,7.722668701171875,-0.6089584118068218,-0.14576163910925388,0.053040100792050356
1772025794785665500,7.73266552734375,-0.651116468578577,-0.15272709420770406,0.05411752076521516
1772025794795662600,7.74266259765625,-0.6509212382674217,-0.08530044840574263,0.0387183646466583
1772025794805660400,7.752660400390625,-0.754984254810214,0.18028467095792292,-0.014012670196220278
1772025794815657700,7.76265771484375,-0.8414432256013155,0.37687136515825986,-0.034061551816761494
1772025794825654500,7.772654541015625,-0.8226035005748271,0.42650253428965806,-0.025340704418346283
1772025794835652600,7.782652587890625,-0.7257926471173762,0.43457799645662304,0.002408960837870836
1772025794845649400,7.7926494140625,-0.613594254913926,0.478269546405971,0.016672025598585605
1772025794855646700,7.802646728515625,-0.5163987860530614,0.47264293869584795,0.08285729303732514
1772025794865644500,7.81264453125,-0.4169347877383232,0.3680971070721745,0.18484715656787157
1772025794875641600,7.8226416015625,-0.3535200079262256,0.27921324722170826,0.3768736301805824
1772025794885638400,7.832638427734375,-0.4095201275676489,0.23706980349719523,0.6006166999191045
1772025794895636500,7.842636474609375,-0.5015180277854204,0.15312252326607703,0.7687735645793378
1772025794905633500,7.852633544921875,-0.620422055107355,0.02883271125257015,0.9298909590568393
1772025794915630600,7.862630615234375,-0.7090981174260378,-0.06570990501195192,1.0252375851806252
1772025794925628700,7.872628662109375,-0.7597989616155624,-0.09294307211339473,1.0743433421984314
1772025794935625500,7.88262548828125,-0.7833879269957542,-0.040348084740340705,1.0134197216149419
1772025794945622800,7.892622802734375,-0.7523650122225284,0.06306172859072685,0.9007200288258492
1772025794955620600,7.90262060546875,-0.7414215934038162,0.19100714050233364,0.742210332628712
1772025794965617700,7.91261767578125,-0.7524211263239383,0.3768675657659769,0.577473870871216
1772025794975614500,7.922614501953125,-0.7190554478168487,0.5937430147573352,0.43021600185483694
1772025794985612500,7.932612548828125,-0.595621375849843,0.8009203688159584,0.25460524099208415
1772025794995609600,7.942609619140625,-0.4311526981830597,0.9977031701102852,0.08637589561752974
1772025795005606700,7.952606689453125,-0.22957038765251636,1.1484957891240715,0.031666034982353444
1772025795015604500,7.9626044921875,0.04463642958402633,1.2144704825520514,-0.051545112993940705
1772025795025601500,7.9726015625,0.37155367726683614,1.252540100966394,-0.1747439879655838
1772025795035598600,7.9825986328125,0.6928045697510242,1.2199199801295995,-0.13693587003163993
1772025795045596700,7.9925966796875,0.8574468504190444,1.1613324743434785,0.06144194536916911
1772025795055593500,8.002593505859375,0.9476333173006772,1.0684569145083427,0.38700565955117344
1772025795065590500,8.012590576171876,1.0842542030990123,0.92830668554008,0.6381048651836813
1772025795075588400,8.02258837890625,1.2525555907964705,0.7909373194620013,0.7915334587242454
1772025795085585700,8.032585693359374,1.2779893072605133,0.6675891722127795,1.0231690352782608
1772025795095582500,8.04258251953125,1.1757990988522766,0.617443916079402,1.4038435921117662
1772025795105580500,8.05258056640625,1.2131021168082952,0.5293628970444202,1.5749645672746002
1772025795115577300,8.062577392578126,1.2123819858402014,0.31981355315744875,1.7755115434080362
1772025795125574700,8.07257470703125,1.0144459228575229,0.028265140497684478,1.9023177221566439
1772025795135571500,8.082571533203126,0.5773936452418565,-0.054555473791062827,1.8361738096415996
1772025795145569500,8.092569580078125,0.2589882053166628,-0.05654021786749363,1.717880899955332
1772025795155566300,8.10256640625,0.10834113225340843,-0.10559680198132991,1.620364674707502
1772025795165563600,8.112563720703125,-0.06823533183634281,-0.04902881932407617,1.5675610130198299
1772025795175561700,8.122561767578125,-0.32286826455295087,0.06675707597732544,1.7101923912793398
1772025795185558500,8.13255859375,-0.45702422154247757,0.22103724484592674,1.6346956901378928
1772025795195555300,8.142555419921875,-0.4378086489409208,0.39494039807319636,1.243863750296831
1772025795205553400,8.152553466796874,-0.4451823925793171,0.5260130020946264,0.941524552096799
1772025795215550700,8.16255078125,-0.3212485543966293,0.6385095004618168,0.7486112126469612
1772025795225547500,8.172547607421874,-0.19074059852063655,0.6772346601754426,0.5960085850691422
1772025795235545600,8.182545654296876,-0.013156418693065643,0.6835536340638995,0.4313140627572313
1772025795245542400,8.19254248046875,0.13344985454678535,0.6833233324393629,0.3564730125129223
1772025795255539700,8.202539794921876,0.11517068601250648,0.6161784261882305,0.37176125560291107
1772025795265537500,8.21253759765625,0.050606736165285104,0.4940148125484585,0.4504175898190588
1772025795275534600,8.22253466796875,0.034253567257523536,0.35548575504124164,0.659574865648523
1772025795285531600,8.23253173828125,0.09676233814060688,0.2109916516497731,0.9058171327691524
1772025795295529700,8.24252978515625,0.20699147609770296,0.07589402989596128,1.0283783674243836
1772025795305526500,8.252526611328125,0.3291699950456619,-0.10370236653685569,1.0600030474830417
1772025795315523600,8.262523681640625,0.3858610195606947,-0.31805881844460965,1.1149950860604643
1772025795325521400,8.272521484375,0.3246738526701927,-0.5031079273253679,1.24314318093732
1772025795335518700,8.282518798828125,0.26428105102777477,-0.6099377782329917,1.3821058075562118
1772025795345515500,8.292515625,0.17884674710929394,-0.6607502661034464,1.4639838802978395
1772025795355513600,8.302513671875,0.10201835897266864,-0.7280880645781755,1.493727861176431
1772025795365510400,8.312510498046874,-0.0022311200529336927,-0.7617047952368855,1.4218380984857677
1772025795375507700,8.3225078125,-0.06280746156871318,-0.7446306185781956,1.3320346395723521
1772025795385505800,8.332505859375,-0.07518646614849567,-0.6765671361774206,1.1835256745163352
1772025795395502600,8.342502685546876,-0.09663900402188301,-0.6179685244753956,1.0477280147343873
1772025795405499400,8.35249951171875,-0.16291618752777576,-0.5406681349128485,0.9776155639145523
1772025795415497500,8.36249755859375,-0.2283405535966158,-0.43107232642322774,0.9261086640391498
1772025795425494800,8.372494873046875,-0.2299550030559301,-0.2835392937272787,0.8989440321292728
1772025795435491600,8.38249169921875,-0.26032617592215535,-0.1617547425329685,0.8544745566099882
1772025795445489700,8.39248974609375,-0.28278233788013457,-0.12970511506050825,0.8006812262978404
1772025795455486500,8.402486572265625,-0.2570125213295221,-0.11643676042556762,0.7512985520347952
1772025795465483800,8.41248388671875,-0.17653847016692162,-0.09776128605008125,0.6852095845773816
1772025795475480600,8.42248046875,-0.1237310090869665,-0.11614654530733823,0.6547777675651013
1772025795485478700,8.432478759765624,-0.11666881561577319,-0.2033218476742506,0.7023391446851194
1772025795495475500,8.442475341796875,-0.11487959411144257,-0.24714345374405383,0.7715719631262123
1772025795505472800,8.45247265625,-0.08015256412327289,-0.2565826054796576,0.772925569692254
1772025795515470800,8.462470947265626,0.005325578936934471,-0.2875871078133583,0.7958500798143446
1772025795525467600,8.472467529296875,0.07601181105673313,-0.3647594870820641,0.7940139504283666
1772025795535464700,8.482464599609376,0.17234101847708225,-0.4546002092659473,0.8202404247052967
1772025795545462500,8.492462646484375,0.2574754626661539,-0.5154004226654768,0.8836067622657865
1772025795555459800,8.5024599609375,0.26779870375990866,-0.5595888162210584,0.9550452009923756
1772025795565456600,8.51245654296875,0.2735533217638731,-0.6481815841704607,1.0381643598362802
1772025795575454700,8.522454833984375,0.24332068058550357,-0.7700111435502767,1.0897187521152198
1772025795585451500,8.532451416015626,0.17018471722602843,-0.9121160137176513,1.1807820018313824
1772025795595448800,8.54244873046875,0.0931231048554182,-1.0950275260478257,1.273891370422393
1772025795605446700,8.55244677734375,0.002815641942620277,-1.3119257713928818,1.3438175779551267
1772025795615443700,8.562443603515625,-0.16485212402641772,-1.472528713542223,1.3390861655190587
1772025795625440500,8.5724404296875,-0.32285949672460557,-1.3736372544184325,1.2490171875372529
1772025795635438600,8.5824384765625,-0.48652796392440795,-1.1690738822504878,1.1440529843710363
1772025795645435600,8.592435546875,-0.5831161145418882,-1.0281137982040642,1.0243164517477155
1772025795655432700,8.6024326171875,-0.5998918927758932,-0.8756120371848344,0.8522662329107522
1772025795665430800,8.6124306640625,-0.5896539918780327,-0.6375476696923374,0.6343735697008669
1772025795675427600,8.622427490234376,-0.507602316135168,-0.3429673419907689,0.4557321359053254
1772025795685425000,8.6324248046875,-0.38469080673754213,-0.10730419042110442,0.32140889605749395
1772025795695422700,8.642422607421874,-0.2676987505167723,0.05199614469707012,0.2032721815799363
1772025795705419800,8.652419677734375,-0.19403437936902046,0.10903671330213546,0.11370585589064285
1772025795715416600,8.66241650390625,-0.18994798683822153,0.12242840205579995,0.02231479899222031
1772025795725414700,8.67241455078125,-0.2547562668353319,0.13144552898705006,0.021009926938731223
1772025795735411700,8.68241162109375,-0.3475947095304727,0.15030629680156707,0.05467827818682417
1772025795745408800,8.69240869140625,-0.3908440686702728,0.2089648219972849,0.027464656036067753
1772025795755406600,8.702406494140625,-0.37565702093243597,0.28152736938297745,-0.05114197555314749
1772025795765403600,8.712403564453124,-0.3344938204169273,0.38564007028639313,-0.14457953491890801
1772025795775400700,8.722400634765625,-0.23128771296441553,0.5674897986039519,-0.2549233304979279
1772025795785398800,8.732398681640625,-0.16900749014019964,0.7569196067869662,-0.37808939917851236
1772025795795395600,8.7423955078125,-0.16060791058540344,0.8917311050757766,-0.5628854100810363
1772025795805392600,8.752392578125,0.063516486620903,0.9904694194644689,-0.6885585296791047
1772025795815390500,8.762390380859374,0.12288929756581783,1.001601346592605,-0.6074115111583843
1772025795825387800,8.7723876953125,0.09433131160140037,1.0135621257603167,-0.630168665356934
1772025795835384600,8.782384521484374,0.12141571788191795,0.999214159195125,-0.663797524844855
1772025795845382700,8.792382568359375,0.20475158821642397,0.9335761503756046,-0.6798615746129304
1772025795855379500,8.80237939453125,0.22901275376975536,0.7965294403806328,-0.5826965374229476
1772025795865376800,8.812376708984376,0.14449556469619274,0.67449792868793,-0.499430152128078
1772025795875373600,8.82237353515625,0.0007552022814750671,0.6327995983824134,-0.444468764417246
1772025795885371600,8.83237158203125,-0.0010685060143470764,0.6126563895419239,-0.49399351403210306
1772025795895368700,8.84236865234375,0.05208674558997154,0.5465159841582179,-0.5440494113815948
1772025795905365800,8.85236572265625,0.07715688943862914,0.46741760526299475,-0.5511300903575495
1772025795915363800,8.86236376953125,0.10602876365780829,0.4094669360756874,-0.5425566520731896
1772025795925360600,8.872360595703125,0.09583002572655677,0.3770113581508398,-0.5326623039159923
1772025795935357700,8.882357666015626,0.062205404022336,0.3744678111478686,-0.5489791594013571
1772025795945355800,8.892355712890625,0.010222118806838989,0.35447657799869775,-0.5425635932706296
1772025795955352800,8.902352783203124,-0.06366670874655246,0.3182341750115156,-0.5241411438081414
1772025795965349600,8.912349609375,-0.15695289520919323,0.2740861134663224,-0.5468208853889256
1772025795975347700,8.92234765625,-0.20622049172520637,0.2778624171346426,-0.5818098542489111
1772025795985344800,8.9323447265625,-0.24291677595973013,0.321502821418643,-0.6575556347806006
1772025795995341800,8.942341796875,-0.2420335633844137,0.36841450245827434,-0.7254318509809672
1772025796005339600,8.952339599609376,-0.20408347969651222,0.40672055997699497,-0.7590633408173918
1772025796015336700,8.962336669921875,-0.08551321437358855,0.4051610555753112,-0.772795586637035
1772025796025333800,8.972333740234374,0.08753682915568352,0.386468337804079,-0.8197981608305126
1772025796035331800,8.982331787109375,0.30892098774313925,0.3360641384735703,-0.9131339585885405
1772025796045328600,8.99232861328125,0.23002456116080283,0.1550765799432993,-0.8424578825365752
1772025796055325700,9.00232568359375,0.21736089442074297,0.021447569437325,-0.8608623579509556
1772025796065323500,9.012323486328125,0.49900867531299586,-0.05623918909430504,-0.8059978182107209
1772025796075320800,9.02232080078125,0.6469236930638551,-0.20372604456096888,-0.7510760683905333
1772025796085317600,9.032317626953125,0.7653975122749805,-0.39120617998093365,-0.7210808892298489
1772025796095315700,9.042315673828124,0.8815010952234268,-0.5751610638841986,-0.623069500876218
1772025796105312500,9.0523125,0.8795324254989624,-0.7788321633875369,-0.5654109465032816
1772025796115309800,9.062309814453124,0.7433885095626115,-1.013552481149137,-0.4963154176410287
1772025796125308000,9.072307861328126,0.6068500413507223,-1.1809954984515905,-0.4472879865564406
1772025796135304700,9.0823046875,0.6060404785335064,-1.2107640292495487,-0.5173435195572674
1772025796145301500,9.092301513671876,0.7815653877437114,-1.053526764141023,-0.6131747143276035
1772025796155299600,9.102299560546875,0.8879600621044635,-0.9336404477834701,-0.6458261070854961
1772025796165297000,9.112296875,0.9516928218245506,-0.8793141065731644,-0.5524524615351111
1772025796175293700,9.122293701171875,0.8567939394682645,-0.8398480653643607,-0.511950355276838
1772025796185291800,9.132291748046875,0.7424515209734439,-0.845798790462315,-0.43994493031725285
1772025796195288600,9.14228857421875,0.6722475194126367,-0.8091255948424338,-0.44645438527651127
1772025796205286000,9.152285888671875,0.7188999649941921,-0.8168655414447188,-0.4971967305202037
1772025796215282700,9.16228271484375,0.7191647534102201,-0.8697291166260838,-0.49586475126408036
1772025796225280800,9.17228076171875,0.5886456916183233,-0.9062316318541764,-0.4252436933349818
1772025796235277600,9.182277587890624,0.4731581947416067,-0.9034893474087119,-0.3431669562160969
1772025796245275000,9.19227490234375,0.2934223898380995,-0.8956552927821874,-0.18749971690326928
1772025796255272700,9.202272705078125,0.1338864923983812,-0.9515560437023639,-0.16661358074098825
1772025796265269800,9.212269775390626,0.17508067257404325,-0.9808452665507793,-0.23748393725603817
1772025796275266600,9.2222666015625,0.1545744756400585,-0.9744985278725623,-0.27452662377543746
1772025796285264600,9.2322646484375,0.03134381729066372,-0.966211176520586,-0.3223286047182977
1772025796295261700,9.24226171875,-0.18007833473086357,-0.9296478710159659,-0.19180369770750402
1772025796305258800,9.2522587890625,-0.31430794147849084,-0.7624623356059194,-0.15942396149784327
1772025796315256600,9.262256591796875,-0.42238311627209185,-0.6646618865892291,-0.16861724871359765
1772025796325253600,9.272253662109375,-0.5834171433150768,-0.6038178340479731,-0.17637882262580096
1772025796335250700,9.282250732421875,-0.7215957799494266,-0.5269868155628442,-0.19085260752774774
1772025796345248800,9.292248779296875,-0.7852922993123531,-0.5041694190770387,-0.11285627159029245
1772025796355245600,9.30224560546875,-0.9517314002692698,-0.5870750813007355,0.018662907154858112
1772025796365242600,9.31224267578125,-1.177635666629672,-0.4563119816198945,-0.0959537982366979
1772025796375238700,9.32223876953125,-1.5148141960859298,-0.11651333279311656,-0.14465513917207717
1772025796385235700,9.332235595703125,-1.6967682615607975,0.027777649241685867,-0.0601598696693778
1772025796395232800,9.342232666015626,-1.5638006375730036,0.026328034955263136,0.017974924890697002
1772025796405230800,9.35223095703125,-1.446429811167717,0.10780132628828286,0.08388941256403923
1772025796415227600,9.3622275390625,-1.3805641310721635,0.26163550495505333,-0.020747750604897735
1772025796425224700,9.372224609375,-1.1824147175997495,0.3135202982321381,-0.07778598112240433
1772025796435222500,9.382222412109375,-0.9717378309875726,0.3087526454389095,-0.05560016053840518
1772025796445219800,9.3922197265625,-0.9411556457191705,0.29888620820194484,0.08946560526117682
1772025796455216600,9.402216552734375,-0.9265583805680274,0.22801497490406036,0.25176409928202625
1772025796465214700,9.412214599609374,-0.9081266518205404,0.17034341491907834,0.40086730390414593
1772025796475211500,9.42221142578125,-0.9934522346675395,0.12360299879312514,0.5379419248193502
1772025796485208800,9.432208740234374,-1.0441355432003736,0.023432898035645484,0.620576953408122
1772025796495206700,9.44220654296875,-1.001448494118452,-0.08403992695063352,0.6173347566165029
1772025796505203700,9.45220361328125,-0.9190256469756364,-0.052823243170976635,0.5950964751929044
1772025796515201000,9.462200927734376,-0.8386457038372754,0.0818801185682416,0.59638695339486
1772025796525198000,9.472197998046875,-0.7387298701018095,0.24194003988206386,0.5511868985787034
1772025796535196200,9.482196044921874,-0.5436316608935594,0.40045506984144447,0.42003582249358296
1772025796545193000,9.49219287109375,-0.2240343808352947,0.5528606770098209,0.24434885458946226
1772025796555190000,9.50218994140625,0.09985796606838702,0.6961331296518445,0.15058102208971977
1772025796565187800,9.512187744140626,0.3594628419786691,0.8745458692580461,0.10525018050074576
1772025796575185200,9.52218505859375,0.5952268235743046,1.0377440885975957,-0.015083002841472624
1772025796585182000,9.532181884765626,0.8866361200243235,1.003283892852068,-0.01647358041703701
1772025796595180000,9.542179931640625,1.1662678849190473,0.8312097086176276,0.13472645035386085
1772025796605176800,9.5521767578125,1.2852777107030153,0.6880503609612584,0.32765199169814585
1772025796615174100,9.562174072265625,1.34105103585124,0.6186193895995616,0.5312827591910958
1772025796625172200,9.572172119140625,1.3630980324864386,0.6138304017573595,0.6464674737289547
1772025796635169000,9.5821689453125,1.3838970748871564,0.5947267650976776,0.7615268083214759
1772025796645165800,9.592165771484375,1.3423445827931164,0.5208180638000369,0.9101568424738943
1772025796655164000,9.602163818359376,1.153883035120368,0.4332578537687659,1.102011685846746
1772025796665161200,9.6121611328125,1.0321277100205422,0.24519758037328718,1.2771866125755011
1772025796675158000,9.622157958984374,0.9779355165839194,0.11988543957471846,1.4390907004512845
1772025796685156000,9.632156005859375,0.8934633356958627,0.13944588009119033,1.5741364458873868
1772025796695153000,9.64215283203125,0.7886983083635568,0.21000439417809247,1.6140784340448677
1772025796705150200,9.652150146484376,0.8076116831481456,0.2933428948611021,1.5702287709243594
1772025796715148000,9.66214794921875,0.668535805413127,0.36962241694331166,1.4700390886835752
1772025796725145000,9.67214501953125,0.39865328111648557,0.4494304054126143,1.2057896018378436
1772025796735142000,9.682141845703125,0.17934534428119658,0.532746402002871,0.8821648198291658
1772025796745140000,9.692139892578124,0.02450315761566162,0.6231491419836879,0.6074637893348932
1772025796755137000,9.702136962890625,-0.03893266498446464,0.663677259466052,0.45668446819409725
1772025796765134000,9.712134033203125,0.06722410896718502,0.6557794919535518,0.3087454850457608
1772025796775132000,9.7221318359375,0.19495792395472525,0.6959869991794229,0.23383739744722842
1772025796785129000,9.73212890625,0.28396482566297054,0.661094257235527,0.21909429408460854
1772025796795126000,9.7421259765625,0.44912265463769435,0.6025158115386963,0.19013897936567664
1772025796805123000,9.752123046875,0.6605886458009481,0.5733659971609711,0.3543737021461129
1772025796815121000,9.762120849609374,0.7325058810204267,0.4831386137470603,0.6065880294136703
1772025796825118000,9.772117919921875,0.8000999923437834,0.34516543655693527,0.7861959701538086
1772025796835115000,9.782114990234374,0.8685235402286052,0.2144736485466361,1.0358023068800568
1772025796845113000,9.792113037109376,0.870914819279313,0.025428748027980327,1.2630379679746926
1772025796855110000,9.80210986328125,0.8361778524190187,-0.15981676020771263,1.3985162596091627
1772025796865107000,9.81210693359375,0.7858516867607831,-0.32227029865980145,1.4166678562410175
1772025796875105000,9.82210498046875,0.6754314101457596,-0.49961394772976636,1.44607880577296
1772025796885102000,9.83210205078125,0.5307756864517927,-0.7332628368675709,1.5321104910627006
1772025796895099000,9.842098876953125,0.4032546374320984,-0.9026984892919659,1.5457770512349902
1772025796905097000,9.852096923828125,0.2786205420255661,-0.9372896179407835,1.514090996377915
1772025796915094000,9.862093994140626,0.16988485749661922,-0.914134367802739,1.4778917018800972
1772025796925091000,9.872091064453125,0.005730068084597587,-0.90717621922791,1.3465790054924784
1772025796935089200,9.882089111328124,-0.06372866806685924,-0.8721852776065468,1.222875761195272
1772025796945086000,9.8920859375,-0.12811784586906433,-0.7916004595458507,1.1378870090872049
1772025796955083000,9.9020830078125,-0.1478045431137085,-0.6993985611885786,1.0788011983901262
1772025796965081000,9.9120810546875,-0.15474398698806763,-0.6326815249606966,1.0285475134462116
1772025796975078100,9.922078125,-0.17708908978700635,-0.5545385470941663,0.9733525727078318
1772025796985075000,9.932074951171876,-0.1738321338176727,-0.4609413949862122,0.9225748638898134
1772025796995073000,9.942072998046875,-0.19489596463441847,-0.3874462429255247,0.9101087655484675
1772025797005070800,9.95207080078125,-0.23723931484520433,-0.3421431661263108,0.900260740751028
1772025797015068200,9.962068115234375,-0.2963315552830696,-0.3009250205531716,0.8930689295507966
1772025797025065000,9.97206494140625,-0.39911622245311734,-0.26708763288110493,0.8914014347299933
1772025797035063000,9.98206298828125,-0.5260515805393458,-0.2752849678620696,0.8454435472838581
1772025797045059800,9.992059814453125,-0.5437140784800052,-0.27031331692934035,0.810018744289875
1772025797055057200,10.00205712890625,-0.5694494082391262,-0.24840397519916294,0.7621921403624117
1772025797065055200,10.01205517578125,-0.6597650544583797,-0.27426585394740105,0.751473470210284
1772025797075052000,10.022052001953124,-0.7225123102724552,-0.3947980669930577,0.8630657132141292
1772025797085048800,10.032048828125,-0.7423778712153434,-0.5651821061834693,0.9745091953970492
1772025797095047000,10.042046875,-0.7584948932796717,-0.6542807778283953,0.9781946059115231
1772025797105044200,10.052044189453126,-0.8374614624887704,-0.5395780015885829,0.8772907840520143
1772025797115041000,10.062041015625,-0.9315063583642244,-0.3179913061663508,0.6985233857892453
1772025797125037800,10.072037841796876,-0.9663175595045089,-0.17760054644048212,0.5059801217608153
1772025797135036000,10.082035888671875,-0.9395108011215925,-0.21780688462257383,0.36596257926151154
1772025797145033200,10.092033203125,-0.8937363074183463,-0.2867959574356675,0.25164777942597866
1772025797155030000,10.102030029296875,-0.7879998047053813,-0.22297668847590685,0.14517273330539465
1772025797165028000,10.112028076171875,-0.6958014134794474,-0.10139467411637305,0.11962561959475278
1772025797175025000,10.12202490234375,-0.6507295150876045,-0.05926350535154342,0.1755115382719785
1772025797185022200,10.132022216796875,-0.6194435654640197,-0.060275605003535744,0.2450742462545633
1772025797195020000,10.14202001953125,-0.6341285088986158,-0.06268968040794133,0.2882773550998419
1772025797205017000,10.15201708984375,-0.6715209587037563,-0.006252046132087707,0.2138506212774664
1772025797215014000,10.162013916015624,-0.7225608255892991,0.13574644105136394,0.11905695286132395
1772025797225012000,10.172011962890625,-0.6908154417604208,0.27972470387518406,0.014972382073849438
1772025797235009000,10.182009033203125,-0.596020604300499,0.38730478862822054,-0.15150909672006962
1772025797245006000,10.192006103515626,-0.48229544092118737,0.5468278265863656,-0.34040172928646206
1772025797255004000,10.20200390625,-0.3853723592609167,0.736272540077567,-0.5304318414501845
1772025797265001000,10.2120009765625,-0.3186749045163393,0.8968620382234453,-0.6699274789672345
1772025797274998000,10.221998046875,-0.20873452037274837,1.0008543276175856,-0.8253071335103362
1772025797284996000,10.23199609375,-0.17343524345457553,1.0976160812363027,-0.9751812494397163
1772025797294993000,10.241992919921875,-0.1252174482524395,1.1521882139012216,-1.1063169087599962
1772025797304990000,10.251989990234375,0.04047872538268566,1.1166399306580423,-1.1885649107925593
1772025797314988000,10.261988037109376,0.19689035332202912,1.0265081165730952,-1.1758254023373127
1772025797324985000,10.271985107421875,0.31163550739884377,0.9159551534891128,-1.0789794045012444
1772025797334982000,10.28198193359375,0.37417233533263206,0.8285974802926183,-0.9509285594537854
1772025797344980000,10.29197998046875,0.3984387615829706,0.7716831684157252,-0.9127354607902467
1772025797354977000,10.30197705078125,0.43383740722239017,0.713853495259583,-0.9298374022386967
1772025797364974000,10.31197412109375,0.5477981329232454,0.6293249080091714,-0.8924250786893069
1772025797374972200,10.32197216796875,0.6827426099419593,0.5607207428604364,-0.8396350802008062
1772025797384969000,10.331968994140626,0.7237310384124517,0.5267515455022453,-0.7324363959807902
1772025797394966000,10.341966064453125,0.733876000329852,0.46908203134387727,-0.6213087017487734
1772025797404964000,10.351964111328124,0.7887661129027604,0.4425719178199768,-0.602065510487929
1772025797414961200,10.361961181640625,0.810128634405136,0.4689928917557001,-0.5884834867939353
1772025797424958000,10.3719580078125,0.7786901245683431,0.4817638182625174,-0.5690308905661106
1772025797434955000,10.381955078125,0.6926134310930967,0.4623129756003618,-0.5823106433779001
1772025797444953000,10.391953125,0.616554273763299,0.3892085764229297,-0.6188163734763861
1772025797454950100,10.4019501953125,0.626836013802886,0.3372521792143583,-0.6191086344212293
1772025797464947000,10.411947021484375,0.6448457177460193,0.34900662215501066,-0.6029584407396614
1772025797474945000,10.421945068359374,0.6294108327269554,0.3166059892877936,-0.5784655122570693
1772025797484942000,10.431942138671875,0.6007786124825477,0.19439853650629518,-0.5661303468190133
1772025797494939100,10.441939208984374,0.5666980637043714,0.09877397022396325,-0.5160948346704244
1772025797504937000,10.45193701171875,0.5301040708005428,0.08615764975696802,-0.4642303535290062
1772025797514934000,10.46193408203125,0.4999567698180675,0.04075841910690069,-0.3650007484920323
1772025797524931000,10.47193115234375,0.5153343716919422,-0.03870879310071468,-0.21543255670666694
1772025797534929200,10.48192919921875,0.5607072988569736,-0.14831804559379816,-0.15088628864660858
1772025797544926200,10.49192626953125,0.5195809232205152,-0.25690058538764715,-0.11608297855183482
1772025797554923000,10.501923095703125,0.457623941001296,-0.29557781430631874,-0.028517800084501502
1772025797564921000,10.511921142578124,0.4705822067737579,-0.3136053461670875,-0.016152385638654232
1772025797574918100,10.521918212890625,0.4354454269409179,-0.3965051631718874,-0.03163885471448302
1772025797584915200,10.531915283203125,0.34897184310257434,-0.5071741538509726,-0.08376943944618105
1772025797594913000,10.5419130859375,0.28103052577674387,-0.5148848743587732,-0.19918460173904895
1772025797604910000,10.55191015625,0.26297581364810463,-0.4796992869481444,-0.2535315473459661
1772025797614907100,10.5619072265625,0.25016601643562314,-0.43872488700300455,-0.21508973461836575
1772025797624905200,10.5719052734375,0.24082477211654185,-0.3837377437964081,-0.2422846155360341
1772025797634902000,10.581902099609374,0.2802665556669235,-0.35557080297619104,-0.27886268021836874
1772025797644899000,10.591899169921875,0.33936756393313405,-0.3209197608336806,-0.26431860655918715
1772025797654897000,10.60189697265625,0.3184188839286566,-0.3067196783065796,-0.19350582545027137
1772025797664894200,10.611894287109376,0.2273766770005226,-0.3184121619269252,-0.12445961562246083
1772025797674891000,10.62189111328125,0.19611703086197374,-0.34652824934273957,-0.07808247985094785
1772025797684889000,10.63188916015625,0.15854045666158198,-0.3896174494847655,-0.04718158402219414
1772025797694886000,10.641885986328125,0.09807634334862232,-0.4033899542495608,-0.03995440924763679
1772025797704883200,10.65188330078125,0.0337538010418415,-0.4155360268563032,-0.0595388151615858
1772025797714880000,10.6618798828125,-0.04028232602775097,-0.4851736267060041,-0.09662234514802694
1772025797724878000,10.671878173828125,-0.13460370075702666,-0.5919681140393018,-0.13874839934632183
1772025797734875000,10.681875,-0.23208850795328614,-0.6737342508390546,-0.1350347856506705
1772025797744872200,10.6918720703125,-0.3149094145029783,-0.686670889301598,-0.11428571987152099
1772025797754870300,10.701870361328124,-0.4159364243507385,-0.6847241391479969,-0.09968377854526042
1772025797764867000,10.7118671875,-0.5409960516929626,-0.6958353157490491,-0.050118221995979546
1772025797774864000,10.72186376953125,-0.5831997011721134,-0.7157736496672034,0.1270961016058922
1772025797784862000,10.731862060546876,-0.5550310067862272,-0.7952490451812744,0.2923525686495006
1772025797794859300,10.741859375,-0.7021382152855395,-0.7046557510644197,0.24056568278893828
1772025797804856000,10.75185595703125,-0.9335562766313552,-0.5469625588819385,0.1498435015954077
1772025797814854100,10.761854248046875,-1.0683376720428466,-0.5332113891661167,0.17287834022417664
1772025797824851000,10.771850830078124,-1.0691378825098274,-0.5416670828223228,0.18675883540809154
1772025797834848300,10.78184814453125,-1.116017707106471,-0.500457705077529,0.15584259587973356
1772025797844846000,10.79184619140625,-1.2017068625688552,-0.4821116087868809,0.13208499593436718
1772025797854843100,10.801843017578125,-1.0488567265033721,-0.4932260002583265,0.17282690229788422
1772025797864840000,10.81183984375,-0.8607944072812795,-0.433729562933743,0.4209712036475539
1772025797874838000,10.821838134765626,-0.7426409060657024,-0.35303865415006874,0.6548385578416287
1772025797884835000,10.8318349609375,-0.42623394648134705,-0.3362298504292965,0.9421782667651772
1772025797894832000,10.84183203125,-0.4390601103067398,-0.2940814382687211,1.200578296930343
1772025797904830000,10.851829833984375,-0.9648194299012423,-0.2798427772969007,1.0570436862207948
1772025797914827000,10.861826904296874,-1.0106418543994427,-0.3395958197310567,0.7088482343181968
1772025797924824000,10.871823974609375,-1.0725772093087433,-0.3909136267751455,0.6546111788265406
1772025797934822100,10.881822265625,-1.0578151089847088,-0.3119990800142288,0.600214841119945
1772025797944819000,10.89181884765625,-1.0470938084840773,-0.19090221882313488,0.5989993278503417
1772025797954816000,10.90181591796875,-0.8702145620554685,-0.07887713735997677,0.8332176874391735
1772025797964813800,10.911813720703124,-0.2915384757876396,0.0364446475610137,0.5942769755035638
1772025797974811100,10.92181103515625,0.1878542294293642,0.22421236775070427,0.46315644068717954
