time,seconds_elapsed,z,y,x
1772025775141039000,0.0810390625,-0.5794213516771793,0.6015262159794569,-0.000045592707395553586
1772025775151036000,0.091035888671875,-0.27477789512276646,0.767699943998456,-0.036328912226855754
1772025775161033000,0.101032958984375,0.06503098283708095,0.8502318044736981,0.010332593443989754
1772025775171031000,0.111031005859375,0.2914741783797741,0.9428113039717078,0.06157748138234019
1772025775181028000,0.121028076171875,0.42686932177543635,1.0375018042743205,0.11635653479620814
1772025775191025000,0.13102490234375,0.5786527053922415,1.0551023428946733,0.22585005195513366
1772025775201023000,0.14102294921875,0.73503627628088,1.1099895328581333,0.25627690053135155
1772025775211020000,0.15102001953125,0.8502923024892807,1.162182076910138,0.2599042972482741
1772025775221017000,0.16101708984375,0.9320680839002132,1.1135960329174994,0.3042126639217138
1772025775231015000,0.171014892578125,1.0416437263846396,1.0291650608226657,0.3825612473629415
1772025775241012200,0.18101220703125,1.1112976928472518,0.9302154417708516,0.4520632381342351
1772025775251009000,0.191009033203125,1.1300421408057213,0.8473898590460419,0.5480073917597532
1772025775261007000,0.201007080078125,1.1644997062027453,0.7836538844555616,0.6669806849256158
1772025775271004000,0.21100390625,1.12064478238523,0.709716833846271,0.8031935744449495
1772025775281001200,0.221001220703125,1.0152110620111225,0.5774024130702018,0.9940665671736001
1772025775290999000,0.2309990234375,0.8997522067070007,0.42705812234580515,1.1787161553427576
1772025775300996000,0.24099609375,0.739370506092906,0.25221681148558855,1.2858842982940375
1772025775310993000,0.250992919921875,0.6041477966547012,0.10862696345746517,1.3265269820667802
1772025775320991000,0.260990966796875,0.37888124367594717,0.01972176855802536,1.3820796502016484
1772025775330988000,0.270988037109375,0.15837912862002848,-0.004074409832060337,1.3101882800757885
1772025775340986000,0.280986083984375,-0.036087796947360036,0.1259776189699769,1.1933328558467329
1772025775350983000,0.29098291015625,-0.2628285141319036,0.29960078621208663,1.0575666871815919
1772025775360980000,0.30097998046875,-0.45977205894589424,0.40936610604971646,0.8521019822597503
1772025775370978000,0.31097802734375,-0.5154623819857835,0.5029208803206682,0.49709991908222434
1772025775380975000,0.32097509765625,-0.4120405859559774,0.6382455888286233,0.19967866886630653
1772025775390972000,0.330971923828125,-0.15027590166330337,0.7626943907961249,0.005269464835524559
1772025775400970000,0.340969970703125,0.1503741013407707,0.8809723951742052,-0.1162577505968511
1772025775410967000,0.350967041015625,0.32225334752500057,0.9055261139333247,-0.2509951607361436
1772025775420964000,0.360964111328125,0.5011971252679824,0.8235694229975342,-0.37004955631420017
1772025775430962200,0.370962158203125,0.6753028153300284,0.7111383910819887,-0.3133681764103472
1772025775440959000,0.380958984375,0.7434662509739398,0.6154997962743044,-0.17413477002605796
1772025775450956000,0.3909560546875,0.7374877610862255,0.4624205276280641,0.05194499903172254
1772025775460953900,0.400953857421875,0.7281044311910867,0.2645782804086804,0.26948431875929235
1772025775470951200,0.410951171875,0.7855272771120071,0.047372576549649235,0.3603757190398872
1772025775480948000,0.420947998046875,0.8150392028003931,-0.16771920389533043,0.3791419404387474
1772025775490942200,0.430942138671875,0.7893371907889842,-0.3536728604003787,0.4090089631751179
1772025775500939000,0.44093896484375,0.7683142765045166,-0.461863186006248,0.392967928956449
1772025775510936300,0.450936279296875,0.6964923183530569,-0.5664610400781035,0.42755379690825934
1772025775520934400,0.460934326171875,0.6380377912968397,-0.6574515168190002,0.45013183168023824
1772025775530931200,0.47093115234375,0.5542506700634956,-0.7073910212472081,0.4024412752225995
1772025775540928000,0.480927978515625,0.43793665923476216,-0.7380901108935475,0.3941884837273508
1772025775550926300,0.49092626953125,0.3690145141780376,-0.773080467993021,0.37783546095006165
1772025775560923400,0.50092333984375,0.2865975122541189,-0.747679192493856,0.3057300827473402
1772025775570920200,0.510920166015625,0.1557867740392685,-0.6883142725944519,0.13715667317546903
1772025775580918300,0.520918212890625,0.021786884394288063,-0.7056579138442873,0.058539428860694166
1772025775590915300,0.530915283203125,-0.07713409308493137,-0.732499743540585,-0.033999884757399554
1772025775600913400,0.540913330078125,-0.09436404482722281,-0.738119044727087,-0.10072831916213035
1772025775610910200,0.55091015625,-0.16712942130863664,-0.7079919097498059,-0.15566965046562253
1772025775620907300,0.5609072265625,-0.28918051448464394,-0.6802712513923644,-0.19403160289004445
1772025775630905000,0.570905029296875,-0.31245149995684623,-0.6392062505543231,-0.1968221834566444
1772025775640902400,0.58090234375,-0.20642565890848635,-0.5508405693590641,-0.2473248747255653
1772025775650899200,0.590899169921875,-0.18877192879617213,-0.46559828088134525,-0.19310572021678088
1772025775660897300,0.600897216796875,-0.26128537634313104,-0.4534484088823199,-0.0789982064563781
1772025775670894000,0.61089404296875,-0.29466566789746285,-0.527610208158195,0.05584021637197584
1772025775680891400,0.620891357421875,-0.3388438323199749,-0.5618664057642221,0.2119753654574975
1772025775690889200,0.63088916015625,-0.4073609037071466,-0.5337207999929785,0.2730416459146887
1772025775700886300,0.64088623046875,-0.4627431837111711,-0.49438481490463015,0.2816456985330209
1772025775710883000,0.650883056640625,-0.5066700037211179,-0.4762634672805667,0.24045944593548774
1772025775720881200,0.660881103515625,-0.5752987187892198,-0.42670507112443445,0.18190116624385116
1772025775730878200,0.670878173828125,-0.5772884313017129,-0.3783452371031046,0.11605141436979174
1772025775740875300,0.680875244140625,-0.5462333678245544,-0.36668227183818813,0.02939966095294803
1772025775750873300,0.690873291015625,-0.6080816289722919,-0.3862123172163963,0.024419132594019174
1772025775760870100,0.7008701171875,-0.5807499699324369,-0.48529608404189345,0.08610434866715222
1772025775770867200,0.7108671875,-0.42045711664557456,-0.6296846812322735,0.10201359146600589
1772025775780865300,0.720865234375,-0.4156792347192764,-0.6319245691135525,0.08753381521468982
1772025775790862300,0.7308623046875,-0.5536223090320825,-0.5486000969558954,0.15707241166932506
1772025775800860200,0.740860107421875,-0.657502370223403,-0.6555132422327995,0.22886777407480402
1772025775810857200,0.750857177734375,-0.6668412764549255,-0.9048042293995618,0.2376703997388482
1772025775820854300,0.760854248046875,-0.6289964067071676,-1.0917416362449526,0.2584214930783026
1772025775830852400,0.770852294921875,-0.6219207692325115,-1.1634098651394247,0.2888132886074483
1772025775840849200,0.78084912109375,-0.5427665684968233,-1.0896554776206613,0.3611098420007154
1772025775850846200,0.79084619140625,-0.507397148951888,-0.9415940371364354,0.3115852750489488
1772025775860844000,0.800843994140625,-0.5155594126194715,-0.8758502298548817,0.24470727610569445
1772025775870841300,0.81084130859375,-0.42992403317093847,-0.801092802773416,0.13992926142765208
1772025775880838100,0.820838134765625,-0.3507698324352503,-0.6283005333974957,0.04217400782613549
1772025775890836200,0.830836181640625,-0.3173299196481705,-0.37544951566159723,-0.10824803800932131
1772025775900833000,0.8408330078125,-0.17582009276449678,-0.1674631833076477,-0.25792276804223657
1772025775910830300,0.850830322265625,-0.0408820454865694,0.043185938514769075,-0.4758138238169253
1772025775920828400,0.860828369140625,0.08032382903695107,0.2420166122496128,-0.6181206462971865
1772025775930825200,0.8708251953125,0.23401859923303125,0.4201975889265537,-0.6452778255529701
1772025775940822000,0.880822021484375,0.3098252431064844,0.6177507900714874,-0.7095909424442798
1772025775950820000,0.890820068359375,0.4110129964739084,0.7233037529110908,-0.7557851959295571
1772025775960817400,0.9008173828125,0.4492857362449169,0.714731739398837,-0.7353226189415901
1772025775970814200,0.910814208984375,0.45120530613064763,0.6915940249174833,-0.672684960981831
1772025775980812300,0.920812255859375,0.38696342784464355,0.7167021626889706,-0.635296529764682
1772025775990809000,0.93080908203125,0.27774726632237434,0.7214461423456668,-0.572372309948504
1772025776000806400,0.940806396484375,0.2282926228016615,0.6532397443428635,-0.5355995629442856
1772025776010804200,0.95080419921875,0.18745149384737014,0.6531552809298038,-0.5582307526756077
1772025776020801300,0.96080126953125,0.21460370466709136,0.7286243634119629,-0.5759268971575424
1772025776030799000,0.970799072265625,0.27673662797510623,0.7874351565599441,-0.5900620977548882
1772025776040796200,0.980796142578125,0.2611912683188915,0.7592956882685422,-0.6306880861211568
1772025776050793200,0.990793212890625,0.1754535975396633,0.6684346831262111,-0.6912312560196966
1772025776060791300,1.000791259765625,0.11414309653043746,0.6197901869446039,-0.7338993812054395
1772025776070788000,1.0107880859375,0.0071627312362194055,0.6518509203329682,-0.7977494836948812
1772025776080785200,1.02078515625,-0.10901216338276863,0.6950847896426916,-0.8633729525323957
1772025776090783200,1.030783203125,-0.09593933131992817,0.755228584960103,-0.9006617958325892
1772025776100780300,1.0407802734375,-0.01900280663371086,0.751992671778798,-0.9697514794759452
1772025776110777000,1.050777099609375,0.06323883872330188,0.7158850010871887,-0.9782049081098287
1772025776120775200,1.060775146484375,0.17054887436330318,0.761979812785983,-0.9307203956183046
1772025776130772200,1.070772216796875,0.31214930213987824,0.7877589816868305,-0.907599047749862
1772025776140769300,1.080769287109375,0.5100859496444463,0.7469651990056038,-0.8697923911206423
1772025776150767400,1.090767333984375,0.7213233927488326,0.6626894174724817,-0.781731611156091
1772025776160764200,1.10076416015625,0.8483528588593006,0.5683005304649472,-0.618682591028884
1772025776170761200,1.11076123046875,0.8782523225605487,0.39686142926365137,-0.42004305595196784
1772025776180759300,1.12075927734375,1.0083253941506147,0.2284852227643132,-0.31337120861764994
1772025776190756400,1.13075634765625,1.137349833470583,0.07790653876215219,-0.20259658387331292
1772025776200753200,1.140753173828125,1.1288169829249382,-0.06589636749476194,-0.13869986576316878
1772025776210751200,1.150751220703125,1.0491700302362441,-0.19118834228813647,-0.08854560433942824
1772025776220748300,1.160748291015625,0.9904688349425792,-0.3222548088297248,-0.06478071613674984
1772025776230745300,1.170745361328125,0.8921125056087971,-0.4607473337188363,-0.06438638305692002
1772025776240743200,1.1807431640625,0.8179764252960682,-0.5549076726675033,-0.08746613853964955
1772025776250740200,1.190740234375,0.7780044803917407,-0.611074673308432,-0.1407586066575721
1772025776260737300,1.2007373046875,0.7337789696961641,-0.6666369860544801,-0.2274104696722701
1772025776270735400,1.2107353515625,0.6562550005108118,-0.6963356664866208,-0.28506274043489244
1772025776280732200,1.220732177734375,0.6015192017167806,-0.7250716393664479,-0.3621061230290681
1772025776290730200,1.230730224609375,0.5491746819734573,-0.7372977914720773,-0.3825637681135908
1772025776300727000,1.24072705078125,0.4636532842934131,-0.7220259880602359,-0.37765498981662093
1772025776310724400,1.250724365234375,0.41890988720357414,-0.682347765405476,-0.3888781023595482
1772025776320722400,1.260722412109375,0.35306934154927727,-0.6012006372869014,-0.4007462713403627
1772025776330719200,1.27071923828125,0.25329496211111546,-0.5569686968505382,-0.41555348944775755
1772025776340716000,1.280716064453125,0.09213175573050975,-0.4929018828704953,-0.41307365533076223
1772025776350714000,1.290714111328125,-0.06840776579380035,-0.4226213089421391,-0.4026870666772127
1772025776360711400,1.30071142578125,-0.1336000766724348,-0.3576639758631587,-0.4018527347449213
1772025776370708200,1.310708251953125,-0.09381693233847617,-0.3502943238779902,-0.5335239622466266
1772025776380706300,1.320706298828125,-0.26139468193650245,-0.41772418455034493,-0.5131567353919149
1772025776390703000,1.330703125,-0.5895218899309634,-0.44382600953429935,-0.4600265451636165
1772025776400700400,1.340700439453125,-0.7793670009166002,-0.4284352559179067,-0.4347239077333361
1772025776410698200,1.3506982421875,-0.8830214366585015,-0.3365732570394873,-0.49986379430498923
1772025776420695300,1.3606953125,-0.9939286200076342,-0.23453093266934155,-0.5929746607333422
1772025776430692000,1.370692138671875,-1.1619646347671746,-0.24550240853875874,-0.6216264624610542
1772025776440690200,1.380690185546875,-1.1930775659114121,-0.26473843940645453,-0.6989664533816278
1772025776450687200,1.390687255859375,-1.2294383345812558,-0.49384413215667006,-0.616564356765896
1772025776460684300,1.400684326171875,-1.4178665645062922,-0.7340753222942352,-0.5460943612126633
1772025776470682000,1.41068212890625,-1.649161291733384,-0.5136611777827144,-0.5332475929906592
1772025776480679200,1.42067919921875,-1.75778708614707,-0.23364392070174217,-0.4406937759231776
1772025776490675500,1.430675537109375,-1.746978691884875,-0.2808794268682599,-0.363195379570499
1772025776500673300,1.44067333984375,-1.7676450478166341,-0.4727344163715839,-0.24809985941974444
1772025776510670300,1.45067041015625,-1.8449346237242221,-0.4769318680614233,-0.1024406395053491
1772025776520667400,1.46066748046875,-1.8843997881501913,-0.27154081289768217,0.052317576937470585
1772025776530665500,1.47066552734375,-1.8147358848154544,-0.14691577758044003,0.18754043250614777
1772025776540662300,1.480662353515625,-1.6840952424705027,-0.15156915634423493,0.2712746545084752
1772025776550659300,1.490659423828125,-1.605570571810007,-0.10666355443000793,0.31745025809220967
1772025776560657400,1.500657470703125,-1.563328343886137,0.0336667072802782,0.3811861596174538
1772025776570654500,1.510654541015625,-1.5073223790258168,0.16159692162275313,0.4237526145270094
1772025776580652500,1.520652587890625,-1.3974141435861587,0.2655515093550086,0.4247174409711733
1772025776590649300,1.5306494140625,-1.2524883707791565,0.3707335930556059,0.4032164243135601
1772025776600646400,1.540646484375,-1.0550772084534168,0.4604050961524248,0.40039690991342064
1772025776610644200,1.550644287109375,-0.8057201703131198,0.5681769040852784,0.3719626964591443
1772025776620641500,1.5606416015625,-0.5289180758863687,0.7184604045331477,0.33288960009068247
1772025776630638300,1.570638427734375,-0.2531412328541279,0.9009908085912466,0.37014622162170707
1772025776640636400,1.580636474609375,0.061710898503661155,1.0564759693354369,0.33270832523964344
1772025776650633200,1.59063330078125,0.4701560903161764,1.1409890667557716,0.27746720727197827
1772025776660630500,1.600630615234375,0.8650105636715888,1.1358829757884144,0.33491504150368273
1772025776670628400,1.61062841796875,1.2143027247697114,1.1107815600186586,0.4239260348651558
1772025776680625400,1.62062548828125,1.545888548785448,1.0704875435531138,0.556156942076236
1772025776690622200,1.630622314453125,1.7481658558428286,1.0416127467244862,0.7698805029079318
1772025776700620300,1.640620361328125,1.8713257870435713,0.9686851654186844,0.9392328609630465
1772025776710617300,1.650617431640625,2.013954973345995,0.8853957645744085,1.0753568300899117
1772025776720614400,1.660614501953125,2.0787153225481507,0.8261258294820785,1.2433598924279212
1772025776730612200,1.6706123046875,2.0444874742537738,0.7711205660969018,1.3522585124336182
1772025776740609300,1.680609375,1.9195587798148392,0.7213201778784394,1.526555779545009
1772025776750606300,1.6906064453125,1.7493179484874009,0.6508864592149853,1.6987522749848663
1772025776760604400,1.7006044921875,1.4601082079082726,0.4641378529399633,1.8969266767680644
1772025776770601500,1.7106015625,1.2049743399322033,0.2662371535316109,1.9931550541624425
1772025776780598500,1.7205986328125,1.0741121637910604,0.22061755812913178,2.0471561089411376
1772025776790596600,1.7305966796875,0.8915081099748611,0.1751876400798559,1.9857082452878354
1772025776800593400,1.740593505859375,0.8466425478100776,0.1263455754995346,1.7230615174636243
1772025776810590500,1.750590576171875,0.81560443546772,0.1706187247291207,1.417587455303967
1772025776820588300,1.76058837890625,0.5664893893897534,0.22335282831192016,1.2236634044416248
1772025776830585600,1.770585693359375,0.29112638785541056,0.21415800672620533,1.098311735350266
1772025776840583400,1.78058349609375,0.11638239988982677,0.208449858212471,0.9844147956006228
1772025776850580500,1.79058056640625,-0.0468120200574398,0.261583774767816,0.8545372465826571
1772025776860577300,1.800577392578125,-0.10410919377207756,0.2949985531136393,0.7650066132612526
1772025776870575400,1.810575439453125,-0.014444704937934875,0.27330753030925986,0.6476600445143879
1772025776880572400,1.820572509765625,0.04770049332976341,0.26849954550564287,0.5440433469669893
1772025776890569500,1.830569580078125,0.042403555965423584,0.2821712202444672,0.4535571664864197
1772025776900567300,1.8405673828125,0.09219254600703716,0.29316373890191316,0.41655729619543996
1772025776910564400,1.850564453125,0.07924655519425869,0.28443273543566466,0.5013833685550838
1772025776920561400,1.8605615234375,0.05720598829984665,0.20178660093098877,0.6154430976510048
1772025776930559500,1.8705595703125,0.1862590691924095,0.10313625708669423,0.706571375427395
1772025776940556300,1.880556396484375,0.2700859379142523,0.0008554477855563164,0.836282627967745
1772025776950553300,1.89055322265625,0.3654956924021244,-0.108808165243268,0.8707038799423724
1772025776960551400,1.900551513671875,0.46752632633447644,-0.23789573292732238,0.9355443086434155
1772025776970548500,1.910548583984375,0.4467448195904493,-0.3694625502064824,0.9790770147692411
1772025776980545300,1.920545166015625,0.24145780932307243,-0.4731909279674291,1.0191899755794553
1772025776990543400,1.93054345703125,0.014422493106126784,-0.608586948145926,1.0331538381978869
1772025777000540400,1.94054052734375,-0.138819857147336,-0.7588973366007208,0.9692006406601518
1772025777010537500,1.950537353515625,-0.3245598709017038,-0.8886766859412193,0.9092338824100792
1772025777020535600,1.96053564453125,-0.43506139605939387,-0.9462187743276357,0.9063873338725418
1772025777030532400,1.970532470703125,-0.4599205275058746,-0.8810998209461569,0.8267660270817577
1772025777040529400,1.980529296875,-0.5402578005462885,-0.8322039803519845,0.7386275787711143
1772025777050527200,1.99052734375,-0.6274971080601215,-0.8168076737776399,0.6766076143182814
1772025777060524500,2.000524658203125,-0.6864274359345436,-0.732494190582633,0.573430769492872
1772025777070521300,2.010521240234375,-0.6990168683946132,-0.5505231739729642,0.4369148784389719
1772025777080519400,2.02051953125,-0.753939714193344,-0.43100627544969317,0.34699356529954817
1772025777090516200,2.03051611328125,-0.7682599159687757,-0.36716450239717957,0.263049061547406
1772025777100513500,2.040513427734375,-0.6266355227947235,-0.26210955220758914,0.15546083002053201
1772025777110511400,2.050511474609375,-0.555357754522562,-0.18103227445483205,0.15205248288176954
1772025777120508400,2.06050830078125,-0.5889864678800105,-0.12312427536547184,0.18122242673207073
1772025777130505200,2.070505126953125,-0.4423749339431524,-0.07948504012525082,0.21970418787756935
1772025777140503300,2.08050341796875,-0.24793022020757197,-0.07891016284674406,0.2696825447451323
1772025777150500400,2.090500244140625,-0.15511691195368765,-0.1433408417031169,0.3378394775830209
1772025777160498400,2.10049853515625,-0.10759995849728583,-0.2062681302592158,0.45457690145559604
1772025777170495500,2.11049560546875,-0.05468143825829029,-0.2738479207962751,0.5910586710441857
1772025777180492300,2.1204921875,0.0022328736186027526,-0.459759491725266,0.7334967917539179
1772025777190490400,2.130490478515625,-0.030171850901842115,-0.7335027831032872,0.9027545303281396
1772025777200487400,2.1404873046875,-0.18194003694951533,-0.9097852326825261,0.938192631195113
1772025777210484500,2.150484375,-0.31611820577085015,-0.8058806215718388,0.9061954645622521
1772025777220482300,2.160482421875,-0.4439876298367977,-0.5423299306452274,0.8990353636745363
1772025777230479400,2.170479248046875,-0.5494079062074423,-0.42622634769678114,0.8445167147625238
1772025777240476400,2.180476318359375,-0.5545107823044061,-0.39495968729555603,0.6535910419985651
1772025777250474500,2.190474609375,-0.508216064119339,-0.32149434585124254,0.41627983096092935
1772025777260471300,2.20047119140625,-0.4321306033045053,-0.18483371256440878,0.17175054177064447
1772025777270468400,2.21046826171875,-0.35870822421908377,-0.027318507297337053,-0.031653668691124764
1772025777280466400,2.220466552734375,-0.3142331226766109,0.11041472365707158,-0.11999827969889156
1772025777290463500,2.23046337890625,-0.3222697141379118,0.3482125491678715,-0.18712675540503113
1772025777300460300,2.240460205078125,-0.35893969488739963,0.4937018010765314,-0.2164077218817547
1772025777310458400,2.250458251953125,-0.43854806913137434,0.5215244585037231,-0.25429776421179995
1772025777320455400,2.260455322265625,-0.4931546885877847,0.5833686279982329,-0.2478036894847639
1772025777330452500,2.270452392578125,-0.5475234076350927,0.7099971120923757,-0.2692082234979607
1772025777340450300,2.2804501953125,-0.4992939219951629,0.9065729926377535,-0.4063884784784168
1772025777350447400,2.290447265625,-0.46259003897607326,1.0835358256965875,-0.5814224623665213
1772025777360444400,2.3004443359375,-0.5409522125512362,1.2522794042035936,-0.7050942886121571
1772025777370442500,2.3104423828125,-0.4261170421034097,1.4932432925298809,-0.8669194660328328
1772025777380439300,2.320439208984375,-0.2767939111202955,1.6318962686777114,-0.8973208879068494
1772025777390436400,2.330436279296875,-0.27968203377723694,1.6666656765028833,-0.9995409069314598
1772025777400434400,2.340434326171875,0.0645715486317873,1.635108800983429,-1.1005631675388663
1772025777410431500,2.350431396484375,0.43826925218999385,1.495335588634014,-1.2235782834414393
1772025777420428300,2.36042822265625,0.7414771229833365,1.3466715060815215,-1.28642512717247
1772025777430426400,2.37042626953125,0.8291039685100317,1.161660098862648,-1.2081694096464664
1772025777440423400,2.38042333984375,0.7053180143654346,0.9869079275906085,-1.024371396805346
1772025777450420500,2.39042041015625,0.6323667599231004,0.8021227303430437,-0.8728059667881578
1772025777460418600,2.40041845703125,0.5393909545838833,0.593152063126862,-0.7916505092326551
1772025777470415400,2.410415283203125,0.479994762763381,0.44604427010565995,-0.695562490157038
1772025777480412400,2.420412353515625,0.4962894794821739,0.361600438529253,-0.5853751820476726
1772025777490410200,2.43041015625,0.4233347179085016,0.2769856343001127,-0.44150425205584615
1772025777500408300,2.440408203125,0.3661532795280218,0.21919337054491042,-0.3150017689615488
1772025777510406400,2.450406494140625,0.4958984343379736,0.17675708135366439,-0.24826376301087438
1772025777520403500,2.460403564453125,0.5897919390439987,0.18105097915530205,-0.25645338960941877
1772025777530400500,2.470400390625,0.5699637875020503,0.14826806897222994,-0.3295295125404373
1772025777540398300,2.4803984375,0.5093026903122663,0.11701456031352281,-0.341179070334509
1772025777550395400,2.4903955078125,0.4558779741168022,0.14951339285820722,-0.3529966416392475
1772025777560392400,2.500392333984375,0.4119505695849657,0.1812105536311865,-0.3730100866202265
1772025777570390500,2.510390625,0.34595220302045343,0.19425386733859776,-0.3581147518379614
1772025777580387600,2.5203876953125,0.2928448822110891,0.14675883345305918,-0.3624423327134922
1772025777590384400,2.53038427734375,0.32607027546465395,0.0767974084764719,-0.39605530051253734
1772025777600382500,2.540382568359375,0.31669512887597084,0.007112754614651203,-0.40325562381278723
1772025777610379500,2.550379638671875,0.2746113063842058,-0.032069062825292344,-0.3930824952468276
1772025777620376600,2.56037646484375,0.20258710365891455,-0.06357946885451674,-0.36399741666838525
1772025777630374400,2.57037451171875,0.12394260601103305,-0.10532967547774315,-0.3348764995915815
1772025777640371500,2.580371337890625,-0.007306523621082306,-0.18028481708839533,-0.3229352653745562
1772025777650368500,2.590368408203125,-0.12054828739762305,-0.27218729410767556,-0.3965614234037697
1772025777660366600,2.60036669921875,-0.12187398304343224,-0.363677098672837,-0.4372016594910994
1772025777670363400,2.61036328125,-0.09869652107357978,-0.4195804799415171,-0.46518856756929305
1772025777680360400,2.6203603515625,-0.1558347048342228,-0.42858445513024923,-0.5389934796988963
1772025777690358500,2.630358642578125,-0.2538420745998621,-0.4374189189709723,-0.606444456224516
1772025777700355600,2.64035546875,-0.34092297668159005,-0.4593222693517804,-0.6744720635943114
1772025777710352400,2.650352294921875,-0.39966450398564335,-0.4590799850285053,-0.7682445722691714
1772025777720350500,2.6603505859375,-0.36357378442883487,-0.46572687569707627,-0.8914074260793626
1772025777730347500,2.670347412109375,-0.23946692776679993,-0.46885012228414413,-1.0028571188073605
1772025777740344600,2.680344482421875,-0.13611118271052836,-0.45145358180329204,-1.0434332401499151
1772025777750342400,2.69034228515625,-0.059875499770045276,-0.447064260803163,-1.052150507351756
1772025777760339500,2.70033935546875,0.0016185411125421523,-0.48138987038359043,-1.0239768445298074
1772025777770336500,2.71033642578125,0.07174655482769011,-0.5115564605884254,-0.995430256742239
1772025777780334600,2.72033447265625,0.141294722828269,-0.5662973739489913,-0.9264041398543864
1772025777790331400,2.730331298828125,0.19229951840043066,-0.6385233828566969,-0.8339864798545837
1772025777800328400,2.740328369140625,0.2852916903525591,-0.7062839367881417,-0.760309979877621
1772025777810326500,2.750326416015625,0.37539632416963575,-0.7878815851531923,-0.6693587391685694
1772025777820323600,2.760323486328125,0.37537352781593797,-0.8534465287365018,-0.5718554099349304
1772025777830320400,2.7703203125,0.41028702028691766,-0.8741784972503781,-0.5028231920998543
1772025777840318500,2.780318359375,0.46366906638443467,-0.8670613587215542,-0.47787345976047213
1772025777850315500,2.7903154296875,0.43922260739207264,-0.9249408623687922,-0.4547871101401746
1772025777860313300,2.800313232421875,0.39551790570020673,-1.001700423052907,-0.406341424466297
1772025777870310700,2.810310546875,0.37869887284636494,-1.034921724653244,-0.34777430388107894
1772025777880307500,2.820307373046875,0.33557284782528873,-1.0150890430666506,-0.3055839888075366
1772025777890305500,2.830305419921875,0.29922084698379037,-1.0082834547050297,-0.2717846498572267
1772025777900302300,2.84030224609375,0.25841478934288026,-1.0108534513235092,-0.246805947151687
1772025777910299600,2.850299560546875,0.1896317604959011,-0.9639690966822206,-0.22253475339468567
1772025777920297500,2.86029736328125,0.10364391434788703,-0.9226460294298827,-0.21972029876215382
1772025777930294500,2.87029443359375,0.0584539425343275,-0.9031770665891468,-0.22692414746005088
1772025777940291300,2.880291259765625,0.025804887863993643,-0.8072253141790628,-0.2341687848260626
1772025777950289400,2.890289306640625,-0.03871405379772186,-0.6769970520272851,-0.2736398675361648
1772025777960286500,2.900286376953125,-0.09143500563800334,-0.5773531671009957,-0.27169024957204235
1772025777970283500,2.910283447265625,-0.17223697358071802,-0.5038347802951931,-0.23198466398632153
1772025777980281600,2.920281494140625,-0.1830395226240158,-0.44641281115710735,-0.20248236464280633
1772025777990278400,2.9302783203125,-0.14595160872340202,-0.47818961303755636,-0.13159981536646373
1772025778000275500,2.940275390625,-0.16971300806105136,-0.6735594787940382,-0.005524681705608964
1772025778010273500,2.9502734375,-0.38238136075139045,-0.8404509996935725,0.08907549169873819
1772025778020270600,2.9602705078125,-0.6608329759508371,-0.7182508534356952,0.08762660806467756
1772025778030267400,2.970267333984375,-0.8168500516146421,-0.5390284048818051,0.06519055731296539
1772025778040265500,2.980265380859375,-0.9358370810449123,-0.5551892660878598,0.021382066453061996
1772025778050262500,2.990262451171875,-1.1323089166939257,-0.4941029292233288,-0.1176146816311404
1772025778060259600,3.000259521484375,-1.2767466137230397,-0.28559812595322726,-0.29045875425953416
1772025778070257400,3.01025732421875,-1.218455168274045,-0.0855856950879097,-0.40098384295590217
1772025778080254500,3.02025439453125,-1.1473679541379214,0.019878712685406207,-0.4179383752902969
1772025778090251500,3.03025146484375,-1.0962602827131747,0.03269230929017067,-0.450677592462115
1772025778100249600,3.04024951171875,-1.0338105485409497,0.1002621629551053,-0.5461963968150317
1772025778110246400,3.050246337890625,-1.082317097556591,0.260496564052999,-0.474024748443067
1772025778120243500,3.060243408203125,-1.0167232201397418,0.39789237974658603,-0.6297023630194366
1772025778130241300,3.0702412109375,-0.9107721978932618,0.40699294717758894,-0.6465976029146462
1772025778140238600,3.080238525390625,-0.9134528152793645,0.47705783252865075,-0.6645088879846036
1772025778150235400,3.0902353515625,-0.7301736386805773,0.5709016528740525,-0.6318246889356524
1772025778160233500,3.1002333984375,-0.590818944004178,0.6124377783551812,-0.5779556630387902
1772025778170230300,3.110230224609375,-0.35226913108229635,0.6968072295211255,-0.6477400509480387
1772025778180227600,3.1202275390625,-0.044348844814300535,0.8267521446868776,-0.6295690189633518
1772025778190225400,3.130225341796875,0.18027064243257046,0.9214012900657951,-0.5772015567358583
1772025778200222500,3.140222412109375,0.3924649478703737,0.9139601802796125,-0.42390659951232373
1772025778210219300,3.15021923828125,0.6233692144751548,0.8667644216015934,-0.25244981652386483
1772025778220217300,3.16021728515625,0.810481101104617,0.8334381983220577,-0.06877345730103553
1772025778230214400,3.17021435546875,0.8952981499075889,0.7833297670677304,0.07959595315381884
1772025778240212500,3.18021240234375,0.9373527463048696,0.7308762339919805,0.17478227414935826
1772025778250209500,3.19020947265625,0.9692389999091625,0.7067372335135936,0.23435111912302672
1772025778260206300,3.200206298828125,0.854293939346075,0.5980865969195962,0.3589480973895639
1772025778270204700,3.21020458984375,0.7124363219380379,0.47637131156921386,0.42984943356476724
1772025778280201500,3.220201416015625,0.733491969448328,0.42763942936509847,0.46855778827406463
1772025778290198500,3.230198486328125,0.7450608266890049,0.41375323509275913,0.5172058646522462
1772025778300196400,3.2401962890625,0.638702977207303,0.29412820001989604,0.5915465276263654
1772025778310193700,3.250193603515625,0.5644634365200996,0.1992111974850297,0.67585716127716
1772025778320190500,3.2601904296875,0.37489480438828465,0.13949381088614463,0.7368221367843448
1772025778330188500,3.2701884765625,0.14597148246765135,0.2319409161761403,0.7637186923425644
1772025778340185300,3.280185302734375,-0.12254676773846149,0.3851099089324474,0.7421799374904483
1772025778350182700,3.2901826171875,-0.41712008117735383,0.5084133402571082,0.6342830418732017
1772025778360180500,3.300180419921875,-0.5939437980264425,0.592544160361588,0.4510832141209393
1772025778370177500,3.310177490234375,-0.6612848113715648,0.6496724072501063,0.1573537310950458
1772025778380174300,3.32017431640625,-0.5961375086784363,0.7205953707352281,-0.03499357196986675
1772025778390172400,3.33017236328125,-0.3984463603675365,0.7843526803746819,-0.19332747320868074
1772025778400169500,3.34016943359375,-0.27940497040152545,0.7995461578533053,-0.21801628958955405
1772025778410166500,3.35016650390625,-0.1599210973650217,0.8157140333220362,-0.26151355907581747
1772025778420164600,3.36016455078125,0.006520926201343536,0.7889370855554938,-0.27738420516364276
1772025778430161400,3.370161376953125,0.32244390166103837,0.7283766722612083,-0.2802512119673192
1772025778440158500,3.380158447265625,0.4836714054495096,0.7007026295244694,-0.14613083774782717
1772025778450156500,3.390156494140625,0.49449265919327734,0.6389310868747532,0.060162207756936543
1772025778460153600,3.400153564453125,0.5072989492744208,0.4718289919644594,0.19143515665605662
1772025778470150400,3.410150390625,0.5942588553249836,0.21312471815571188,0.21372275711409747
1772025778480148500,3.4201484375,0.6432786145597696,0.011026128666102886,0.20301365850791334
1772025778490145500,3.4301455078125,0.6625047085553407,-0.17040917363166808,0.1979731801226735
1772025778500142000,3.44014208984375,0.7131283958554268,-0.2613748081922531,0.23271453089714048
1772025778510140200,3.45014013671875,0.6690297264099121,-0.33302111751586194,0.34705862989239394
1772025778520137000,3.460136962890625,0.6171802967071532,-0.41670185576528307,0.42448724894449114
1772025778530134300,3.47013427734375,0.6144020641654729,-0.49880058552026746,0.4291511491023004
1772025778540132000,3.480132080078125,0.6016214930474758,-0.5510547966316343,0.3971891999132931
1772025778550129200,3.490129150390625,0.4747007480084896,-0.5832672134503721,0.433409683329612
1772025778560126000,3.5001259765625,0.3721943132579326,-0.6103625795163213,0.4372118520915508
1772025778570124000,3.5101240234375,0.36136253812015057,-0.6184064775012433,0.3761388861652463
1772025778580121000,3.52012109375,0.37021570666134357,-0.6014302082590759,0.27178178204670544
1772025778590119200,3.530119140625,0.27672259944975375,-0.5836721409894525,0.1907698976803571
1772025778600116000,3.540115966796875,0.11894845098555087,-0.5303431402534247,0.1537150092665106
1772025778610113000,3.550113037109375,-0.022843699970841406,-0.4388450062513351,0.14048311418443918
1772025778620111000,3.560111083984375,-0.10683365029990673,-0.33313042310923335,0.09514204346239566
1772025778630108200,3.570108154296875,-0.07885083387494086,-0.25989669846370816,0.03474595388434827
1772025778640105000,3.58010498046875,-0.07819032413959502,-0.20897154399901627,-0.06799721223153174
1772025778650103000,3.59010302734375,-0.23580489812791347,-0.2791040877588093,-0.07540244698673486
1772025778660100000,3.60010009765625,-0.3432289155364036,-0.35952217095047234,-0.06976919034011661
1772025778670097200,3.61009716796875,-0.3739040397852659,-0.352149450225383,-0.06416705948412418
1772025778680095200,3.62009521484375,-0.3778676827192306,-0.32727658251449465,-0.07216554742474109
1772025778690092000,3.630092041015625,-0.36289573903679845,-0.29449717946276066,-0.12874850845541805
1772025778700089300,3.64008935546875,-0.3808446527034044,-0.288771933683753,-0.25045550090149044
1772025778710087200,3.650087158203125,-0.4367588476270437,-0.31830256407260893,-0.2834690780352801
1772025778720084200,3.660084228515625,-0.5453191755890846,-0.35754224917963146,-0.24672325557060537
1772025778730081000,3.6700810546875,-0.4938415018081665,-0.39241935516297816,-0.22456837811414151
1772025778740079000,3.6800791015625,-0.2735556598514318,-0.3934869843944907,-0.15899276700634507
1772025778750076200,3.690076171875,-0.1349374627560377,-0.3869707343682647,-0.10975152877429499
1772025778760073200,3.7000732421875,-0.045566988432407377,-0.4415843680873513,0.0004224083968438208
1772025778770071000,3.710071044921875,0.0514046085447073,-0.6181465113908052,0.17902173835001886
1772025778780068000,3.720068115234375,0.09295067089796066,-0.841712690192461,0.3589420329749584
1772025778790065200,3.730065185546875,0.1125076042830944,-0.9126561119437218,0.46557950311563906
1772025778800063200,3.740063232421875,0.0732768331348896,-0.8613859434336424,0.5703002894474193
1772025778810060000,3.75006005859375,-0.008963643178343772,-0.9229314222425222,0.6316677448082715
1772025778820057000,3.76005712890625,-0.05041209037601947,-1.0507084918498992,0.6007982670310884
1772025778830055000,3.770054931640625,-0.05382920534312725,-1.0979638717606663,0.5720655455542728
1772025778840052200,3.78005224609375,-0.08092705562710761,-1.0235027972772717,0.5662682209197432
1772025778850049000,3.790049072265625,-0.14808920527398586,-0.8881962089478969,0.4928476319326088
1772025778860047000,3.800047119140625,-0.11612988643348217,-0.8136158919990062,0.4200148893034085
1772025778870044000,3.8100439453125,-0.03754851714968681,-0.7566355291485786,0.325709515860863
1772025778880041200,3.820041259765625,-0.06683014121353625,-0.6370037720739841,0.27016481183674185
1772025778890039300,3.830039306640625,-0.1867261021822691,-0.44253538520187136,0.20851486800638958
1772025778900036000,3.8400361328125,-0.26537527600526806,-0.2390557166174054,0.12406424136301501
1772025778910033000,3.850032958984375,-0.3210544931292534,-0.07606441802680491,0.012097493357816711
1772025778920031000,3.860031005859375,-0.38635318699181076,0.08161211528182029,-0.08867450968241318
1772025778930028300,3.8700283203125,-0.42027708390355106,0.2685249722078442,-0.19605271518779918
1772025778940025000,3.880025146484375,-0.4212140724927187,0.48208676660656924,-0.37972364931683983
1772025778950023200,3.890023193359375,-0.41618718424141404,0.6219498491965234,-0.46569282729700207
1772025778960020000,3.90002001953125,-0.39080373665988444,0.8066815626911819,-0.5854817111620679
1772025778970017300,3.910017333984375,-0.2438946810811758,1.0330934863127768,-0.7092916672367602
1772025778980015000,3.92001513671875,-0.07331658062338829,1.1058774213641882,-0.8228922543883324
1772025778990012200,3.93001220703125,0.16234978581666945,1.1591785111799835,-0.9563336333677173
1772025779000010000,3.940010009765625,0.3030325142264366,1.230774405490607,-0.9803483498793095
1772025779010007000,3.950007080078125,0.3748573949873447,1.2165978499695658,-0.9433332820191979
1772025779020004000,3.960004150390625,0.38691198991835113,1.0805882279373704,-0.7826601972430944
1772025779030002200,3.970002197265625,0.3100853553473949,0.9704222183443605,-0.6480296815443783
1772025779039999000,3.9799990234375,0.2875128735333681,0.9129074563562869,-0.6329265126977115
1772025779049996000,3.98999609375,0.22206454206705092,0.8362788285754621,-0.7063299678869545
1772025779059993900,3.999993896484375,0.18073884446620941,0.7142261279642581,-0.7023800612173974
1772025779069991200,4.0099912109375,0.24871347953975198,0.5880320897646248,-0.6762572665106504
1772025779079988000,4.019988037109375,0.31053777529001236,0.4371612909480929,-0.6215602653570473
1772025779089986000,4.029986083984375,0.33031039725244044,0.3455934527106583,-0.5854372874984517
1772025779099983000,4.039983154296875,0.3285965790718794,0.34270796040222046,-0.6134907945394515
1772025779109980200,4.049980224609375,0.31633857052326203,0.36073096221834416,-0.6403500137619674
1772025779119978200,4.059978271484375,0.2801613417267799,0.29822175294384357,-0.6651080959867686
1772025779129975000,4.06997509765625,0.23839433009922503,0.19182927054017782,-0.6403045671850442
1772025779139972000,4.07997216796875,0.19800971274077891,0.07849252195656299,-0.6277502060383557
1772025779149970200,4.08997021484375,0.16350538559257982,0.026833061867952344,-0.7036956007953733
1772025779159967200,4.09996728515625,0.20580665022730826,-0.006512450633943081,-0.8029579390581697
1772025779169964000,4.109964111328125,0.19701836361587047,-0.043821167678385974,-0.8423957040205597
1772025779179962000,4.119962158203125,0.1091395891547203,-0.149062434220314,-0.8664849470730871
1772025779189959200,4.129959228515625,0.17867255958616732,-0.22310484490022062,-0.8368346358273178
1772025779199956200,4.139956298828125,0.2782394337534904,-0.293320683029294,-0.7741307807635516
1772025779209954000,4.1499541015625,0.3156295454710722,-0.3650130234517157,-0.7119898933447897
1772025779219951000,4.159951171875,0.3568804242700338,-0.4410324332930147,-0.6465259259179235
1772025779229948200,4.1699482421875,0.3717699503660202,-0.5034399357587099,-0.5855208375960588
1772025779239946200,4.1799462890625,0.33853111310899253,-0.5786952293597162,-0.5071504076492042
1772025779249943000,4.189943115234375,0.2590519182026386,-0.680455083526671,-0.4871024758767336
1772025779259940000,4.199940185546875,0.21108663645684717,-0.7637300174541771,-0.5360207840310409
1772025779269938000,4.20993798828125,0.18428338520526885,-0.7949179135307669,-0.621718889984861
1772025779279935200,4.219935302734375,0.14598434194922447,-0.8009946030959486,-0.6669318773478269
1772025779289932000,4.22993212890625,0.10291910720467567,-0.7685904630973934,-0.6301232187800109
1772025779299930000,4.23993017578125,0.135425538533926,-0.7026794825553894,-0.6650448945574462
1772025779309927000,4.249927001953125,0.1751701044231653,-0.6230481658272445,-0.6918098596252501
1772025779319924200,4.25992431640625,0.1825602146744728,-0.5588306913301349,-0.7257850483328103
1772025779329922300,4.26992236328125,0.1854489218533039,-0.5131586350880563,-0.7255193100687116
1772025779339919000,4.279919189453125,0.2768593775719404,-0.5147247153609991,-0.6919692149054258
1772025779349916200,4.289916259765625,0.3862023803442716,-0.4542702466592192,-0.6681665337093174
1772025779359914000,4.2999140625,0.45269466790556906,-0.37169001699760557,-0.6808991740323602
1772025779369911300,4.309911376953125,0.39785599325895304,-0.3836449509464204,-0.6696767921417951
1772025779379908000,4.319908203125,0.34323300718963146,-0.383713778398931,-0.6069986560411751
1772025779389906200,4.32990625,0.293820449244976,-0.4550650502987206,-0.5673628842886537
1772025779399903000,4.339903076171875,0.22266776865720747,-0.439972695107013,-0.4509638255249709
1772025779409900300,4.349900390625,0.10413432821333407,-0.42147111599370835,-0.36323242364525793
1772025779419898000,4.359898193359375,0.03675239833593368,-0.4546731283716857,-0.3192909905880689
1772025779429895200,4.369895263671875,-0.07633446713984011,-0.4838498307563364,-0.3400421752590686
1772025779439893000,4.37989306640625,-0.15364333226978777,-0.45981692100092764,-0.3449927834037691
1772025779449890000,4.38989013671875,-0.22189327715337276,-0.3637164077699184,-0.3129780811142176
1772025779459887000,4.39988720703125,-0.3588566927790642,-0.26922566782310603,-0.2014613510319963
1772025779469885200,4.40988525390625,-0.43871582691371436,-0.25562603540718554,-0.11284757682718335
1772025779479882000,4.419882080078125,-0.45319911029636856,-0.29669045172333713,0.06846943285316229
1772025779489879000,4.429879150390625,-0.5739104793012142,-0.2609137665517628,0.17054953195042907
1772025779499877000,4.439877197265625,-0.7425146493375301,-0.14450710900351404,0.2127676483463496
1772025779509874400,4.44987451171875,-0.9354635715574026,0.04863353639617562,0.2497665687892586
1772025779519871200,4.459871337890625,-0.9894996976494789,0.18494374881014228,0.19015863391421733
1772025779529869300,4.469869384765625,-1.0366367118775843,0.20448226975575087,0.07299757780209183
1772025779539866000,4.4798662109375,-1.020633671581745,0.17885419976338743,-0.08108999110385776
1772025779549863400,4.489863525390625,-0.9615554596692323,0.18931743384972213,-0.1702486493077129
1772025779559861200,4.499861328125,-0.8472843528449535,0.2672939691081643,-0.21551650866307318
1772025779569858300,4.5098583984375,-0.7161310848027467,0.3662335051573813,-0.18129801271893084
1772025779579855000,4.519855224609375,-0.6010930852591991,0.385474358330667,-0.060914049037545916
1772025779589853200,4.529853271484375,-0.5729477717489003,0.33928368504196404,0.07763977758474648
1772025779599850200,4.539850341796875,-0.6431839220136404,0.23253362137228248,0.24555253129079938
1772025779609847300,4.549847412109375,-0.7713345011085272,0.18677490976005792,0.3459863244857639
1772025779619845000,4.55984521484375,-0.8893366111546754,0.09950272288993,0.4611726464588195
1772025779629842200,4.56984228515625,-0.9200286865383386,0.06985942590683698,0.5417310879692435
1772025779639839200,4.579839111328125,-0.9868424611389637,0.05113222134411335,0.5946753271713853
1772025779649837300,4.58983740234375,-1.000521442401409,0.04676292021870613,0.5243893464155495
1772025779659834000,4.599834228515625,-0.9454109650760889,0.08493936000838875,0.45053193691372867
1772025779669831200,4.6098310546875,-0.8822498677641153,0.12607917964830995,0.3783608730636537
1772025779679829200,4.619829345703125,-0.7668675848275422,0.1883120561994612,0.25383900585994124
1772025779689826300,4.629826416015625,-0.5680763663202524,0.29088994875103236,0.0773057963900268
1772025779699823000,4.639822998046875,-0.3443634725242853,0.48325464134216306,-0.04941964527256786
1772025779709821200,4.6498212890625,-0.23845512037575242,0.6600615531869233,-0.12869104264713824
1772025779719818200,4.659818359375,-0.07096212645173072,0.7487485752910376,-0.28353242559507486
1772025779729815300,4.669815185546875,0.26825638439953325,0.7089785826995968,-0.3488110265176743
1772025779739813400,4.6798134765625,0.6632341918736696,0.5970638297431171,-0.376549805053696
1772025779749810200,4.68981005859375,0.9846657016217708,0.4854517129950225,-0.3665684362001717
1772025779759807200,4.69980712890625,1.1715963864654302,0.33507322774007914,-0.16067264638468623
1772025779769805300,4.709805419921875,1.2653478523522614,0.15102861972674728,0.17302710104510188
1772025779779802400,4.71980224609375,1.3469476926743984,-0.012895137408375739,0.4386016990147531
1772025779789799200,4.729799072265625,1.2762439248979092,-0.153285751003772,0.6350125251915305
1772025779799797200,4.73979736328125,1.1696692177951336,-0.2970695141687989,0.9086504564989357
1772025779809794300,4.749794189453125,1.0273480745285748,-0.5008242003023624,1.1107368440940975
1772025779819791400,4.759791259765625,0.8780693672090768,-0.6542188185080885,1.2730726013854146
1772025779829789200,4.7697890625,0.7088584634512662,-0.7567217461273074,1.4382637481078504
1772025779839786200,4.7797861328125,0.5778577556222677,-0.8242452764324844,1.5755191324174402
1772025779849783300,4.789783203125,0.49181321085095403,-0.7832214843876659,1.6123679768651722
1772025779859781400,4.799781494140625,0.37278994106352326,-0.7403063256382941,1.5022211103640495
1772025779869778200,4.809778076171875,0.10050210919082164,-0.7344051387704909,1.2912860112071036
1772025779879776300,4.8197763671875,-0.16679332122206686,-0.6701210287779569,1.011926414317265
1772025779889773000,4.82977294921875,-0.3269920664846897,-0.4518842283055186,0.7774418780729174
1772025779899770400,4.839770263671875,-0.5731009164839983,-0.11452698128148912,0.593791493541561
1772025779909768400,4.8497685546875,-0.8761194021850823,0.21470511921495197,0.4908817386871204
1772025779919765200,4.85976513671875,-1.1158201387077569,0.4265804218314588,0.4173676261976361
1772025779929762000,4.869761962890625,-1.1063187353909014,0.5853966266945004,0.29182050759941336
1772025779939760000,4.879760009765625,-0.9491150802910328,0.692864775505662,0.1105532188123092
1772025779949757400,4.88975732421875,-0.7475713482052088,0.7670107926905154,-0.01000778193641454
1772025779959754200,4.899754150390625,-0.5215729738205671,0.7833573857270181,-0.016822795713506637
1772025779969752300,4.90975244140625,-0.17965104922950267,0.7734405334770679,-0.0041967941027134656
1772025779979749000,4.9197490234375,0.19350246444940566,0.7687149662598967,0.03782978177648037
1772025779989746400,4.929746337890625,0.5259662403434515,0.7105209898360073,0.08990520225483924
1772025779999744300,4.939744140625,0.6891553995937109,0.6057046707078814,0.24682726393435148
1772025780009741300,4.9497412109375,0.6492407378345727,0.41089565370455383,0.5186676077678799
1772025780019738000,4.959738037109375,0.6734095489293337,0.12507818591222167,0.83689359947294
1772025780029736200,4.969736083984375,0.7908049252539873,-0.14937939121499658,0.9656314769364893
1772025780039733200,4.979733154296875,0.8614496563196182,-0.3371905121549964,1.0012425232175737
1772025780049730300,4.989730224609375,0.8298281911313533,-0.4838175359219312,1.0298016782257706
1772025780059728100,4.99972802734375,0.8037666981577872,-0.6344011883601546,1.172245790284872
1772025780069725200,5.00972509765625,0.7607476406425238,-0.7358617673195899,1.2440507973015307
1772025780079722200,5.01972216796875,0.6305915669441223,-0.7823407560303807,1.3917095022037624
1772025780089720300,5.02972021484375,0.5410492431849241,-0.8158039035625755,1.4716719505824147
1772025780099717000,5.039717041015625,0.508764345651865,-0.8377266892962157,1.411401460145414
1772025780109714200,5.049714111328125,0.47595571650564666,-0.8033226076520978,1.3491817353367805
1772025780119712000,5.0597119140625,0.41580666049122805,-0.6973482045300304,1.1593583977915345
1772025780129709300,5.069709228515625,0.34828269179463384,-0.621083295495063,0.9300810748014599
1772025780139706000,5.0797060546875,0.23671207610070705,-0.5436715545125306,0.7937399557925761
1772025780149704200,5.0897041015625,0.037976387172937394,-0.41970030692890287,0.705708401922509
1772025780159701000,5.099700927734375,-0.10803484278321265,-0.3195924577526748,0.6232498258791863
1772025780169698300,5.1096982421875,-0.23811200602650642,-0.1835911651574075,0.5123626624047756
1772025780179696400,5.1196962890625,-0.39771453896164893,-0.09093699298799038,0.3647727849550545
1772025780189693200,5.129693115234375,-0.5196458051502705,-0.016236995182186364,0.2470508070245385
1772025780199690200,5.139690185546875,-0.5787076504498719,0.021076836428791282,0.06632493163775652
1772025780209688000,5.14968798828125,-0.5490104313224554,0.059958794139325616,-0.08510529115982353
1772025780219685400,5.159685302734375,-0.5372627103835343,0.08465119071677327,-0.18416385047882794
1772025780229682200,5.16968212890625,-0.5155167425215244,0.09327171954587102,-0.24841062413565812
1772025780239680300,5.17968017578125,-0.42718379455208777,0.08087401026561855,-0.31510753089096394
1772025780249677000,5.189677001953125,-0.3615981004416942,0.07516893049180508,-0.2586578043185174
1772025780259674400,5.19967431640625,-0.3146253368645906,0.04400865307450294,-0.18368090753378347
1772025780269672200,5.209672119140625,-0.2344055527240038,0.009948124171048402,-0.0752495214473456
1772025780279669200,5.219669189453125,-0.1555985579907894,-0.05223945193365216,0.04566895096953958
1772025780289666000,5.229666015625,-0.05607376939952373,-0.11115662806555628,0.12963215942215173
1772025780299664400,5.239664306640625,0.0221381820499897,-0.2146330768920481,0.2708522643779404
1772025780309661200,5.2496611328125,0.08080372150838375,-0.3762121705971658,0.4395836227241903
1772025780319659300,5.2596591796875,0.11188275038301944,-0.45297421549931166,0.5315251165796071
1772025780329656000,5.269656005859375,0.0694119744002819,-0.38203196279183027,0.5661106922704726
1772025780339653400,5.2796533203125,0.031276012751460074,-0.3501084459170699,0.5738927975140512
1772025780349651500,5.2896513671875,0.0152104286134243,-0.4405817669160664,0.567286384986341
1772025780359648300,5.299648193359375,-0.06364449691474437,-0.5234684321783483,0.5087790317643434
1772025780369645000,5.30964501953125,-0.13306933079659938,-0.49299146085008977,0.47594336848072705
1772025780379643100,5.31964306640625,-0.15172376238405705,-0.39205753611326216,0.4080487398408353
1772025780389640400,5.329640380859375,-0.18002689680457115,-0.3694759942099452,0.3220922386791557
1772025780399636200,5.33963623046875,-0.17185644983053205,-0.42795901670828457,0.31030557396933434
1772025780409633300,5.34963330078125,-0.17848785066902637,-0.48699280495718117,0.3790285797247663
1772025780419631400,5.35963134765625,-0.19398761761784553,-0.48036797998994585,0.4985125988917425
1772025780429628200,5.369628173828125,-0.1820323914080858,-0.41605099064111706,0.485122627171129
1772025780439625200,5.379625244140625,-0.21250702464878557,-0.47277825551331043,0.5238463255800306
1772025780449623000,5.389623046875,-0.3128010440468788,-0.5236940576277673,0.619772212896496
1772025780459620400,5.399620361328125,-0.46210254772007464,-0.49867403653115033,0.6952002327159047
1772025780469617200,5.4096171875,-0.4263444211184978,-0.45666561736315486,0.7086655712276697
1772025780479615200,5.419615234375,-0.4137579112678766,-0.3960619494490325,0.7011202704146504
1772025780489612300,5.4296123046875,-0.48575054981112475,-0.2352468258537352,0.5983623451210558
1772025780499609300,5.439609375,-0.47401861096322534,-0.01396846572831273,0.4790802052017301
1772025780509607400,5.449607421875,-0.4348667502701282,0.16361907510012388,0.3743509798351675
1772025780519604200,5.459604248046875,-0.4242617696255445,0.3118139327056706,0.26241664539538323
1772025780529601300,5.469601318359375,-0.3833341314315796,0.43486061279028654,0.19891849814876914
1772025780539599000,5.47959912109375,-0.2602946117401123,0.6034783729605376,0.09502133969217538
1772025780549596400,5.489596435546875,-0.10019757328629493,0.6977446565017104,0.02408675883449614
1772025780559593200,5.49959326171875,-0.053424131673574446,0.6568722556263208,-0.015386223571747541
1772025780569591300,5.50959130859375,-0.0870101749330759,0.6316890067920088,0.012685001789033413
1772025780579588000,5.519588134765625,-0.11121288829743861,0.64540393615067,0.1159249384459108
1772025780589585400,5.52958544921875,-0.12268062325119972,0.6623389965996146,0.2001807001043111
1772025780599583200,5.539583251953125,-0.06266834535896777,0.6823658855840563,0.23404029960818587
1772025780609580300,5.549580322265625,0.0453787723839283,0.7135621110975742,0.21856500951349733
1772025780619577000,5.5595771484375,0.14241349772512912,0.7197042671144008,0.22208434274606406
1772025780629575200,5.5695751953125,0.20765373939871787,0.7092316806778312,0.2279228396411985
1772025780639572500,5.579572509765625,0.26152503031790253,0.696704792059958,0.2626080032490194
1772025780649569300,5.5895693359375,0.32672844711244103,0.718961632053554,0.2895671757146716
1772025780659567400,5.5995673828125,0.3897796543091535,0.7708309355005621,0.31879816556982693
1772025780669564200,5.609564208984375,0.38817981789708134,0.8057812528505921,0.31317988729663193
1772025780679561500,5.6195615234375,0.3452519457966089,0.8215063529878854,0.27533341011367735
1772025780689559300,5.629559326171875,0.32999007925689217,0.8173270214766264,0.25304580965563656
1772025780699556400,5.639556396484375,0.36526013008058067,0.7914332862854003,0.26337544395755974
1772025780709553200,5.64955322265625,0.42197219738364217,0.7315957804381847,0.24399295382387934
1772025780719551200,5.65955126953125,0.4054413338214159,0.671717358058691,0.21840375453718006
1772025780729548300,5.66954833984375,0.38720249729752537,0.6329669177733361,0.19095347408633678
1772025780739546400,5.67954638671875,0.3825105400890112,0.5381516220472753,0.2233126424320042
1772025780749543200,5.689543212890625,0.3665437401503324,0.4006821565955877,0.25974830296896395
1772025780759540200,5.699540283203125,0.3260416338920593,0.28924291219636794,0.25319522806368766
1772025780769538000,5.7095380859375,0.26623510770499703,0.23639190423563122,0.19665493713095783
1772025780779535400,5.719535400390625,0.2512438748002052,0.17962459961399435,0.13570925084613264
1772025780789532200,5.7295322265625,0.2268359942525625,0.07746522473543882,0.08437021835092455
1772025780799530200,5.7395302734375,0.19355156428813933,-0.03982259956151247,0.055946380160190164
1772025780809527000,5.749527099609375,0.129653384873271,-0.14819544212743638,0.027851993119530377
1772025780819524400,5.7595244140625,0.07903554279208183,-0.2130235958687961,-0.01972783297263086
1772025780829522400,5.7695224609375,0.01240706163048744,-0.24429595535844564,-0.04406871269866824
1772025780839519200,5.779519287109375,-0.008668459624052048,-0.2856485409662127,-0.09633191083408892
1772025780849516000,5.78951611328125,0.03896656725406646,-0.31660277441740037,-0.164436675093323
1772025780859514000,5.79951416015625,0.08750117332041263,-0.30258886211216446,-0.2028604955065064
1772025780869511400,5.809511474609375,0.1111176112294197,-0.2584758718803525,-0.22279577895104885
1772025780879508200,5.81950830078125,0.1563444079220295,-0.26426921445950863,-0.20803828173689543
1772025780889506300,5.82950634765625,0.2090115837484598,-0.2715909356497228,-0.21284869595961645
1772025780899503000,5.839503173828125,0.24246201792955396,-0.25794483374357224,-0.22058248681575057
1772025780909500400,5.84950048828125,0.2758709510564804,-0.22830869715362787,-0.21480994956260546
1772025780919498200,5.859498291015625,0.3058253598153591,-0.22920637664571403,-0.22082334636691955
1772025780929495300,5.869495361328125,0.2946083847522735,-0.26175767002999784,-0.22690321426987647
1772025780939492400,5.879492431640625,0.29565935510993,-0.2870519780233502,-0.22057823076574132
1772025780949490400,5.889490478515625,0.31081308510005473,-0.29901158814728257,-0.21519728664606808
1772025780959487200,5.8994873046875,0.2940969280987978,-0.3199798496350646,-0.2174901102909818
1772025780969484300,5.909484375,0.24945056164264678,-0.39607100953832264,-0.2323034293456003
1772025780979482000,5.919482177734375,0.24246260245144366,-0.45710298586711284,-0.21348438178095966
1772025780989479400,5.9294794921875,0.22837796299755572,-0.4825016310177743,-0.16519523837566374
1772025780999476200,5.939476318359375,0.1552624579042196,-0.5204777259297668,-0.08674613543571903
1772025781009476000,5.94947607421875,0.06579787555634975,-0.5937541206732392,-0.025750618659798056
1772025781019473400,5.959473388671875,0.02467792966067791,-0.6634710693694651,-0.0028181626932695506
1772025781029470200,5.96947021484375,-0.04031798186302185,-0.6399532695293426,0.01454728852957487
1772025781039468300,5.97946826171875,-0.1401829621940851,-0.5848182422846555,0.011536270145326852
1772025781049465000,5.989465087890625,-0.2633265267819166,-0.5327887798398733,-0.0178034407813102
1772025781059462400,5.99946240234375,-0.3758510821998119,-0.47768707034289837,-0.037496640831977124
1772025781069460200,6.009460205078125,-0.48047523975670337,-0.41259032879322766,-0.040108613428659734
1772025781079457300,6.019457275390625,-0.6249678818434476,-0.27253376945778723,-0.10585552598275244
1772025781089454000,6.0294541015625,-0.7973638453781604,-0.08774857221022248,-0.19091361699998377
1772025781099452200,6.0394521484375,-0.9468295997023581,0.12333631068095564,-0.30002993487697094
1772025781109449500,6.049449462890625,-1.0698094981610775,0.3447423888392746,-0.40890488174613565
1772025781119446300,6.0594462890625,-1.1286971559375525,0.4564725790090859,-0.4499378800107166
1772025781129444400,6.0694443359375,-1.12446814006567,0.48898383264392614,-0.520540817761235
1772025781139441200,6.079441162109375,-1.0053151064187287,0.5140181745268404,-0.5131031420411541
1772025781149438500,6.0894384765625,-0.9196668674886226,0.5564367819309234,-0.42302525010053066
1772025781159436300,6.099436279296875,-0.7755991728156805,0.6564337180785834,-0.31453309200387447
1772025781169433300,6.109433349609375,-0.7531096931099891,0.7027031556919217,-0.20872166089117525
1772025781179430100,6.11943017578125,-0.734920540946722,0.7267392803177237,-0.1453587939294055
1772025781189428200,6.12942822265625,-0.7312415601730347,0.6764084384843707,0.050249922084249554
1772025781199425300,6.13942529296875,-0.7727753475666046,0.6421103014327585,0.27236356399003414
1772025781209423400,6.14942333984375,-0.7890893535077571,0.6198153213858604,0.4059900537453592
1772025781219420200,6.159420166015625,-0.7105980005949736,0.508436136610806,0.49555542958658183
1772025781229417200,6.169417236328125,-0.5125970556825399,0.3546086799457669,0.6576571223936974
1772025781239415300,6.179415283203125,-0.36383681927919387,0.2690976575292647,0.8855524164408445
1772025781249412400,6.189412353515625,-0.23107845412790773,0.23448387865722178,1.084870289170742
1772025781259409200,6.1994091796875,-0.09054711688756942,0.1790463613346219,1.2400101436085997
1772025781269407200,6.2094072265625,0.012146949389576911,0.148182144254446,1.3387600023046136
1772025781279404300,6.219404296875,0.08509002052545547,0.1583946184501052,1.3795520314201712
1772025781289401300,6.2294013671875,0.20291560496091843,0.20436346568167207,1.3985989694565535
1772025781299399400,6.2393994140625,0.24261048648953437,0.28107611848413944,1.4297194993853568
1772025781309396200,6.249396240234375,0.35079613592028613,0.3661719842284918,1.3784849867105484
1772025781319393300,6.259393310546875,0.6198626676589251,0.46670273499190806,1.318320440866053
1772025781329391400,6.269391357421875,0.8008353208810091,0.5514385352522134,1.3161895663172005
1772025781339388400,6.279388427734375,0.9561685059338807,0.5878527876749634,1.3403037246152758
1772025781349385200,6.28938525390625,1.1505927614033222,0.5715569019123912,1.4258369588635862
1772025781359383300,6.29938330078125,1.2444862661093472,0.5473565266355872,1.5702658880643545
1772025781369380400,6.30938037109375,1.2809873200327158,0.5609630271837115,1.6975073894903063
1772025781379377400,6.31937744140625,1.3129255960851907,0.5243820398919284,1.7686431189432739
1772025781389375200,6.329375244140625,1.3568763814926146,0.47341757633015513,1.837243484699726
1772025781399372300,6.339372314453125,1.2149632345050572,0.3475280740350485,1.9508087813422084
1772025781409369300,6.349369384765625,0.9917992067635059,0.1998359052546322,2.0136846319720147
1772025781419367400,6.359367431640625,0.8901870905041694,0.07751490909606218,2.100393778131902
1772025781429364200,6.3693642578125,0.8307324464946985,-0.03436433415561914,2.116144012710452
1772025781439361300,6.379361328125,0.5766325977414846,-0.07668912579640745,1.9737648556463419
1772025781449359000,6.389359130859375,0.36258711147904393,-0.15365546109899877,1.8374790470212696
1772025781459356400,6.3993564453125,0.3263911779820919,-0.1856757163465023,1.7175144047304987
1772025781469353200,6.409353271484375,0.25005846440792084,-0.09197978003919124,1.6545985143512487
1772025781479351300,6.419351318359375,0.0643014995187521,0.00844677969738841,1.6083347758263349
1772025781489348000,6.42934814453125,-0.07137596794962883,0.0954433644965291,1.4727081617623567
1772025781499345200,6.43934521484375,-0.17290099044740198,0.2294970301553607,1.2270099383905528
1772025781509343200,6.44934326171875,-0.3394803766578436,0.38390915484055876,0.9998098600659518
1772025781519340000,6.459340087890625,-0.5084253229558467,0.47711058562919495,0.852363555805385
1772025781529337000,6.469337158203125,-0.5534808547347784,0.47710620171502227,0.7292057434964925
1772025781539335200,6.479335205078125,-0.5130149888336658,0.5153546838276087,0.6975066830273717
1772025781549332200,6.489332275390625,-0.6037251873284578,0.44814109625443815,0.7027991634123026
1772025781559329000,6.4993291015625,-0.6346808820843696,0.361041781733185,0.635958135478571
1772025781569327000,6.5093271484375,-0.5722434228718281,0.3190376003488898,0.5969337005574256
1772025781579324200,6.51932421875,-0.5018810158789158,0.3090031130686402,0.5855733715008944
1772025781589321200,6.5293212890625,-0.4240630321830511,0.31006738129928707,0.5982766395989805
1772025781599319300,6.5393193359375,-0.3593430149912834,0.2662596576243639,0.649221740873158
1772025781609316000,6.549316162109375,-0.3116588882744312,0.17645634484142064,0.7188655512679368
1772025781619313200,6.559313232421875,-0.26270459549129005,0.08136047860831022,0.7781277414452284
1772025781629311000,6.56931103515625,-0.18727789084613322,-0.008205226026475429,0.7809267975792288
1772025781639308300,6.579308349609375,-0.0320417364269495,-0.10282587596327065,0.7585971846103667
1772025781649305000,6.58930517578125,0.11320669246315955,-0.2205637821152806,0.7692880899727345
1772025781659303200,6.59930322265625,0.20035832169353962,-0.3405398225829005,0.8001075911283493
1772025781669300000,6.609300048828125,0.2509311555892229,-0.439851406814903,0.8127109790485352
1772025781679297300,6.61929736328125,0.30376316658854485,-0.5131546895653009,0.8018827841073274
1772025781689295000,6.629295166015625,0.3344686859756708,-0.5710165114253759,0.799124644505605
1772025781699292200,6.639292236328125,0.3141986358851194,-0.6687047322392463,0.7715238131355494
1772025781709289000,6.6492890625,0.3477648054003715,-0.7755950811624527,0.7217269320484251
1772025781719287000,6.659287109375,0.38288697218596934,-0.8493588210314512,0.7643151238657534
1772025781729284000,6.6692841796875,0.3617494916111231,-0.9041199003972112,0.8469931878786534
1772025781739282200,6.6792822265625,0.39103403828442096,-0.8912155567690729,0.8703001945123076
1772025781749279200,6.689279296875,0.39439737723767754,-0.8573281924754381,0.8593478617347776
1772025781759276000,6.699276123046875,0.3454647117644548,-0.853134978569299,0.8467243078093976
1772025781769274000,6.709274169921875,0.2722235344648361,-0.8655594297260045,0.9166312261197715
1772025781779271200,6.719271240234375,0.23793255780637262,-0.8914344602167605,0.9136091748848557
1772025781789268200,6.729268310546875,0.2823182274997234,-0.8715797129288315,0.8384081687543541
1772025781799266000,6.73926611328125,0.327069807896018,-0.8178677042245864,0.7700003298953175
1772025781809263000,6.74926318359375,0.3222393189996481,-0.7678370143815875,0.7216765901006758
1772025781819260200,6.75926025390625,0.32791794915795325,-0.7566517496310174,0.6796943282872439
1772025781829258200,6.76925830078125,0.3098509620696306,-0.7500773396767676,0.6611754327129572
1772025781839255000,6.779255126953125,0.23868951365351676,-0.7344022161610424,0.6733624218519777
1772025781849252000,6.789252197265625,0.22672961126863955,-0.7322207804687321,0.6748592362809925
1772025781859250200,6.799250244140625,0.2104495075970888,-0.7266849197819829,0.6604550094839186
1772025781869247200,6.809247314453125,0.16050620377659797,-0.7204635610491037,0.6656356269922107
1772025781879244000,6.819244140625,0.1402712249994278,-0.6683898210711777,0.6708467857692391
1772025781889242000,6.8292421875,0.15651976448893545,-0.6262105753809213,0.6769077663086355
1772025781899239200,6.8392392578125,0.12827099060416222,-0.6351797715172172,0.6752206169392914
1772025781909236200,6.849236328125,0.05176408950686454,-0.616315496571362,0.6852825036831199
1772025781919234000,6.859234130859375,-0.008508300626277924,-0.549331918361783,0.6680781978387386
1772025781929231000,6.869231201171875,-0.07244388944208621,-0.4904609194591641,0.6486595769457518
1772025781939228200,6.879228271484375,-0.16025953553915023,-0.4855231707960367,0.6253423411790281
1772025781949226200,6.889226318359375,-0.20193886888325213,-0.5123290523961186,0.610301460446231
1772025781959223000,6.89922314453125,-0.25047464399337765,-0.4402423058286309,0.5934343141343444
1772025781969220000,6.90922021484375,-0.27896599446237086,-0.28644875143319365,0.5296230458179488
1772025781979218200,6.91921826171875,-0.27625205932855607,-0.15097878923565147,0.45401386074535544
1772025781989215200,6.92921533203125,-0.2823316715031862,-0.07693184851109981,0.37455921575836837
1772025781999212000,6.9392119140625,-0.28649112927019593,-0.0436249144539237,0.32838447069115934
1772025782009210000,6.949210205078125,-0.3341062824040651,-0.016712942130863665,0.32133864383287725
1772025782019207200,6.959207275390625,-0.3864958103328943,0.009672375969588755,0.34567660094946623
1772025782029204200,6.969204345703125,-0.4017582613945007,0.009665361706912517,0.37252913470286875
1772025782039202300,6.979202392578125,-0.41958267189860343,-0.0027642040163278576,0.4433260971881449
1772025782049199000,6.98919921875,-0.47702597608566283,-0.017569851221144198,0.5715015184633433
1772025782059196200,6.999196044921875,-0.5492372258156538,0.013610007679462433,0.6599888532768935
1772025782069194000,7.009194091796875,-0.5741513023197651,0.05061228912323713,0.7191949293527752
1772025782079191300,7.01919140625,-0.6376590211123228,0.10184446371048689,0.7218420097954571
1772025782089188000,7.02918798828125,-0.70411448379457,0.2102151143193245,0.6724868080612272
1772025782099186200,7.039186279296875,-0.706473614141345,0.3934355464681983,0.6116970795230939
1772025782109183000,7.049182861328125,-0.6580605886280536,0.5830336969554424,0.548732710359618
1772025782119180300,7.05918017578125,-0.5828238535970449,0.7240890580698848,0.4957123737139627
1772025782129178000,7.06917822265625,-0.5424339755415916,0.8133166167914867,0.4557474796049297
1772025782139175200,7.079175048828125,-0.5811480293393134,0.8811585653960704,0.431845612350665
1772025782149172000,7.089171875,-0.624185791555047,0.8869079227030277,0.43992180516999213
1772025782159170000,7.099170166015625,-0.6276894157618284,0.9201245481282472,0.42717641496323044
1772025782169167000,7.1091669921875,-0.6157926417410373,0.9874015563264489,0.37660957241691645
1772025782179164200,7.1191640625,-0.554731147056818,1.0137699232921005,0.36419666556753216
1772025782189162200,7.129162353515625,-0.5197188703864812,0.9585878420352936,0.35948501727785914
1772025782199159000,7.139158935546875,-0.47690731814205645,0.9520566867008805,0.32216234477329997
1772025782209156000,7.149156005859375,-0.36280396910011764,0.9995584425881504,0.32044403308071195
1772025782219154200,7.159154296875,-0.2567202603846788,0.9706742934092879,0.36423429416418074
1772025782229151200,7.169151123046875,-0.12745967422127724,0.8703492943510412,0.4217575317196548
1772025782239148000,7.17914794921875,-0.0037643209695816036,0.7977998987078666,0.45079036865420635
1772025782249146000,7.18914599609375,0.07849486004412173,0.792679779215157,0.46737570235002784
1772025782259143200,7.19914306640625,0.13993629395663737,0.783791247099638,0.5172843001833185
1772025782269140200,7.20914013671875,0.2945931871831417,0.8137278279408812,0.5256856333037838
1772025782279138000,7.219137939453125,0.3239531371802091,0.8780600148588419,0.46947066533528264
1772025782289135000,7.229135009765625,0.25366964064240455,0.9021627749800681,0.5174452263660728
1772025782299132200,7.239132080078125,0.22680852172374724,0.89135175036937,0.4341519895968958
1772025782309130200,7.249130126953125,0.2943926961749792,0.8892486406102776,0.3075611706320196
1772025782319127000,7.259126953125,0.4009036903917789,0.8852183621808886,0.15708295132964847
1772025782329125000,7.269125,0.4716811079263687,0.8413628538414836,0.004356708788604009
1772025782339122200,7.2791220703125,0.49603871959149837,0.8186492099910974,-0.08332982418620959
1772025782349119200,7.289119140625,0.596158551466465,0.7749182048141956,-0.09782320883776992
1772025782359117000,7.299116943359375,0.6557008737593889,0.73571695202142,-0.10077534577478654
1772025782369114000,7.309114013671875,0.64504971588552,0.6109875795468688,-0.11533440694054588
1772025782379111200,7.319111083984375,0.690772187140584,0.45771308058947324,-0.13202096338798291
1772025782389109200,7.329109130859375,0.6984972284346819,0.36452538606524465,-0.14916079829456283
1772025782399106000,7.33910595703125,0.6504156268328428,0.27772651579529045,-0.16755341887436806
1772025782409103000,7.34910302734375,0.6610679537504911,0.13785568829029798,-0.1477131202368997
1772025782419101200,7.35910107421875,0.6904477774918079,0.008802899658679962,-0.08449457538295536
1772025782429098200,7.36909814453125,0.6561287437826394,-0.04338233786970377,-0.09181204965631477
1772025782439095300,7.37909521484375,0.6418932976812124,-0.03979161990135908,-0.0594486709264107
1772025782449093000,7.389093017578125,0.6337509077578782,-0.0793289727807045,-0.06571896510124206
1772025782459090200,7.399090087890625,0.6326391471236944,-0.10951982064396143,-0.14297798147378488
1772025782469087200,7.409087158203125,0.6138543671548367,-0.1262368544280529,-0.1369447291915305
1772025782479085300,7.419085205078125,0.5656985312730074,-0.10312748925834894,-0.14607949115308
1772025782489082000,7.42908203125,0.6003022271424532,-0.047587680605053896,-0.19949651723243295
1772025782499079000,7.439078857421875,0.6874450885444879,0.011602174988389015,-0.2764180818115361
1772025782509077000,7.449076904296875,0.7446084067463874,0.024090485161542892,-0.30932551342342046
1772025782519074000,7.459073974609375,0.7131067685455084,0.008105565044283867,-0.29278299595601853
1772025782529071000,7.469071044921875,0.6658598642021417,0.010358312407135964,-0.26829794025262815
1772025782539069000,7.47906884765625,0.5837737016677856,-0.024376608626544474,-0.24049795131497084
1772025782549066000,7.48906591796875,0.5075111307203769,-0.12647095544487238,-0.22407403699224812
1772025782559063000,7.49906298828125,0.4289548958778381,-0.26175737776905295,-0.19864980074260383
1772025782569061000,7.50906103515625,0.3642459846019745,-0.35984774964302774,-0.20972712987298145
1772025782579058000,7.519057861328125,0.2955360209912061,-0.4155667142555117,-0.24750792140858247
1772025782589055000,7.529054931640625,0.22947920223772525,-0.511998213006556,-0.26118240915900093
1772025782599052800,7.539052734375,0.13326982180476188,-0.6412941627442836,-0.2689514722579159
1772025782609050000,7.549050048828125,0.025284078860282895,-0.7448848856002092,-0.2645037173351273
1772025782619047000,7.559046875,-0.06771569187641144,-0.804597303763032,-0.2748137336211279
1772025782629045000,7.569044921875,-0.1855576429247856,-0.8577101775303483,-0.29496753692086786
1772025782639041800,7.579041748046875,-0.3255488819390535,-0.9035138973280787,-0.3319147637091577
1772025782649039000,7.5890390625,-0.4182026157170534,-0.9442042196348309,-0.3955590414281934
1772025782659037200,7.599037109375,-0.4525654885679483,-0.9424588372722268,-0.4367428828729316
1772025782669034000,7.609033935546875,-0.5070680631279945,-0.9145736360028386,-0.4425243158185854
1772025782679031000,7.619031005859375,-0.5785404771894216,-0.8632438462600112,-0.4530729631660506
1772025782689028900,7.62902880859375,-0.5642138456732034,-0.7719491258755325,-0.5077124254461377
1772025782699026200,7.639026123046875,-0.6117319681733846,-0.6835930892914533,-0.5181467256989329
1772025782709023000,7.64902294921875,-0.7802087124377488,-0.648719928830862,-0.49989006125740704
1772025782719021000,7.65902099609375,-0.7584984004110098,-0.5955354511320591,-0.5082842339847237
1772025782729017900,7.669017822265625,-0.6560562630683183,-0.5011231832489371,-0.4898882706703618
1772025782739015200,7.67901513671875,-0.6303764628887176,-0.4926084528818726,-0.41087493971008804
1772025782749013000,7.689012939453125,-0.6092062490880489,-0.6205033036500215,-0.34453126683924346
1772025782759010000,7.699010009765625,-0.6353875690490007,-0.6195256907895207,-0.2669093537047505
1772025782769006800,7.7090068359375,-0.6958230407893657,-0.4081818647012114,-0.10715626985039561
1772025782779005000,7.7190048828125,-0.6766793643802405,-0.3823196936920285,0.05521517980881035
1772025782789002000,7.729001953125,-0.6239847160249948,-0.5008730078801512,0.17361319383736698
1772025782798999000,7.7389990234375,-0.6679547906547785,-0.41605011385828256,0.2623713449489325
1772025782808996900,7.748996826171875,-0.6841039614230394,-0.17555998052358626,0.32605949834231285
1772025782818994000,7.758993896484375,-0.6239630887150764,-0.03774140937328339,0.3891184139214456
1772025782828991000,7.768990966796875,-0.5389467179477214,-0.03634703240543604,0.4521036797424778
1772025782838989000,7.778989013671875,-0.49382455067336556,-0.03381020740419626,0.5111281887063757
1772025782848985900,7.78898583984375,-0.4924713824987411,-0.006349661287665367,0.5339898627253249
1772025782858984000,7.79898388671875,-0.4654208784878254,0.03704875093400478,0.457817673475109
1772025782868981200,7.808981201171875,-0.4765396538734436,0.05823474682569504,0.4256947250381112
1772025782878978000,7.81897802734375,-0.5283592729598283,0.05419336248040199,0.4588897231534123
1772025782888976100,7.82897607421875,-0.5742419032126664,0.01729278784543276,0.5498052349619567
1772025782898973000,7.838972900390625,-0.534294508227706,-0.013917173932492732,0.6538626254815608
1772025782908970200,7.84897021484375,-0.4961217216998338,0.11339490851163864,0.7187829875510185
1772025782918968000,7.858968017578125,-0.4668833522558212,0.2841787606745958,0.7266392540093511
1772025782928965000,7.868965087890625,-0.36652035927474497,0.4300207715436816,0.7019031644206494
1772025782938962000,7.8789619140625,-0.20219488947093486,0.5332110969051719,0.6841339181698858
1772025782948960000,7.8889599609375,-0.01101765309870243,0.6282473419055342,0.6653853785581887
1772025782958957000,7.89895703125,0.12381927189230918,0.8008937730699777,0.6499615263897925
1772025782968954000,7.9089541015625,0.31761399728655815,0.9956038597434759,0.6467250286865979
1772025782978952000,7.918951904296875,0.5643196441352367,1.1307163868054746,0.563485531398654
1772025782988949000,7.928948974609375,0.8088724968641996,1.1436354896113277,0.5219903224498034
1772025782998946000,7.938946044921875,1.0105576832473278,1.082807803682983,0.5084362096760422
1772025783008944000,7.948944091796875,1.1267138731658457,1.005467374370992,0.6438234620261937
1772025783018941000,7.95894091796875,1.089122685918212,0.9902835415035486,0.8258281617097556
1772025783028938000,7.96893798828125,1.0812766485929488,0.9323343336209654,0.9390719713129103
1772025783038935800,7.978935791015625,1.0438204859018325,0.8204708724603056,1.0527346639152615
1772025783048933000,7.98893310546875,0.891346197411418,0.6432616634249687,1.1160934757564216
1772025783058930000,7.998929931640625,0.8153425696611404,0.4346241736859083,1.1403797026857734
1772025783068928000,8.008927978515626,0.7675918074488639,0.26284634204953905,1.2206987824823707
1772025783078925000,8.018925048828125,0.6613789193958044,0.16997955004274845,1.2860779211699962
1772025783088922000,8.028922119140624,0.5015419931828975,0.10328647921234368,1.3561993590138852
1772025783098920200,8.038920166015625,0.311935367128253,0.10168108984231948,1.3928456666268407
1772025783108917000,8.0489169921875,0.1801245119601488,0.3175654819697141,1.302821112308651
1772025783118914000,8.0589140625,-0.007046411380171776,0.6136006846547126,1.231900048519671
1772025783128912000,8.068911865234375,-0.2617547474205494,0.7723129907518624,1.0453664732348174
1772025783138909200,8.0789091796875,-0.33389117834866044,0.8658595817163586,0.7192108575742692
1772025783148906000,8.088906005859375,-0.2873948001116514,0.9832873990058898,0.5920969280507415
1772025783158904000,8.098904052734374,-0.1511936010301113,1.109163895688951,0.5387463000047952
1772025783168900900,8.10890087890625,-0.0020037410378456115,1.1405153117641806,0.5252766506440937
1772025783178898200,8.118898193359374,0.026671149304509163,1.10910047506392,0.4553133990366012
1772025783188896000,8.12889599609375,0.14886135869026182,1.0405557850174605,0.32276027413383124
1772025783198893000,8.13889306640625,0.3923924671560526,0.916809139969945,0.3394854912243783
1772025783208889900,8.148889892578126,0.5487678547382354,0.7429688228458166,0.39165721168406303
1772025783218888000,8.158887939453125,0.6055594170182943,0.5361489039227366,0.5174366777334362
1772025783228885000,8.168885009765624,0.6854740807324647,0.2950860852666199,0.7035548771504312
1772025783238882000,8.178882080078125,0.8499369131803513,0.04098170646876097,0.8503175099957734
1772025783248879900,8.1888798828125,0.8946148438185453,-0.1967053521439433,0.8825386215776204
1772025783258877000,8.198876953125,0.8207435519218444,-0.45474356325939297,0.9249786370959132
1772025783268874000,8.2088740234375,0.7830453971683978,-0.6918325098484754,1.063573818641901
1772025783278872000,8.2188720703125,0.6840624603688716,-0.867814369045943,1.239950230114907
1772025783288868900,8.228868896484375,0.5733446621119975,-0.9820163561567664,1.3795995238237082
1772025783298866000,8.238865966796874,0.524747512203455,-1.050103950085491,1.4224389869883656
1772025783308864000,8.248864013671875,0.5228735350251198,-1.0758356265828013,1.3396484755769371
1772025783318861000,8.258861083984375,0.4327291537195444,-1.1371129559747875,1.2741788090616464
1772025783328857900,8.26885791015625,0.295131531843543,-1.1412389498636126,1.1917138032775372
1772025783338856000,8.27885595703125,0.22046119852364063,-1.052490114569664,1.0394967774838209
1772025783348853000,8.28885302734375,0.16696049448251724,-0.945918768467754,0.8789427159775048
1772025783358850000,8.29885009765625,0.054015083304047584,-0.8427969782978296,0.7575496483188122
1772025783368848100,8.30884814453125,-0.08114391324818133,-0.7315620242990553,0.7138057105951011
1772025783378845000,8.318844970703125,-0.1607137090474367,-0.6421167311735451,0.6661927494183182
1772025783388842000,8.328842041015625,-0.16537351755201815,-0.5591854961171746,0.5800990317430347
1772025783398840000,8.338840087890626,-0.3556570199549198,-0.5584089587867259,0.5559517018277198
1772025783408837000,8.348837158203125,-0.5476408965349197,-0.561847993324697,0.5415248978726566
1772025783418835000,8.3588349609375,-0.5517401485472917,-0.5186030180990696,0.5732768575727939
1772025783428832000,8.36883203125,-0.5904939498335122,-0.4518567557767033,0.6261846372220665
1772025783438829000,8.3788291015625,-0.5745014309316874,-0.439429966532439,0.6309985403098166
1772025783448827100,8.3888271484375,-0.45927053916454313,-0.4375046975582838,0.604544540887326
1772025783458824000,8.398823974609375,-0.4056149368226528,-0.4636741809509694,0.6167077107593417
1772025783468821000,8.408821044921876,-0.3867459857016802,-0.5157810925461351,0.6761332748048007
1772025783478819000,8.418819091796875,-0.41793490469157696,-0.5840820369645953,0.8419521249715238
1772025783488816000,8.428816162109374,-0.48351066192984576,-0.7142819498047233,1.0674649808615446
1772025783498813200,8.438813232421875,-0.5657984845161438,-0.9484630461230874,1.2761679370522498
1772025783508811300,8.448811279296875,-0.6716244190782308,-1.2434313502289354,1.4975564795538783
1772025783518808300,8.458808349609376,-0.8825549881905317,-1.4220225151419639,1.6032929822668431
1772025783528805400,8.468805419921875,-1.1843635135799646,-1.1694352629087865,1.5608148997604847
1772025783538803500,8.478803466796874,-1.3365087162464857,-0.7127988716401159,1.3844627459459007
1772025783548800300,8.48880029296875,-1.3374433667480945,-0.5195002591997385,1.0887073100503533
1772025783558797300,8.49879736328125,-1.3106032906174658,-0.5104281872108578,0.7649490378551185
1772025783568795100,8.508795166015625,-1.3134990120589731,-0.3476103454910219,0.5158940879339352
1772025783578792400,8.51879248046875,-1.1404413697451352,0.03668020988255739,0.2720094898553565
1772025783588789200,8.528789306640626,-0.9316548269242048,0.3905982772156596,0.11162271120734513
1772025783598787300,8.538787353515625,-0.9039911594510078,0.507907290431112,-0.04565189023688435
1772025783608784100,8.5487841796875,-0.8553314657002687,0.48597939013093705,-0.22467837782725691
1772025783618781400,8.558781494140625,-0.8738549643844365,0.5409611265100538,-0.3270696982981637
1772025783628779300,8.568779296875,-0.9671686233758926,0.6946693407095968,-0.3514791132157668
1772025783638776300,8.5787763671875,-1.0681623154759405,0.8213063003711402,-0.3745588869648054
1772025783648773000,8.588773193359375,-1.0498685338944196,0.8691295432977378,-0.49798568894080814
1772025783658771200,8.598771240234376,-0.9058212974876165,0.896406549540907,-0.6784728967335075
1772025783668768300,8.608768310546875,-0.7644722141236067,0.9977823728263377,-0.8542433051373809
1772025783678765300,8.618765380859376,-0.6214356160640716,1.2063419750235973,-1.0122605416424573
1772025783688763400,8.628763427734375,-0.3472036643862724,1.368208653498441,-1.1049674669124185
1772025783698760200,8.63876025390625,-0.009628829088807106,1.3825857000276445,-1.1148011709235608
1772025783708757200,8.64875732421875,0.3721089730620384,1.2478403988428413,-1.1402034693360328
1772025783718755300,8.65875537109375,0.6832154881507158,1.1178835009783505,-1.1488975017927587
1772025783728752400,8.66875244140625,0.8899427603542804,1.006677919204533,-1.1206539155397564
1772025783738749200,8.678749267578125,0.9654939681619406,0.7951768567278981,-1.00046145584248
1772025783748747300,8.688747314453124,0.9004097938328981,0.5801265773370862,-0.9373582992628217
1772025783758744300,8.698744384765625,0.7701058360964059,0.4354099172361195,-0.9152641755502671
1772025783768741400,8.708741455078124,0.6677613139092922,0.32446254800707097,-0.8616806155312806
1772025783778739200,8.7187392578125,0.5361462735742331,0.18019041680321096,-0.7362335232414304
1772025783788736300,8.728736328125,0.464940401494503,0.01188143032118678,-0.5962908726092427
1772025783798733300,8.7387333984375,0.3856505916804075,-0.14434052026495336,-0.530634378284961
1772025783808731400,8.7487314453125,0.3548684999257326,-0.23583938491940498,-0.6098142979837954
1772025783818728200,8.758728271484374,0.3887222542107105,-0.2485965751618147,-0.6835783301137387
1772025783828725200,8.768725341796875,0.4044330335617065,-0.2501341599926352,-0.7134473986767232
1772025783838723000,8.77872314453125,0.30984628589451313,-0.22808920918405054,-0.7156000466659664
1772025783848720400,8.788720458984375,0.18168284731805323,-0.20388123512268067,-0.6700906336396932
1772025783858718200,8.79871826171875,0.08934767796993255,-0.19913477124795317,-0.6829720347836613
1772025783868715300,8.80871533203125,0.09412439085245132,-0.15117445793822407,-0.802732094413042
1772025783878712000,8.818712158203125,0.1358048932403326,-0.09003755993023514,-0.9052033847849815
1772025783888710100,8.828710205078124,0.18278642464578151,0.001520049174129963,-0.9791881469935179
1772025783898707200,8.838707275390625,0.27514205226004124,0.032360008595883845,-0.9596147008650004
1772025783908704300,8.848704345703124,0.3993324955523014,-0.017006664380431174,-0.9614227732002735
1772025783918702300,8.858702392578126,0.4260919076621532,-0.08096256533190607,-0.9563574526347219
1772025783928699100,8.86869921875,0.46291211053729053,-0.15534458322972058,-0.9010711803510785
1772025783938696400,8.878696533203126,0.5253355412244797,-0.28190029434859754,-0.760671506666392
1772025783948694300,8.8886943359375,0.5314917257666587,-0.37771599928885696,-0.5902365410063416
1772025783958691300,8.89869140625,0.5236947882801294,-0.45895606638789177,-0.4911040396682918
1772025783968688000,8.908688232421875,0.5837099887818098,-0.5733331178046762,-0.46876741243675346
1772025783978686200,8.918686279296875,0.6052665715515613,-0.6533085717953742,-0.43900458072721954
1772025783988683300,8.928683349609376,0.5527718296825885,-0.7082832939118147,-0.44049679204635317
1772025783998680300,8.938680419921875,0.5327215598225593,-0.7156444703295827,-0.43030462998636065
1772025784008678100,8.94867822265625,0.5317682046204805,-0.6957252795033156,-0.41264147445857524
1772025784018675200,8.95867529296875,0.5842062478661537,-0.6816527688786387,-0.4177504149701446
1772025784028672300,8.96867236328125,0.6292600260794162,-0.6827148451521993,-0.4120855210762471
1772025784038670300,8.97867041015625,0.6244166777014732,-0.6818203805305063,-0.40707521863356233
1772025784048667100,8.988667236328125,0.6622153702199459,-0.6843433231368661,-0.390775533478707
1772025784058664400,8.99866455078125,0.6495984652310609,-0.6197419638887047,-0.37654644405283033
1772025784068662300,9.008662353515625,0.5118301629632711,-0.5755203987158835,-0.3875757875893265
1772025784078659300,9.018659423828124,0.5178776264339685,-0.5948522911734878,-0.3821428027551621
1772025784088656100,9.02865625,0.5311643935084343,-0.6309509017758071,-0.3893937967967242
1772025784098654200,9.038654296875,0.46648996902406215,-0.6200353938773274,-0.3141417911313474
1772025784108651300,9.0486513671875,0.36626492320895193,-0.6072150752708315,-0.29742746076099574
1772025784118648300,9.0586484375,0.3634387598723173,-0.6452239034086465,-0.2719464710891247
1772025784128646400,9.068646484375,0.3409966264396906,-0.6921408451452851,-0.2532500269908458
1772025784138643200,9.078643310546875,0.20343699848651886,-0.7202005261987448,-0.2314297517836094
1772025784148640300,9.08864013671875,0.10344751499295234,-0.7244840487368405,-0.19089374325573444
1772025784158638300,9.098638427734375,-0.04963292269706726,-0.7333791567236184,-0.12058993458226322
1772025784168635400,9.108635498046874,-0.18505904575288296,-0.7304859195001423,-0.06779701348431408
1772025784178632200,9.118632080078125,-0.35523967132568357,-0.7311435066260397,-0.10131466768272221
1772025784188630300,9.12863037109375,-0.4612357017576694,-0.6780437846012413,-0.0911477861944586
1772025784198627300,9.13862744140625,-0.6087813016742467,-0.6006164076581597,-0.14176891621127724
1772025784208624400,9.148624267578125,-0.7366641697436571,-0.517107372713834,-0.24340222138911485
1772025784218622200,9.158622314453124,-0.7893401133984327,-0.3946794090494513,-0.2698220262810588
1772025784228619300,9.168619384765625,-0.8642518542587757,-0.2739598567381501,-0.27467005083411933
1772025784238616300,9.1786162109375,-0.8554898711323737,-0.19572262471690774,-0.2035426508180797
1772025784248614400,9.188614501953126,-0.7952753486663102,-0.24261224005520343,-0.07964885238483548
1772025784258611200,9.198611083984375,-0.7929606419831514,-0.3324289968416095,0.004286445147544145
1772025784268608300,9.208608154296876,-0.8120464507251978,-0.19670505988299847,0.012354162399470806
1772025784278606000,9.218606201171875,-0.7893208241760731,-0.07489566650837659,0.041571781316399575
1772025784288603400,9.228603271484374,-0.7515221316576004,-0.1825724896341562,0.13811200113892555
1772025784298601200,9.238601318359375,-0.7792103490501642,-0.3423160384751856,0.29213147324472666
1772025784308598300,9.248598388671875,-0.8574550337255,-0.37360929462239145,0.47358328828588125
1772025784318595000,9.258594970703125,-0.953418914964795,-0.33486396890357134,0.5561202633276582
1772025784328593200,9.26859326171875,-0.9761819509148597,-0.28080811519771814,0.5175979327097535
1772025784338590500,9.278590576171876,-0.9599117841154337,-0.2310951130017638,0.4715748710729181
1772025784348587300,9.288587158203125,-1.017049383354187,-0.1478796541765332,0.4242036096975207
1772025784358585300,9.29858544921875,-1.0089695372730494,-0.0460167780265212,0.3659712009593844
1772025784368582100,9.30858203125,-0.9400883087486028,0.07088599247559904,0.32843320520371194
1772025784378579500,9.318579345703125,-0.851574743515253,0.15519173075556755,0.2403304127283394
1772025784388577300,9.328577392578126,-0.6916507235407829,0.27396599421799184,0.16839724928736685
1772025784398572300,9.338572265625,-0.47769934530258173,0.36684988349005576,0.17870061663687228
1772025784408569300,9.3485693359375,-0.24203473242819307,0.4178049947015941,0.13996157452836633
1772025784418567200,9.358567138671875,-0.012535071924328803,0.5045094646863639,0.12352087346762418
1772025784428564200,9.368564208984376,0.2026812116831541,0.6228390531212091,0.1492657017074525
1772025784438561300,9.378561279296875,0.3851613468587398,0.7519488326370716,0.19097528405934572
1772025784448559400,9.388559326171874,0.5585702868282795,0.8475627313949167,0.24210998962149022
1772025784458556200,9.39855615234375,0.7919365596324205,0.8659162803396582,0.24689210933148859
1772025784468553200,9.40855322265625,1.0067296493917703,0.8198489411696791,0.30892654070109127
1772025784478551000,9.418551025390625,1.1645008752465247,0.7060984972186386,0.45064226542040703
1772025784488548400,9.42854833984375,1.2306406961083411,0.5872643202625215,0.5595560829952358
1772025784498545200,9.438545166015626,1.0408382552206517,0.48881373677402734,0.6526522998437285
1772025784508542200,9.448542236328125,1.0346282946646213,0.42839156290665265,0.703113928449899
1772025784518539500,9.45853955078125,1.2314070043057204,0.39344372977465386,0.8743728507786989
1772025784528536300,9.468536376953125,1.1612316443175077,0.30469898613393304,1.1324144228950141
1772025784538534400,9.478534423828124,0.982324691453576,0.1439180570691824,1.3109044655211268
1772025784548531200,9.48853125,0.959873790192604,-0.034820845751464366,1.377295776925981
1772025784558528500,9.498528564453125,0.8268687568038702,-0.2626931973144412,1.4538098384164273
1772025784568526300,9.5085263671875,0.613864888548851,-0.3919397549524903,1.5794849673084914
1772025784578523400,9.5185234375,0.42700259276628494,-0.31020079842060805,1.551266296301037
1772025784588520200,9.528520263671876,0.3043874359667301,-0.21233254486471415,1.5087543115250766
1772025784598518300,9.538518310546875,0.10895429571568965,-0.15130729053765535,1.3979428436353802
1772025784608515300,9.548515380859374,-0.11691022315621376,-0.03007365122437477,1.201478752901405
1772025784618512400,9.558512451171875,-0.30000644440352914,0.1196183130711317,0.9506872980438172
1772025784628510200,9.56851025390625,-0.29775135895311833,0.27328794882595536,0.727552058005333
1772025784638507300,9.57850732421875,-0.263709973141551,0.44898967590779065,0.6291207637391985
1772025784648504300,9.58850439453125,-0.09491524896919727,0.6274895092755556,0.58136444856897
1772025784658502400,9.59850244140625,0.08166179964244365,0.7178495791584253,0.5114366336010396
1772025784668499500,9.60849951171875,0.22502923709154127,0.712767015197128,0.46090983080416914
1772025784678496300,9.618496337890624,0.33985914684236046,0.6417560811676085,0.449062595013529
1772025784688494300,9.628494384765625,0.5378016395658254,0.5505152829274534,0.35495851629674435
1772025784698491400,9.638491455078125,0.735673989662528,0.457042049460113,0.3396891971029341
1772025784708488400,9.648488525390626,0.7841150722265243,0.3293278159558773,0.5009174315437674
1772025784718486300,9.658486328125,0.7259025372326373,0.16973258954435586,0.8176435400798916
1772025784728483300,9.6684833984375,0.680109923350811,-0.026361498833447693,1.004550990178436
1772025784738481400,9.6784814453125,0.6981886008769274,-0.25051366082951426,1.0129428248181938
1772025784748478500,9.688478515625,0.6719990976095199,-0.48575493372529743,1.0182638737104832
1772025784758475300,9.698475341796875,0.6826859113186597,-0.6385442795142531,1.0257637279465794
1772025784768473300,9.708473388671875,0.6343056190311909,-0.7213831601120532,1.1456053283795713
1772025784778470400,9.718470458984376,0.5519669430404901,-0.781762079359591,1.3175228607475757
1772025784788467500,9.728467529296875,0.5005892225027084,-0.8147543945096433,1.3509700800582767
1772025784798465300,9.73846533203125,0.5026444014668464,-0.7958943573474884,1.2991177277460693
1772025784808462300,9.74846240234375,0.4620166230022907,-0.7582567006096244,1.199106763073057
1772025784818459400,9.75845947265625,0.4164420357853174,-0.6959007822006941,1.0996546013265847
1772025784828457500,9.76845751953125,0.4257318421781063,-0.6101176648445427,1.019433794272691
1772025784838454300,9.778454345703125,0.42614159202277657,-0.5320201335549354,0.9553975215613841
1772025784848451300,9.788451416015626,0.39280630865395066,-0.4715548511981964,0.9299345790028571
1772025784858449400,9.798449462890625,0.3740408179074526,-0.40951720495820043,0.9373999464474618
1772025784868446500,9.808446533203124,0.29135610495805736,-0.36766967544034124,0.9502519753664731
1772025784878443300,9.818443359375,0.11787409975230694,-0.3150836020261049,0.9491364153400063
1772025784888441300,9.82844140625,-0.0599397971779108,-0.2741626858338713,0.9169510326586663
1772025784898438400,9.8384384765625,-0.2188900036841631,-0.237571907800436,0.881982887391001
1772025784908435500,9.848435546875,-0.3335463104337454,-0.18368454252928496,0.828910345634073
1772025784918433500,9.85843359375,-0.4114180701434612,-0.11872414071038365,0.7367425687421113
1772025784928430300,9.868430419921875,-0.4800403554707765,-0.05580810420066118,0.6287092603288591
1772025784938427400,9.878427490234374,-0.5571048904508352,0.018922288743406533,0.5643005010433495
1772025784948425200,9.88842529296875,-0.6301262875199317,0.04071019605100155,0.5187481987234205
1772025784958422500,9.898422607421875,-0.6452443616747856,-0.06806757405400275,0.5162589391909539
1772025784968419300,9.90841943359375,-0.6398708519428968,-0.3592987374581396,0.6092470194898545
1772025784978417400,9.91841748046875,-0.6482604946255683,-0.5844216441825032,0.6347377999033779
1772025784988414200,9.928414306640626,-0.7716314382284879,-0.4324281249463558,0.6835762112218886
1772025784998411500,9.93841162109375,-0.856006003960967,-0.33509485504999753,0.787634405459091
1772025785008411400,9.948411376953125,-0.9089379682034253,-0.538742427547276,0.7822828883633017
1772025785018408200,9.958408203125,-1.0208084436267615,-0.7442644156143069,0.7523875163152813
1772025785028405500,9.968405517578125,-1.123296758198738,-0.7365592480644583,0.7218580110821873
1772025785038403300,9.9784033203125,-1.139483338367939,-0.5000881411127746,0.6135189246553927
1772025785048400400,9.988400390625,-1.0975585058301687,-0.19326456404030323,0.4626018755443394
1772025785058397200,9.998397216796874,-1.0186188246279955,0.00945712578371167,0.28003070108443495
1772025785068395300,10.008395263671876,-0.9666635964632033,0.1275984981700778,0.10928718093186617
1772025785078392300,10.018392333984375,-0.8568284262597561,0.27111206609159705,0.038590062091872095
1772025785088389400,10.028389404296876,-0.8002396930754184,0.3813394504830241,-0.025964535405114293
1772025785098387200,10.03838720703125,-0.8054010213613509,0.41625732686817646,-0.28357940654195846
1772025785108384300,10.04838427734375,-0.6843290023505687,0.44488457867652176,-0.38853111555278297
1772025785118382300,10.05838232421875,-0.5661345846027136,0.4981817229695618,-0.5037012535760179
1772025785128379400,10.06837939453125,-0.38421909757256506,0.6170237909711898,-0.5648282512445002
1772025785138376200,10.078376220703126,-0.24226328048706053,0.7416526256807148,-0.5549648827474564
1772025785148374300,10.088374267578125,-0.16476386122107506,0.7778253244325518,-0.5677884892895817
1772025785158371300,10.098371337890624,-0.028556232398748396,0.7453194776251911,-0.5810530810648575
1772025785168368400,10.108368408203125,0.1317827981173992,0.7144147824041545,-0.5492218455834313
1772025785178366500,10.118366455078124,0.25804946316182614,0.6967822412103414,-0.48800833867527543
1772025785188363300,10.12836328125,0.3240110048472881,0.6542777090884745,-0.442594166184403
1772025785198360300,10.1383603515625,0.2978431288897991,0.592854687615484,-0.430763260474056
1772025785208358400,10.1483583984375,0.2480897946834564,0.5477332509934902,-0.4417592131976038
1772025785218355500,10.15835546875,0.2719195830821991,0.551739564025402,-0.49869241243805734
1772025785228352300,10.168352294921876,0.3078776161700487,0.540284688553214,-0.5319085994718596
1772025785238350300,10.178350341796875,0.34141163698136806,0.4810977555692196,-0.5638080778839066
1772025785248347400,10.188347412109374,0.3984586353272199,0.39823856283575293,-0.571247361039184
1772025785258344400,10.198344482421875,0.48619244835972786,0.353741249461472,-0.5839782477965578
1772025785268342300,10.20834228515625,0.5375064560115337,0.3367991747498512,-0.5445478989556432
1772025785278339300,10.21833935546875,0.5528659377068281,0.3863654619514942,-0.5435182636469602
1772025785288336400,10.22833642578125,0.5176110844522714,0.45650545836538076,-0.48389118568003175
1772025785298334500,10.23833447265625,0.39883156029284,0.47593730406612156,-0.40066681289598344
1772025785308331300,10.248331298828125,0.30664193689525127,0.4270806264385581,-0.3464103220514953
1772025785318328300,10.258328369140624,0.33302257882058617,0.4201677783101797,-0.38881343962550163
1772025785328326400,10.268326416015626,0.4013227925866842,0.4665384843409061,-0.46482525068223474
1772025785338323500,10.278323486328125,0.47251580518484115,0.4881809918284416,-0.5352907527234405
1772025785348320300,10.2883203125,0.5427461102306842,0.447375810970366,-0.5104243147533387
1772025785358318300,10.298318359375,0.654540597808361,0.365351023234427,-0.49662631022110576
1772025785368315400,10.3083154296875,0.7386100431144237,0.28329116418510675,-0.5026663941029459
1772025785378312400,10.3183125,0.7438169641077518,0.18003712593764065,-0.448993621430546
1772025785388310500,10.328310546875,0.7187251929491758,0.07228972179368139,-0.3650258829332888
1772025785398307300,10.338307373046876,0.6620680707037448,-0.021885960854589936,-0.23537695503942668
1772025785408304400,10.348304443359375,0.588120206439495,-0.1094284890986979,-0.15276837606616317
1772025785418302200,10.35830224609375,0.5217758029162883,-0.22078122425824404,-0.15239581642672417
1772025785428299500,10.368299560546875,0.47474984784722324,-0.3359067559547722,-0.19240604751482604
1772025785438296300,10.37829638671875,0.4519084859639406,-0.4104993478633463,-0.2048441618707031
1772025785448294400,10.38829443359375,0.4835007250577211,-0.4332878105156123,-0.25146102468222375
1772025785458291200,10.398291259765625,0.5140379021406173,-0.42282443029880523,-0.31360520003661513
1772025785468288500,10.40828857421875,0.5163952789217233,-0.4195300649285316,-0.3541271069739014
1772025785478286300,10.418286376953125,0.49054362930655476,-0.38881183219030496,-0.3894784063402563
1772025785488283400,10.428283447265626,0.4745516949266195,-0.35937034138962626,-0.4087238626234233
1772025785498284800,10.438284912109374,0.5023176537305116,-0.3520709781616926,-0.4272469229161739
1772025785508282600,10.44828271484375,0.5454068538725376,-0.35755218605175615,-0.38975868458636104
1772025785518279700,10.45827978515625,0.5352420182108879,-0.3335352045178413,-0.3713711603067815
1772025785528277800,10.46827783203125,0.48915071364343166,-0.30316856169626116,-0.31676907089501616
1772025785538274800,10.47827490234375,0.41518765181004996,-0.31714842560142276,-0.26781945428699255
1772025785548271600,10.488271728515626,0.36664369339346886,-0.37346272575855255,-0.22151786796972153
1772025785558269700,10.498269775390625,0.2988835778534412,-0.4253152242012322,-0.2200776060335338
1772025785568266800,10.508266845703124,0.20446517249047755,-0.46988194954991336,-0.22214389091357586
1772025785578263800,10.518263916015625,0.14690379488170147,-0.49009208614677185,-0.2147789151035249
1772025785588262000,10.528261962890625,0.09811725988090038,-0.5067423383049666,-0.1777272415600717
1772025785598258700,10.5382587890625,0.004002221378684044,-0.5436737464696169,-0.13854279377162457
1772025785608255700,10.548255859375,-0.10688041205108165,-0.6162457923360168,-0.1276950904123485
1772025785618253800,10.55825390625,-0.2182008523762226,-0.6608155864246189,-0.0650124242670834
1772025785628251000,10.5682509765625,-0.35500410900413987,-0.6372850732333958,-0.029211919828504324
1772025785638247700,10.57824755859375,-0.44200142445564267,-0.6109773504137993,-0.021407968079298734
1772025785648245800,10.588245849609375,-0.508510663151741,-0.5746273953989148,-0.06075447456166148
1772025785658242800,10.598242919921875,-0.5923673424899578,-0.4867322543248534,-0.1309995387852192
1772025785668240000,10.608239990234376,-0.6713087772578,-0.39557533497586844,-0.16111907497793435
1772025785678237700,10.61823779296875,-0.7184791092336177,-0.3997925142794847,-0.08181304468140005
1772025785688234800,10.62823486328125,-0.7826081747949123,-0.5906181607350707,0.08376315583586692
1772025785698231800,10.638231689453125,-0.8952022883176803,-0.7260704411454498,0.1568244465239346
1772025785708230000,10.64822998046875,-1.06808925023973,-0.5036640999034047,0.1391419287085533
1772025785718226700,10.658226806640625,-1.1332172637104987,-0.2762384691946208,0.11892594689279794
1772025785728223700,10.6682236328125,-1.2063579032450913,-0.3311614611238241,0.06632891369313001
1772025785738221600,10.6782216796875,-1.3123399051517248,-0.48978608893752096,0.11830518464595079
1772025785748219000,10.688218994140625,-1.3790028731048107,-0.5388499795749783,0.24156857622116804
1772025785758215700,10.698215576171876,-1.3689134407669306,-0.3933113355666399,0.31493016503006216
1772025785768213800,10.7082138671875,-1.2696791595548391,-0.16671397237554192,0.31147140287831426
1772025785778210600,10.71821044921875,-1.1718120750427246,-0.0693579061254859,0.30674948892295356
1772025785788207900,10.728207763671875,-1.113727550342679,-0.08803513406664133,0.32784926783591506
1772025785798205700,10.738205810546875,-1.1012082605093716,-0.08177607367187738,0.358782458499074
1772025785808202800,10.74820263671875,-1.0028367336064576,0.007265607088804245,0.3714683370709419
1772025785818199600,10.758199462890625,-0.7919312989354134,0.1390811384320259,0.3539173366807401
1772025785828197600,10.76819775390625,-0.6612935791999102,0.22018442740887403,0.3671079499043524
1772025785838194700,10.778194580078125,-0.5826929206937551,0.2311659862808883,0.3323557854749262
1772025785848191700,10.788191650390624,-0.4007528837442398,0.24807985781133174,0.2720559228129685
1772025785858189800,10.79818994140625,-0.2746627443104982,0.30094796303734184,0.23549714735299349
1772025785868186600,10.8081865234375,-0.18905191478133201,0.304893047401309,0.19836130265742538
1772025785878184000,10.818183837890626,0.03207973034977913,0.38335736617669464,0.26365444356203077
1772025785888181800,10.828181640625,0.1748702446937561,0.6088257253378629,0.25944077138975263
1772025785898178800,10.8381787109375,0.46070320231616496,0.7683677602574229,0.16065277264043687
1772025785908175600,10.848175537109375,0.8520417765051126,0.7989072754278779,0.10862579441368579
1772025785918173700,10.858173583984374,1.1813690079391002,0.7943792766094208,0.07381079388111829
1772025785928170800,10.868170654296875,1.2958125487208365,0.7533433557353914,0.1452257786668837
1772025785938168800,10.8781689453125,1.3061702766060828,0.663184069121629,0.3464084223553538
1772025785948165600,10.88816552734375,1.3869102852284907,0.6036209963016211,0.5119058585479855
1772025785958162700,10.89816259765625,1.4718126742273567,0.5536129566818475,0.6634913815051316
1772025785968160500,10.908160400390624,1.4707131885528564,0.43186201549619435,0.8683914382815361
1772025785978157800,10.91815771484375,1.2784095784991978,0.2565238610297441,1.0964359315410255
1772025785988154600,10.928154541015624,1.1439467475175857,-0.010263619861006736,1.3389184077367187
1772025785998152700,10.938152587890626,1.0383563752770424,-0.25522037721574303,1.5521870644077658
1772025786008149500,10.9481494140625,0.8742425023972987,-0.3062242960050702,1.7287917316786945
1772025786018146800,10.958146728515626,0.6558668779760599,-0.2681210675820708,1.8494845421135424
1772025786028145000,10.968144775390625,0.4686772499352693,-0.22967910872399805,1.830695378230512
1772025786038141700,10.9781416015625,0.20312895545065401,-0.0950903132751584,1.6055685259833932
1772025786048138500,10.988138427734375,-0.03246376123130321,0.1359209208354354,1.2888845030233262
1772025786058136600,10.998136474609375,-0.2813689639508724,0.3499780975356698,1.080347551049292
1772025786068134000,11.0081337890625,-0.563019082930684,0.4764142739281058,0.943584918692708
1772025786078130700,11.018130615234375,-0.5980939034432172,0.6004819676235318,0.9065722619853913
1772025786088128800,11.028128662109374,-0.44614451560974117,0.7685404864758253,0.7865078125819563
1772025786098125800,11.038125732421875,-0.2672451615303755,0.8659376153886318,0.6200760181486606
1772025786108123000,11.048122802734374,0.04714578205645084,0.8599223006218671,0.3132344670280814
1772025786118120700,11.05812060546875,0.35657822645306586,0.7164872047640383,-0.0077162734657526015
1772025786128117800,11.06811767578125,0.6204553728550672,0.5698902838744223,-0.22575609006136654
1772025786138114800,11.07811474609375,0.7539262701898812,0.4249184799686074,-0.1856169718965888
1772025786148113000,11.08811279296875,0.7943202398985624,0.38081454982608554,-0.030464988629519938
1772025786158109700,11.098109619140626,0.6891407865464687,0.35645796107426286,0.21688684716820716
1772025786168106800,11.108106689453125,0.6673655925899744,0.2137932650670409,0.41349692224413154
1772025786178104600,11.1181044921875,0.6972305694997311,0.039691812788695095,0.748626410216093
1772025786188102000,11.128101806640625,0.5567980164587497,-0.03547317218035459,1.0339058256089686
1772025786198098700,11.1380986328125,0.5238917721569538,-0.11441840634047984,1.1733369465224444
1772025786208096800,11.1480966796875,0.6273772810727357,-0.21760975461527704,1.3097327913932502
1772025786218093600,11.158093505859375,0.6429530358672142,-0.29329189532622696,1.4158822588212787
1772025786228091000,11.1680908203125,0.43892216314077376,-0.3086712507657707,1.381082748118788
1772025786238088700,11.178088623046875,0.25933658036291596,-0.3649687459185719,1.1662408507816493
1772025786248085800,11.188085693359374,0.17146423564255237,-0.37786739045828577,0.9845029122754931
1772025786258082600,11.19808251953125,0.11284195080399513,-0.3335356429092586,0.8596133808031677
1772025786268080600,11.20808056640625,0.03587795358896255,-0.28025910301283,0.7286836923837662
1772025786278078000,11.218077880859376,-0.02893383353948593,-0.2903825837507844,0.6029907355740666
1772025786288074800,11.22807470703125,0.061812605312466615,-0.3735030577689409,0.4807476269572973
1772025786298072800,11.23807275390625,0.6758551885157823,-0.3324837957687676,0.6095769820965826
1772025786308069600,11.248069580078125,0.7531196299821138,-0.16867489718496798,0.9520863511867821
1772025786318067700,11.258067626953125,0.029061843833327293,-0.24959070076569914,0.8136075625620782
1772025786328064800,11.268064697265626,-0.4127747454494238,-0.4549759107105434,0.4219084844976663
1772025786338061800,11.278061767578125,-0.4771744446456432,-0.48801937152594327,0.4584600995644927
1772025786348059600,11.2880595703125,-0.33377895014584064,-0.4226277386829257,0.5360837297320366
1772025786358056700,11.298056640625,-0.47570086496174335,-0.3173290428653359,0.5911823704890906
1772025786368053800,11.3080537109375,-0.6987626013725996,-0.24440496869087217,0.6085280575655401
1772025786378051800,11.3180517578125,-0.6318932971924544,-0.2453346507564187,0.5060420810811221
1772025786388048600,11.328048583984375,-0.14616437469124793,-0.27111323513537644,0.31486718279644843
