time,seconds_elapsed,z,y,x
1772025751572547000,0.077547119140625,-0.4153141677379608,0.24077127873897552,0.1350775510072708
1772025751582544100,0.087544189453125,-0.4718165993690491,0.22678834199905396,0.12435272336006165
1772025751592541200,0.097541259765625,-0.5131983160972595,0.22025561332702637,0.11379044502973557
1772025751602539000,0.1075390625,-0.5280092358589172,0.22593267261981964,0.10370958596467972
1772025751612536000,0.1175361328125,-0.5079728960990906,0.24529199302196503,0.09607948362827301
1772025751622534100,0.1275341796875,-0.45393282175064087,0.2578833997249603,0.09249965846538544
1772025751632531200,0.13753125,-0.38020750880241394,0.22467249631881714,0.0921192392706871
1772025751642528000,0.147528076171875,-0.32879066467285156,0.15510593354701996,0.09626311808824539
1772025751652526000,0.157526123046875,-0.3019047975540161,0.10359584540128708,0.12137238681316376
1772025751662523100,0.167523193359375,-0.29054853320121765,0.061095792800188065,0.1557607203722
1772025751672520200,0.177520263671875,-0.3016957640647888,0.0001835864968597889,0.1738172322511673
1772025751682518300,0.187518310546875,-0.33881890773773193,-0.09364090859889984,0.16524025797843933
1772025751692515000,0.19751513671875,-0.4000168740749359,-0.2054404765367508,0.12714459002017975
1772025751702513200,0.20751318359375,-0.47975510358810425,-0.2927058935165405,0.07222888618707657
1772025751712510200,0.21751025390625,-0.5607157945632935,-0.3265940546989441,0.02472781389951706
1772025751722507300,0.22750732421875,-0.6150751709938049,-0.29556795954704285,-0.00942083541303873
1772025751732505000,0.237505126953125,-0.6365886926651001,-0.23294134438037872,-0.04961419850587845
1772025751742502100,0.247502197265625,-0.6333920955657959,-0.19655857980251312,-0.09718171507120132
1772025751752499200,0.257499267578125,-0.5995590090751648,-0.18305239081382751,-0.13177499175071716
1772025751762497300,0.267497314453125,-0.5491810441017151,-0.17204821109771729,-0.14023025333881378
1772025751772494000,0.277494140625,-0.4788132309913635,-0.1596623957157135,-0.11435417830944061
1772025751782492200,0.2874921875,-0.3950679898262024,-0.15391422808170319,-0.06981679797172546
1772025751792489000,0.297489013671875,-0.3142285943031311,-0.15666180849075317,-0.014071319252252579
1772025751802486300,0.307486328125,-0.24875611066818237,-0.16481053829193115,0.046066317707300186
1772025751812484000,0.317484130859375,-0.1894325613975525,-0.15114323794841766,0.11109285056591034
1772025751822481200,0.327481201171875,-0.14264507591724396,-0.12581071257591248,0.1794559359550476
1772025751832478000,0.33747802734375,-0.10743159055709839,-0.08634666353464127,0.22870436310768127
1772025751842476000,0.34747607421875,-0.06541117280721664,-0.03880923613905907,0.28339532017707825
1772025751852473000,0.35747314453125,-0.005810855887830257,0.012863276526331902,0.3322086036205292
1772025751862471200,0.36747119140625,0.06467396020889282,0.047355737537145615,0.38088560104370117
1772025751872468200,0.37746826171875,0.13163980841636658,0.04992934316396713,0.41142040491104126
1772025751882465000,0.387465087890625,0.19101259112358093,0.02493104711174965,0.4230562746524811
1772025751892463000,0.397463134765625,0.22637560963630676,-0.028008442372083664,0.42630937695503235
1772025751902460200,0.407460205078125,0.24698874354362488,-0.08705684542655945,0.42356523871421814
1772025751912457200,0.417457275390625,0.25385069847106934,-0.12616723775863647,0.41136595606803894
1772025751922455000,0.427455078125,0.2519686222076416,-0.14839184284210205,0.38300326466560364
1772025751932452000,0.4374521484375,0.24701489508152008,-0.16667217016220093,0.3450179398059845
1772025751942450000,0.447449951171875,0.22719112038612366,-0.1820167601108551,0.2937408983707428
1772025751952447200,0.457447265625,0.18291963636875153,-0.18687224388122559,0.2266630083322525
1772025751962444000,0.467444091796875,0.11259273439645767,-0.18641658127307892,0.14648640155792236
1772025751972442000,0.477442138671875,0.013776007108390331,-0.20039957761764526,0.03435327485203743
1772025751982439200,0.487439208984375,-0.10037773102521896,-0.24000051617622375,-0.11240580677986145
1772025751992436200,0.497436279296875,-0.21454602479934692,-0.2934510111808777,-0.28151607513427734
1772025752002434000,0.50743408203125,-0.296125590801239,-0.33570125699043274,-0.43971529603004456
1772025752012431000,0.51743115234375,-0.33903801441192627,-0.34176763892173767,-0.5597866177558899
1772025752022429200,0.52742919921875,-0.3590860068798065,-0.2771790623664856,-0.6385650634765625
1772025752032426200,0.53742626953125,-0.3600294888019562,-0.15325455367565155,-0.6736257076263428
1772025752042423000,0.547423095703125,-0.32301393151283264,-0.015904147177934647,-0.6730920672416687
1772025752052421000,0.557421142578125,-0.24557842314243317,0.12509596347808838,-0.6370189189910889
1772025752062418200,0.567418212890625,-0.1390405297279358,0.2648698389530182,-0.5823114514350891
1772025752072415200,0.577415283203125,-0.019240377470850945,0.37554824352264404,-0.5234134197235107
1772025752082413300,0.587413330078125,0.07896368950605392,0.44132140278816223,-0.4773225784301758
1772025752092410000,0.59741015625,0.1560520976781845,0.44830358028411865,-0.4395063817501068
1772025752102408200,0.607408203125,0.21136195957660675,0.40647968649864197,-0.4025414288043976
1772025752112405000,0.617405029296875,0.25034409761428833,0.3582330346107483,-0.3695248067378998
1772025752122402300,0.62740234375,0.2671843469142914,0.29985201358795166,-0.3322213888168335
1772025752132400000,0.637400146484375,0.27136412262916565,0.2297295480966568,-0.29593926668167114
1772025752142397200,0.647397216796875,0.26325878500938416,0.16356384754180908,-0.252351313829422
1772025752152394000,0.65739404296875,0.24883268773555756,0.10366349667310715,-0.21127161383628845
1772025752162392000,0.66739208984375,0.23390565812587738,0.02344961278140545,-0.17605343461036682
1772025752172389000,0.67738916015625,0.2131960093975067,-0.0591665618121624,-0.13937915861606598
1772025752182387200,0.68738720703125,0.18529647588729858,-0.12375221401453018,-0.08257793635129929
1772025752192384300,0.69738427734375,0.1631435751914978,-0.15574707090854645,-0.024785086512565613
1772025752202381000,0.707381103515625,0.14367613196372986,-0.170779287815094,0.02829970233142376
1772025752212379100,0.717379150390625,0.1263393610715866,-0.1900065541267395,0.06357461214065552
1772025752222376200,0.727376220703125,0.11015693843364716,-0.20930995047092438,0.0889553353190422
1772025752232373200,0.737373291015625,0.08561986684799194,-0.24086079001426697,0.10949396342039108
1772025752242371000,0.74737109375,0.051135655492544174,-0.2647658586502075,0.11979667097330093
1772025752252368100,0.7573681640625,0.01336828526109457,-0.27319931983947754,0.12659545242786407
1772025752262365200,0.767365234375,-0.012277157045900822,-0.26608896255493164,0.12436772137880325
1772025752272363300,0.77736328125,-0.019261004403233528,-0.267570823431015,0.11010689288377762
1772025752282360000,0.787360107421875,-0.020163018256425858,-0.27783888578414917,0.09525977075099945
1772025752292358100,0.797358154296875,-0.011067626997828484,-0.2809358835220337,0.09298894554376602
1772025752302355000,0.80735498046875,-0.00018754927441477776,-0.2593829333782196,0.10934528708457947
1772025752312352300,0.817352294921875,0.030952323228120804,-0.18591639399528503,0.13793891668319702
1772025752322350000,0.82735009765625,0.07315543293952942,-0.09043382108211517,0.17914147675037384
1772025752332347100,0.83734716796875,0.11515209823846817,-0.021491648629307747,0.2152383029460907
1772025752342344000,0.847343994140625,0.13986143469810486,-0.005594176240265369,0.2306888997554779
1772025752352342000,0.857342041015625,0.16085122525691986,-0.018033577129244804,0.2446344643831253
1772025752362339000,0.867339111328125,0.17397049069404602,-0.04924342781305313,0.2469727247953415
1772025752372337200,0.877337158203125,0.1852114498615265,-0.0975416824221611,0.2481011003255844
1772025752382334200,0.887334228515625,0.1920139640569687,-0.1466146856546402,0.2393784523010254
1772025752392331000,0.8973310546875,0.19775474071502686,-0.17561830580234528,0.2318420559167862
1772025752402329000,0.9073291015625,0.20568084716796875,-0.1895407736301422,0.22580572962760925
1772025752412326100,0.917326171875,0.21444381773471832,-0.17752647399902344,0.2149123251438141
1772025752422323200,0.9273232421875,0.2264203280210495,-0.15654130280017853,0.1979740858078003
1772025752432321000,0.937321044921875,0.24545395374298096,-0.15197856724262238,0.1730501651763916
1772025752442318000,0.947318115234375,0.27439454197883606,-0.15395650267601013,0.15818333625793457
1772025752452316200,0.957316162109375,0.3204176425933838,-0.15372346341609955,0.16717250645160675
1772025752462313200,0.967313232421875,0.3835076689720154,-0.15775148570537567,0.20092567801475525
1772025752472310500,0.977310546875,0.4471958577632904,-0.167705699801445,0.22340987622737885
1772025752482308600,0.98730859375,0.46344754099845886,-0.20284637808799744,0.1981138437986374
1772025752492305400,0.997305419921875,0.42292121052742004,-0.22940227389335632,0.12471872568130493
1772025752502302700,1.007302734375,0.36086156964302063,-0.2383691370487213,0.03162126988172531
1772025752512300500,1.017300537109375,0.2807427942752838,-0.22759844362735748,-0.07868421077728271
1772025752522297600,1.027297607421875,0.20304159820079803,-0.22757074236869812,-0.18830125033855438
1772025752532295700,1.037295654296875,0.1494784951210022,-0.22371305525302887,-0.2705933153629303
1772025752542292500,1.04729248046875,0.1240069642663002,-0.20331163704395294,-0.3054650127887726
1772025752552289500,1.05728955078125,0.11797060072422028,-0.1688552051782608,-0.2982901930809021
1772025752562287600,1.06728759765625,0.12119435518980026,-0.14134635031223297,-0.24986806511878967
1772025752572284700,1.07728466796875,0.13023556768894196,-0.126132532954216,-0.17501793801784515
1772025752582281500,1.087281494140625,0.15870130062103271,-0.12302862852811813,-0.07779470831155777
1772025752592279600,1.097279541015625,0.19313764572143555,-0.10883934050798416,0.033395133912563324
1772025752602276600,1.107276611328125,0.21936951577663422,-0.08479472249746323,0.145501971244812
1772025752612273700,1.117273681640625,0.22714073956012726,-0.05932954326272011,0.2362067699432373
1772025752622271500,1.127271484375,0.21263983845710754,-0.046363409608602524,0.30476903915405273
1772025752632268500,1.1372685546875,0.18883877992630005,-0.032749101519584656,0.35361841320991516
1772025752642266600,1.1472666015625,0.16179729998111725,-0.011215314269065857,0.3843419551849365
1772025752652263700,1.157263671875,0.13697272539138794,0.0009917073184624314,0.3900783956050873
1772025752662260500,1.167260498046875,0.12677015364170074,0.013701377436518669,0.37977808713912964
1772025752672258600,1.177258544921875,0.11725875735282898,0.022954488173127174,0.3561107814311981
1772025752682255600,1.187255615234375,0.10904636979103088,0.04824812710285187,0.32361704111099243
1772025752692252700,1.197252685546875,0.0903807058930397,0.081891730427742,0.2779909074306488
1772025752702250500,1.20725048828125,0.07674852013587952,0.11809314042329788,0.2278459668159485
1772025752712247600,1.21724755859375,0.07017607986927032,0.16266334056854248,0.16319094598293304
1772025752722245600,1.22724560546875,0.0646313801407814,0.22755393385887146,0.10511406511068344
1772025752732242700,1.23724267578125,0.0672512874007225,0.30857139825820923,0.0489034466445446
1772025752742239500,1.247239501953125,0.072128064930439,0.3835148811340332,-0.015193779952824116
1772025752752237600,1.257237548828125,0.07457000017166138,0.4369836449623108,-0.09060577303171158
1772025752762234600,1.267234619140625,0.06998883187770844,0.45072025060653687,-0.17974284291267395
1772025752772231700,1.277231689453125,0.06430933624505997,0.426501989364624,-0.27789774537086487
1772025752782229800,1.287229736328125,0.046902112662792206,0.3896523714065552,-0.3776823878288269
1772025752792226600,1.2972265625,0.027679676190018654,0.3297167122364044,-0.4739938974380493
1772025752802224600,1.307224609375,0.01528905238956213,0.2801973819732666,-0.5352655053138733
1772025752812221400,1.317221435546875,0.03572816029191017,0.26332730054855347,-0.5601862072944641
1772025752822218800,1.32721875,0.08657882362604141,0.2671547830104828,-0.5501871109008789
1772025752832216600,1.337216552734375,0.16057579219341278,0.27067670226097107,-0.5106614828109741
1772025752842213600,1.347213623046875,0.2500324249267578,0.26571762561798096,-0.4535500407218933
1772025752852210400,1.35721044921875,0.3427135944366455,0.267182856798172,-0.4003395438194275
1772025752862208500,1.36720849609375,0.4298354387283325,0.2568897306919098,-0.34554073214530945
1772025752872205600,1.37720556640625,0.49767613410949707,0.22421182692050934,-0.2917706370353699
1772025752882202600,1.38720263671875,0.5434814691543579,0.1990388184785843,-0.24156314134597778
1772025752892200400,1.397200439453125,0.5629055500030518,0.19145211577415466,-0.20533376932144165
1772025752902197500,1.407197509765625,0.5770522356033325,0.1879545897245407,-0.17635750770568848
1772025752912195600,1.417195556640625,0.5760310292243958,0.19484186172485352,-0.15696042776107788
1772025752922192600,1.427192626953125,0.55426025390625,0.22846533358097076,-0.15121892094612122
1772025752932189700,1.437189697265625,0.5172116756439209,0.2736312448978424,-0.16058474779129028
1772025752942187500,1.4471875,0.47983795404434204,0.3048062026500702,-0.18308418989181519
1772025752952184600,1.4571845703125,0.45219796895980835,0.32705098390579224,-0.2172822207212448
1772025752962181600,1.467181640625,0.43811437487602234,0.33333978056907654,-0.2575244605541229
1772025752972179700,1.4771796875,0.4346565008163452,0.3302479386329651,-0.3026561141014099
1772025752982176500,1.487176513671875,0.4407423436641693,0.33731570839881897,-0.3409619629383087
1772025752992174600,1.497174560546875,0.46339401602745056,0.35599103569984436,-0.36390629410743713
1772025753002171400,1.50717138671875,0.5026490092277527,0.37651097774505615,-0.37645456194877625
1772025753012168700,1.517168701171875,0.556546688079834,0.40991026163101196,-0.3743860423564911
1772025753022166500,1.52716650390625,0.6310813426971436,0.4385664165019989,-0.3708866536617279
1772025753032163600,1.53716357421875,0.707945704460144,0.4449649155139923,-0.3566874563694
1772025753042160400,1.547160400390625,0.7865475416183472,0.43638795614242554,-0.32956555485725403
1772025753052158700,1.55715869140625,0.8491865992546082,0.4287545680999756,-0.2895425260066986
1772025753062155500,1.567155517578125,0.8895151019096375,0.42905205488204956,-0.23799224197864532
1772025753072152600,1.577152587890625,0.9243812561035156,0.44012370705604553,-0.17951561510562897
1772025753082150700,1.587150634765625,0.9572984576225281,0.4349268078804016,-0.13106340169906616
1772025753092147700,1.597147705078125,0.9945282936096191,0.41693487763404846,-0.07901031523942947
1772025753102145800,1.607145751953125,1.0253477096557617,0.4035748541355133,-0.02517211250960827
1772025753112142600,1.617142578125,1.0328567028045654,0.3910907804965973,0.027934575453400612
1772025753122139600,1.6271396484375,1.024591326713562,0.36515557765960693,0.08062495291233063
1772025753132137500,1.637137451171875,1.0029747486114502,0.34755685925483704,0.13016420602798462
1772025753142134800,1.647134765625,0.972575306892395,0.3307371437549591,0.16480740904808044
1772025753152131600,1.657131591796875,0.9382615685462952,0.32529717683792114,0.18341757357120514
1772025753162129700,1.667129638671875,0.9120150804519653,0.32392722368240356,0.1893548220396042
1772025753172126500,1.67712646484375,0.9124542474746704,0.3460799753665924,0.19934247434139252
1772025753182124500,1.68712451171875,0.9427604675292969,0.39574792981147766,0.2112438827753067
1772025753192121600,1.69712158203125,0.9903739094734192,0.42561063170433044,0.21122585237026215
1772025753202118700,1.70711865234375,1.0181198120117188,0.4310661256313324,0.19777102768421173
1772025753212116500,1.717116455078125,1.0324466228485107,0.4354894757270813,0.1751497983932495
1772025753222113500,1.727113525390625,1.0334283113479614,0.43949034810066223,0.15836335718631744
1772025753232110600,1.737110595703125,1.022775650024414,0.45335114002227783,0.1575225442647934
1772025753242108700,1.747108642578125,1.0185012817382812,0.4731227159500122,0.17464613914489746
1772025753252105500,1.75710546875,1.0262012481689453,0.5030413269996643,0.21086260676383972
1772025753262102500,1.7671025390625,1.0375335216522217,0.5084038376808167,0.2511082887649536
1772025753272100600,1.7771005859375,1.0527880191802979,0.49156707525253296,0.28631389141082764
1772025753282097700,1.78709765625,1.0699372291564941,0.4628097414970398,0.3056904971599579
1772025753292095700,1.797095703125,1.0822731256484985,0.42031094431877136,0.31508952379226685
1772025753302092500,1.807092529296875,1.0833059549331665,0.36603623628616333,0.3034275472164154
1772025753312089600,1.817089599609375,1.0687216520309448,0.3081769347190857,0.27930596470832825
1772025753322087400,1.82708740234375,1.0415171384811401,0.25781628489494324,0.24595627188682556
1772025753332084700,1.837084716796875,1.0231542587280273,0.2278878092765808,0.22004936635494232
1772025753342081500,1.84708154296875,1.0148957967758179,0.20542244613170624,0.18985018134117126
1772025753352079600,1.85707958984375,1.0148155689239502,0.18488503992557526,0.1568617969751358
1772025753362076400,1.867076416015625,1.0044777393341064,0.14895926415920258,0.10399032384157181
1772025753372074500,1.877074462890625,0.9834064245223999,0.12860246002674103,0.027069518342614174
1772025753382071600,1.887071533203125,0.9638516306877136,0.13369177281856537,-0.05563415214419365
1772025753392068600,1.897068603515625,0.9513933062553406,0.16077318787574768,-0.12110169231891632
1772025753402066400,1.90706640625,0.9386993646621704,0.21644285321235657,-0.17708294093608856
1772025753412063500,1.9170634765625,0.9256534576416016,0.282006174325943,-0.2292182445526123
1772025753422060500,1.927060546875,0.9320845007896423,0.34344717860221863,-0.2673821449279785
1772025753432058600,1.93705859375,0.963671863079071,0.4206067621707916,-0.27130982279777527
1772025753442055700,1.9470556640625,1.025936245918274,0.49024176597595215,-0.2578403651714325
1772025753452052500,1.957052490234375,1.092564344406128,0.5340070724487305,-0.22967736423015594
1772025753462050600,1.967050537109375,1.1834300756454468,0.5508962869644165,-0.19150760769844055
1772025753472047000,1.977047119140625,1.2747081518173218,0.5493924021720886,-0.1536926031112671
1772025753482045200,1.987045166015625,1.3432435989379883,0.5456788539886475,-0.13266268372535706
1772025753492042000,1.9970419921875,1.383895754814148,0.5340085625648499,-0.11978902667760849
1772025753502039300,2.007039306640625,1.4040220975875854,0.5190197825431824,-0.1153295636177063
1772025753512037000,2.017037109375,1.39732027053833,0.5108134150505066,-0.11892342567443848
1772025753522034200,2.0270341796875,1.3828281164169312,0.5041669607162476,-0.12595656514167786
1772025753532031000,2.037031005859375,1.3531243801116943,0.4918070435523987,-0.13741855323314667
1772025753542029000,2.047029052734375,1.3178893327713013,0.46474507451057434,-0.15395306050777435
1772025753552026000,2.057026123046875,1.273240089416504,0.42219647765159607,-0.18491703271865845
1772025753562024200,2.067024169921875,1.2076040506362915,0.3751237690448761,-0.2232455164194107
1772025753572021000,2.07702099609375,1.1260335445404053,0.32243669033050537,-0.2773783802986145
1772025753582018000,2.08701806640625,1.0497713088989258,0.26132193207740784,-0.3289744555950165
1772025753592016000,2.097015869140625,0.9847198128700256,0.206849604845047,-0.38290587067604065
1772025753602013200,2.10701318359375,0.9268472194671631,0.18076874315738678,-0.4292973279953003
1772025753612010000,2.117010009765625,0.8750059008598328,0.16034184396266937,-0.468991756439209
1772025753622008000,2.127008056640625,0.8244535326957703,0.14588700234889984,-0.49704602360725403
1772025753632004900,2.1370048828125,0.7827290892601013,0.15272307395935059,-0.5064696073532104
1772025753642002200,2.147002197265625,0.7517130970954895,0.16130298376083374,-0.5122952461242676
1772025753652000300,2.157000244140625,0.750452995300293,0.1688404083251953,-0.5041775703430176
1772025753661997000,2.1669970703125,0.7746912240982056,0.18805457651615143,-0.4773920476436615
1772025753671995100,2.1769951171875,0.8258610367774963,0.2002558410167694,-0.44495055079460144
1772025753681992000,2.186991943359375,0.8818212747573853,0.20969754457473755,-0.39764055609703064
1772025753691989200,2.1969892578125,0.9446621537208557,0.24365897476673126,-0.3373744785785675
1772025753701987000,2.206987060546875,1.0099961757659912,0.2936132252216339,-0.264710396528244
1772025753711984000,2.216984130859375,1.0725864171981812,0.3316258192062378,-0.1838851124048233
1772025753721981000,2.22698095703125,1.128251314163208,0.36939501762390137,-0.10876985639333725
1772025753731979000,2.23697900390625,1.1718459129333496,0.40222683548927307,-0.04248591884970665
1772025753741976000,2.24697607421875,1.2112116813659668,0.42103806138038635,0.005043250508606434
1772025753751973000,2.25697314453125,1.2456037998199463,0.4244009554386139,0.042259134352207184
1772025753761971000,2.266970947265625,1.2726471424102783,0.4245237410068512,0.06441370397806168
1772025753771968000,2.276968017578125,1.2827602624893188,0.4034240245819092,0.07758410274982452
1772025753781966000,2.286966064453125,1.281086802482605,0.380011647939682,0.08903170377016068
1772025753791963100,2.296963134765625,1.254178762435913,0.3602863550186157,0.09281324595212936
1772025753801960000,2.3069599609375,1.2058982849121094,0.3402349054813385,0.11048278957605362
1772025753811958000,2.3169580078125,1.1502054929733276,0.32424548268318176,0.13375376164913177
1772025753821955300,2.326955322265625,1.092150092124939,0.311193585395813,0.159628227353096
1772025753831952100,2.3369521484375,1.0444577932357788,0.28801465034484863,0.1795072704553604
1772025753841950200,2.3469501953125,0.9991434216499329,0.24991920590400696,0.19807881116867065
1772025753851947000,2.356947021484375,0.9555054903030396,0.21695466339588165,0.20460781455039978
1772025753861944300,2.3669443359375,0.9096975326538086,0.19245651364326477,0.20632635056972504
1772025753871942100,2.376942138671875,0.866542637348175,0.17255383729934692,0.19700409471988678
1772025753881939200,2.386939208984375,0.8429661989212036,0.16712366044521332,0.18708407878875732
1772025753891937000,2.39693701171875,0.8316526412963867,0.17501893639564514,0.1794358342885971
1772025753901934000,2.40693408203125,0.8414032459259033,0.18934834003448486,0.16783377528190613
1772025753911931100,2.41693115234375,0.8688538074493408,0.1987086981534958,0.15201285481452942
1772025753921929200,2.42692919921875,0.8973408341407776,0.18516306579113007,0.13503573834896088
1772025753931926000,2.436926025390625,0.9167978763580322,0.1724383682012558,0.11421941220760345
1772025753941923000,2.446923095703125,0.9342426061630249,0.1760602593421936,0.09690700471401215
1772025753951921000,2.4569208984375,0.955702006816864,0.18464869260787964,0.0886845588684082
1772025753961918200,2.466918212890625,0.9835366010665894,0.18411633372306824,0.0811598002910614
1772025753971915000,2.4769150390625,0.9974431991577148,0.15527281165122986,0.06917603313922882
1772025753981913000,2.4869130859375,0.9855969548225403,0.10587836802005768,0.047109879553318024
1772025753991910000,2.496909912109375,0.9583632349967957,0.05649810656905174,0.014131949283182621
1772025754001908000,2.506907958984375,0.9347255825996399,0.023261593654751778,-0.010649297386407852
1772025754011905300,2.5169052734375,0.9205532670021057,0.01721876487135887,-0.025385502725839615
1772025754021902000,2.526902099609375,0.9243552088737488,0.01938418112695217,-0.028589552268385887
1772025754031900200,2.536900146484375,0.9351813197135925,0.015076897107064724,-0.024891678243875504
1772025754041897000,2.54689697265625,0.9515877366065979,0.003599738935008645,-0.02613297663629055
1772025754051894300,2.556894287109375,0.9714992642402649,0.00748799555003643,-0.011080200783908367
1772025754061892000,2.56689208984375,1.0011723041534424,0.014212477020919323,0.01303632091730833
1772025754071889200,2.57688916015625,1.0418339967727661,0.0005333332810550928,0.046851158142089844
1772025754081887000,2.586886962890625,1.0685421228408813,-0.018308531492948532,0.07537254691123962
1772025754091884000,2.596884033203125,1.0707534551620483,-0.03552624210715294,0.10490246117115021
1772025754101881000,2.606881103515625,1.0501346588134766,-0.0529494434595108,0.13082541525363922
1772025754111879200,2.616879150390625,1.0213544368743896,-0.05483674630522728,0.1653328388929367
1772025754121876000,2.6268759765625,0.9965534210205078,-0.03564680740237236,0.20896181464195251
1772025754131873000,2.636873046875,0.9721114635467529,-0.0012250728905200958,0.2511473000049591
1772025754141870800,2.646870849609375,0.9415079951286316,0.039332207292318344,0.2806447446346283
1772025754151868200,2.6568681640625,0.9182809591293335,0.07510735839605331,0.30750373005867004
1772025754161866200,2.6668662109375,0.9085838198661804,0.10701149702072144,0.3233455419540405
1772025754171863000,2.676863037109375,0.9002417922019958,0.13665005564689636,0.3328792452812195
1772025754181860000,2.686860107421875,0.8839991688728333,0.17559558153152466,0.3291628062725067
1772025754191858200,2.696858154296875,0.8582628965377808,0.22842200100421906,0.3311481773853302
1772025754201855200,2.706855224609375,0.8146757483482361,0.29354217648506165,0.3249526023864746
1772025754211852000,2.71685205078125,0.7619219422340393,0.365372896194458,0.3133167326450348
1772025754221850000,2.72685009765625,0.7122944593429565,0.4234575033187866,0.30837976932525635
1772025754231847200,2.73684716796875,0.6685432195663452,0.4758124053478241,0.3028540015220642
1772025754241844200,2.74684423828125,0.6266160011291504,0.5290766954421997,0.29238221049308777
1772025754251842000,2.756842041015625,0.5893702507019043,0.5544615983963013,0.286304771900177
1772025754261839000,2.766839111328125,0.5622091889381409,0.5719507932662964,0.27871716022491455
1772025754271837000,2.7768369140625,0.5472874045372009,0.5673354268074036,0.2558331787586212
1772025754281834200,2.786834228515625,0.5383642315864563,0.5521402359008789,0.22501908242702484
1772025754291831000,2.7968310546875,0.530160129070282,0.545815646648407,0.18253886699676514
1772025754301829000,2.8068291015625,0.5366792678833008,0.5559684038162231,0.13287223875522614
1772025754311826000,2.816825927734375,0.5575175285339355,0.5854097008705139,0.07891546934843063
1772025754321823200,2.8268232421875,0.5856293439865112,0.6142171025276184,0.017526939511299133
1772025754331821300,2.8368212890625,0.618963897228241,0.6276602745056152,-0.04989289864897728
1772025754341818000,2.846818115234375,0.6559272408485413,0.6149330735206604,-0.13620169460773468
1772025754351815000,2.85681494140625,0.6970606446266174,0.5756544470787048,-0.22232770919799805
1772025754361813000,2.86681298828125,0.738402783870697,0.5271122455596924,-0.30679094791412354
1772025754371810300,2.876810302734375,0.7875959873199463,0.48193275928497314,-0.3742353618144989
1772025754381808000,2.88680810546875,0.8347618579864502,0.45870545506477356,-0.41244664788246155
1772025754391805200,2.89680517578125,0.8826697468757629,0.44377174973487854,-0.42439427971839905
1772025754401802000,2.906802001953125,0.9296508431434631,0.4440668523311615,-0.40722620487213135
1772025754411800000,2.916800048828125,0.9701639413833618,0.4460194706916809,-0.3665003478527069
1772025754421797000,2.926797119140625,1.0014110803604126,0.4533010721206665,-0.3115233778953552
1772025754431794200,2.936794189453125,1.0328576564788818,0.4686759412288666,-0.24972271919250488
1772025754441792000,2.9467919921875,1.0608876943588257,0.4731210172176361,-0.18551817536354065
1772025754451789000,2.9567890625,1.07481050491333,0.4494631290435791,-0.1367940455675125
1772025754461786000,2.9667861328125,1.0798087120056152,0.42209967970848083,-0.10077692568302155
1772025754471784400,2.976784423828125,1.0881317853927612,0.39102625846862793,-0.07009664177894592
1772025754481781500,2.986781494140625,1.093650221824646,0.3785828948020935,-0.04138776659965515
1772025754491779600,2.996779541015625,1.0925452709197998,0.38943690061569214,-0.027745520696043968
1772025754501776400,3.0067763671875,1.087368130683899,0.41018107533454895,-0.02365730330348015
1772025754511773400,3.0167734375,1.0781712532043457,0.44037869572639465,-0.0383748784661293
1772025754521771500,3.026771484375,1.0750693082809448,0.4720380902290344,-0.05797680839896202
1772025754531768600,3.0367685546875,1.0753669738769531,0.5026355385780334,-0.08880715072154999
1772025754541765400,3.046765380859375,1.0929757356643677,0.5242862701416016,-0.11732801049947739
1772025754551763500,3.056763427734375,1.113932490348816,0.5244837403297424,-0.14320328831672668
1772025754561760500,3.066760498046875,1.1327612400054932,0.5323342084884644,-0.16317912936210632
1772025754571757600,3.076757568359375,1.149388074874878,0.5455930829048157,-0.18379724025726318
1772025754581755400,3.08675537109375,1.166790246963501,0.5397453308105469,-0.20426496863365173
1772025754591752400,3.09675244140625,1.1877855062484741,0.5167678594589233,-0.22746868431568146
1772025754601750300,3.106750244140625,1.2117284536361694,0.4983105957508087,-0.24576567113399506
1772025754611747600,3.11674755859375,1.2441350221633911,0.48737797141075134,-0.2457394301891327
1772025754621744400,3.126744384765625,1.2789249420166016,0.48693642020225525,-0.2422269880771637
1772025754631742500,3.136742431640625,1.3121287822723389,0.49323588609695435,-0.2237744778394699
1772025754641739300,3.1467392578125,1.3398746252059937,0.5061298608779907,-0.20470784604549408
1772025754651736600,3.156736572265625,1.3559404611587524,0.5102449059486389,-0.18642497062683105
1772025754661734400,3.166734375,1.3654325008392334,0.5011941194534302,-0.17043855786323547
1772025754671731500,3.1767314453125,1.3603838682174683,0.49360111355781555,-0.15194889903068542
1772025754681728300,3.186728271484375,1.3491474390029907,0.4896066188812256,-0.14295326173305511
1772025754691726300,3.196726318359375,1.320694088935852,0.4859921336174011,-0.14298875629901886
1772025754701723600,3.2067236328125,1.2873374223709106,0.48549574613571167,-0.1520855873823166
1772025754711721500,3.216721435546875,1.2497228384017944,0.494020938873291,-0.16131296753883362
1772025754721718500,3.226718505859375,1.214241862297058,0.5136721134185791,-0.1668424904346466
1772025754731715300,3.23671533203125,1.1781071424484253,0.5402461290359497,-0.1725204735994339
1772025754741713400,3.24671337890625,1.149051308631897,0.5708557367324829,-0.1753990799188614
1772025754751710500,3.25671044921875,1.1289641857147217,0.5789746642112732,-0.17709094285964966
1772025754761707500,3.26670751953125,1.1204942464828491,0.5930135250091553,-0.17441020905971527
1772025754771705300,3.276705322265625,1.122701644897461,0.6168421506881714,-0.1632399708032608
1772025754781702400,3.286702392578125,1.1267648935317993,0.6413224935531616,-0.1554930955171585
1772025754791699500,3.296699462890625,1.1214390993118286,0.6666816473007202,-0.1482076197862625
1772025754801697500,3.306697509765625,1.1105360984802246,0.6910098791122437,-0.15182127058506012
1772025754811694300,3.3166943359375,1.0949580669403076,0.7162314653396606,-0.16035877168178558
1772025754821692400,3.3266923828125,1.0902069807052612,0.7450196743011475,-0.17007692158222198
1772025754831689500,3.336689453125,1.0806879997253418,0.7513763904571533,-0.18590226769447327
1772025754841686500,3.3466865234375,1.074719786643982,0.7535199522972107,-0.19727982580661774
1772025754851684600,3.3566845703125,1.0735102891921997,0.7406831979751587,-0.2043088972568512
1772025754861681400,3.366681396484375,1.0808379650115967,0.7211848497390747,-0.2045765519142151
1772025754871678500,3.376678466796875,1.0873727798461914,0.7075837850570679,-0.19371084868907928
1772025754881676500,3.386676513671875,1.0914437770843506,0.6972802877426147,-0.18334582448005676
1772025754891673600,3.396673583984375,1.0970443487167358,0.6804621815681458,-0.17696289718151093
1772025754901670400,3.40667041015625,1.1043683290481567,0.6624690890312195,-0.16551369428634644
1772025754911668500,3.41666845703125,1.125590205192566,0.6504384279251099,-0.1394982933998108
1772025754921665500,3.42666552734375,1.1585049629211426,0.6489388346672058,-0.09815964102745056
1772025754931663600,3.43666357421875,1.1988376379013062,0.6389089226722717,-0.05054856464266777
1772025754941660400,3.446660400390625,1.2303471565246582,0.5998429656028748,-0.007662083953619003
1772025754951657500,3.456657470703125,1.2278200387954712,0.5398792028427124,0.017936082556843758
1772025754961655300,3.4666552734375,1.1966991424560547,0.4878714382648468,0.028092047199606895
1772025754971652600,3.476652587890625,1.16209077835083,0.44846290349960327,0.039178185164928436
1772025754981649400,3.4866494140625,1.1271008253097534,0.42217379808425903,0.05333208665251732
1772025754991647500,3.4966474609375,1.0875910520553589,0.4047001600265503,0.06891258805990219
1772025755001644300,3.506644287109375,1.0457484722137451,0.3944334089756012,0.08992918580770493
1772025755011641600,3.5166416015625,1.0017859935760498,0.3813050389289856,0.11289487779140472
1772025755021639400,3.526639404296875,0.9550867676734924,0.37508735060691833,0.12931594252586365
1772025755031636500,3.536636474609375,0.8964791297912598,0.37222379446029663,0.13480176031589508
1772025755041634600,3.546634521484375,0.8313975930213928,0.356246680021286,0.12248438596725464
1772025755051631400,3.55663134765625,0.7622128129005432,0.34857627749443054,0.10329289734363556
1772025755061628400,3.56662841796875,0.7021154165267944,0.3602672815322876,0.08749902248382568
1772025755071626500,3.57662646484375,0.6612465381622314,0.40408647060394287,0.08017502725124359
1772025755081623600,3.58662353515625,0.6436600685119629,0.4542231559753418,0.08019126951694489
1772025755091620400,3.596620361328125,0.6443423628807068,0.49044162034988403,0.07405481487512589
1772025755101618400,3.606618408203125,0.6496122479438782,0.4964030981063843,0.05350053310394287
1772025755111615500,3.616615478515625,0.6622042059898376,0.4918912351131439,0.03227554261684418
1772025755121613600,3.626613525390625,0.6804401874542236,0.49446436762809753,0.009871967136859894
1772025755131610400,3.6366103515625,0.690330445766449,0.4969499111175537,-0.013879233039915562
1772025755141607400,3.646607421875,0.6953973770141602,0.49246352910995483,-0.052075352519750595
1772025755151605200,3.656605224609375,0.6922417283058167,0.4685826897621155,-0.09476469457149506
1772025755161602600,3.6666025390625,0.6876437664031982,0.43733635544776917,-0.13692119717597961
1772025755171599400,3.676599365234375,0.6923503875732422,0.3918711245059967,-0.17275145649909973
1772025755181597400,3.686597412109375,0.7075876593589783,0.3211034834384918,-0.1951742023229599
1772025755191594200,3.69659423828125,0.7312051653862,0.2718941271305084,-0.19902412593364716
1772025755201591600,3.706591552734375,0.760191023349762,0.23368336260318756,-0.18768198788166046
1772025755211589600,3.716589599609375,0.8114947080612183,0.20488359034061432,-0.1656513214111328
1772025755221586400,3.72658642578125,0.8929331302642822,0.17774464190006256,-0.1427481323480606
1772025755231583200,3.736583251953125,0.9708729386329651,0.1737799495458603,-0.12132047116756439
1772025755241581300,3.746581298828125,1.0352985858917236,0.18147329986095428,-0.11389797925949097
1772025755251578600,3.75657861328125,1.0767428874969482,0.17229431867599487,-0.12033750116825104
1772025755261576400,3.766576416015625,1.0995920896530151,0.15137597918510437,-0.14295412600040436
1772025755271573500,3.776573486328125,1.1039154529571533,0.10702097415924072,-0.1691732257604599
1772025755281570600,3.786570556640625,1.0956047773361206,0.07395223528146744,-0.19537979364395142
1772025755291568600,3.796568603515625,1.0720419883728027,0.07529313862323761,-0.2202097773551941
1772025755301565400,3.8065654296875,1.036831259727478,0.0724952220916748,-0.2573728561401367
1772025755311562500,3.8165625,0.9775888919830322,0.054226964712142944,-0.306982159614563
1772025755321560300,3.826560302734375,0.8974223732948303,0.021326007321476936,-0.37910401821136475
1772025755331557600,3.8365576171875,0.7954734563827515,-0.01297745294868946,-0.46560221910476685
1772025755341555500,3.846555419921875,0.7006635665893555,-0.03655095398426056,-0.56309974193573
1772025755351552500,3.856552490234375,0.6190720796585083,-0.059338439255952835,-0.6561844348907471
1772025755361549300,3.86654931640625,0.5639353394508362,-0.07358182221651077,-0.744426965713501
1772025755371547400,3.87654736328125,0.5267817378044128,-0.04364626109600067,-0.8095974922180176
1772025755381544400,3.88654443359375,0.514443039894104,0.036006487905979156,-0.8359926342964172
1772025755391541500,3.89654150390625,0.5423969030380249,0.14119453728199005,-0.8132916688919067
1772025755401539600,3.90653955078125,0.6047353744506836,0.2554343044757843,-0.757301926612854
1772025755411536400,3.916536376953125,0.7046008706092834,0.35369008779525757,-0.6797765493392944
1772025755421533400,3.926533447265625,0.8325992822647095,0.4255901277065277,-0.5817671418190002
1772025755431531500,3.936531494140625,0.9686328172683716,0.49078232049942017,-0.4800556004047394
1772025755441528600,3.946528564453125,1.0716807842254639,0.5136719346046448,-0.37733718752861023
1772025755451526400,3.9565263671875,1.113787293434143,0.5002723932266235,-0.3042401075363159
1772025755461523500,3.9665234375,1.1222753524780273,0.46587735414505005,-0.2612284719944
1772025755471521000,3.97652099609375,1.1026365756988525,0.4045100212097168,-0.23584400117397308
1772025755481519000,3.98651904296875,1.069632887840271,0.348310649394989,-0.22458867728710175
1772025755491516000,3.996515869140625,1.0006126165390015,0.3107508420944214,-0.21291036903858185
1772025755501512700,4.0065126953125,0.9149603247642517,0.2675029933452606,-0.19602912664413452
1772025755511510800,4.0165107421875,0.8207195401191711,0.2284068763256073,-0.17037299275398254
1772025755521508000,4.026508056640625,0.7480932474136353,0.20185914635658264,-0.13712795078754425
1772025755531505000,4.0365048828125,0.7042282819747925,0.1732197105884552,-0.09202411770820618
1772025755541503000,4.0465029296875,0.6822289824485779,0.14572229981422424,-0.05490177497267723
1772025755551499800,4.056499755859375,0.6652482151985168,0.11470633000135422,-0.024845754727721214
1772025755561497900,4.066497802734375,0.6521837711334229,0.09155973047018051,-0.008038279600441456
1772025755571495000,4.076494873046875,0.6313790678977966,0.08862324804067612,0.010323570109903812
1772025755581492000,4.086491943359375,0.6169793009757996,0.10871812701225281,0.020524274557828903
1772025755591489800,4.09648974609375,0.6037067770957947,0.13759969174861908,0.01716214418411255
1772025755601486800,4.10648681640625,0.5906943082809448,0.16297030448913574,0.004968327935785055
1772025755611484000,4.11648388671875,0.5762790441513062,0.17021793127059937,-0.027306362986564636
1772025755621482000,4.12648193359375,0.5597019195556641,0.17052605748176575,-0.058703433722257614
1772025755631478800,4.136478759765625,0.5499008893966675,0.16922782361507416,-0.08334080874919891
1772025755641475800,4.146475830078125,0.5459889769554138,0.14995718002319336,-0.09057874977588654
1772025755651473700,4.1564736328125,0.541018009185791,0.12409396469593048,-0.08746904134750366
1772025755661471000,4.166470947265625,0.5514277815818787,0.10094284266233444,-0.06719227135181427
1772025755671467800,4.1764677734375,0.5626165866851807,0.08836515247821808,-0.02889268286526203
1772025755681465900,4.1864658203125,0.5817380547523499,0.07312308251857758,0.013936806470155716
1772025755691463000,4.196462890625,0.6030157804489136,0.05790334567427635,0.05340651422739029
1772025755701460700,4.206460693359375,0.6260483860969543,0.04736308753490448,0.0968751609325409
1772025755711458000,4.2164580078125,0.64634108543396,0.03735949471592903,0.14368188381195068
1772025755721454800,4.226454833984375,0.6761085987091064,0.038040731102228165,0.18891645967960358
1772025755731453000,4.236452880859375,0.7159680724143982,0.028003351762890816,0.23248006403446198
1772025755741449700,4.24644970703125,0.7441526055335999,-0.030064478516578674,0.2480536848306656
1772025755751447000,4.256447021484375,0.7250275015830994,-0.10112591087818146,0.21977931261062622
1772025755761444900,4.26644482421875,0.6711970567703247,-0.16425880789756775,0.15750423073768616
1772025755771442000,4.27644189453125,0.6002833247184753,-0.21682485938072205,0.08475819230079651
1772025755781438700,4.286438720703125,0.5240951180458069,-0.25908175110816956,0.012595843523740768
1772025755791436800,4.296436767578125,0.4514285922050476,-0.31091734766960144,-0.06733223050832748
1772025755801433900,4.306433837890625,0.3718767762184143,-0.3352474570274353,-0.1421995609998703
1772025755811432000,4.316431884765625,0.31655818223953247,-0.2974623739719391,-0.19417864084243774
1772025755821428700,4.3264287109375,0.2916123569011688,-0.2493068277835846,-0.22421003878116608
1772025755831425800,4.33642578125,0.303328275680542,-0.2293861359357834,-0.2206123173236847
1772025755841424000,4.346423828125,0.32964643836021423,-0.22637277841567993,-0.20447170734405518
1772025755851421000,4.3564208984375,0.3559674918651581,-0.24838218092918396,-0.16608768701553345
1772025755861417700,4.366417724609375,0.3891669809818268,-0.26201462745666504,-0.12552747130393982
1772025755871415800,4.376415771484375,0.4139169752597809,-0.26746001839637756,-0.07062927633523941
1772025755881412900,4.386412841796875,0.4256492555141449,-0.258085697889328,-0.00966658815741539
1772025755891410000,4.396409912109375,0.41677406430244446,-0.24400976300239563,0.04233862832188606
1772025755901408000,4.406407958984375,0.38858452439308167,-0.22780762612819672,0.08423575013875961
1772025755911404800,4.41640478515625,0.3481874465942383,-0.21361452341079712,0.11394362896680832
1772025755921403000,4.42640283203125,0.31966206431388855,-0.16067060828208923,0.13608436286449432
1772025755931400000,4.43639990234375,0.3028847873210907,-0.10262352228164673,0.1580294519662857
1772025755941397000,4.44639697265625,0.29686498641967773,-0.04959065839648247,0.1743578165769577
1772025755951394800,4.456394775390625,0.2849641740322113,-0.0020036264322698116,0.18745958805084229
1772025755961391900,4.466391845703125,0.2823486924171448,0.03275914862751961,0.20207075774669647
1772025755971389000,4.476388916015625,0.2718501091003418,0.05201771855354309,0.20565705001354218
1772025755981387000,4.486386962890625,0.26001662015914917,0.058542199432849884,0.20192942023277283
1772025755991383800,4.4963837890625,0.24359406530857086,0.05149121209979057,0.1946197748184204
1772025756001382000,4.5063818359375,0.2201971411705017,0.05802927166223526,0.18461081385612488
1772025756011378700,4.516378662109375,0.2014409601688385,0.10124222934246063,0.17254528403282166
1772025756021376000,4.5263759765625,0.1930626630783081,0.15818512439727783,0.1484932005405426
1772025756031374000,4.5363740234375,0.19814300537109375,0.21082650125026703,0.10389239341020584
1772025756041371000,4.546370849609375,0.2173188328742981,0.26053014397621155,0.03390265628695488
1772025756051367700,4.55636767578125,0.2548472583293915,0.2842549681663513,-0.04450492933392525
1772025756061365800,4.56636572265625,0.3048928678035736,0.28294309973716736,-0.12205485254526138
1772025756071363000,4.576363037109375,0.36711445450782776,0.2705674469470978,-0.18508201837539673
1772025756081360000,4.58635986328125,0.43419840931892395,0.2507498264312744,-0.22879301011562347
1772025756091358000,4.59635791015625,0.5042921304702759,0.21091137826442719,-0.25978803634643555
1772025756101354800,4.606354736328125,0.566809356212616,0.1718641072511673,-0.26677510142326355
1772025756111352000,4.61635205078125,0.6133639216423035,0.1396934986114502,-0.24824932217597961
1772025756121350000,4.626349853515625,0.6457080245018005,0.11137957870960236,-0.2141217142343521
1772025756131347000,4.636346923828125,0.6725378632545471,0.09138776361942291,-0.166254460811615
1772025756141344800,4.6463447265625,0.696598470211029,0.08071407675743103,-0.12024330347776413
1772025756151341800,4.656341796875,0.6928647756576538,0.08358504623174667,-0.08461713790893555
1772025756161339000,4.6663388671875,0.6854861974716187,0.07823741436004639,-0.05086476728320122
1772025756171337000,4.6763369140625,0.6576544046401978,0.07035277783870697,-0.028642797842621803
1772025756181333800,4.686333740234375,0.6178274154663086,0.05507688224315643,-0.019135845825076103
1772025756191330800,4.696330810546875,0.5754113793373108,0.04037126153707504,-0.031526222825050354
1772025756201329000,4.706328857421875,0.5407817363739014,0.02199678122997284,-0.05088021233677864
1772025756211326000,4.716325927734375,0.503989040851593,-0.00399818317964673,-0.07669635862112045
1772025756221322800,4.72632275390625,0.4685617983341217,-0.00952211208641529,-0.10625264793634415
1772025756231320800,4.73632080078125,0.4248421788215637,-0.002894759178161621,-0.14369037747383118
1772025756241318000,4.74631787109375,0.3824768662452698,0.01041332259774208,-0.18047235906124115
1772025756251315700,4.756315673828125,0.3414926826953888,0.03576315566897392,-0.21649107336997986
1772025756261313000,4.76631298828125,0.31928032636642456,0.06532583385705948,-0.24467504024505615
1772025756271309800,4.776309814453125,0.3175380527973175,0.10405824333429337,-0.2597479820251465
1772025756281308000,4.786307861328125,0.33776795864105225,0.13698557019233704,-0.26394006609916687
1772025756291304700,4.7963046875,0.3701687455177307,0.15699157118797302,-0.2638387382030487
1772025756301302000,4.806302001953125,0.4106815457344055,0.1861846148967743,-0.2591627538204193
1772025756311299800,4.8162998046875,0.4548932611942291,0.224134624004364,-0.24545268714427948
1772025756321297000,4.826296875,0.5039383172988892,0.24681755900382996,-0.2347145527601242
1772025756331293700,4.836293701171875,0.5506584048271179,0.240976944565773,-0.21447399258613586
1772025756341292000,4.8462919921875,0.5985715985298157,0.24627584218978882,-0.1869576871395111
1772025756351288800,4.856288818359375,0.6389003396034241,0.2588368058204651,-0.14726991951465607
1772025756361287000,4.866286865234375,0.6666608452796936,0.2678377628326416,-0.10421671718358994
1772025756371283700,4.87628369140625,0.6864013671875,0.2847788333892822,-0.064409539103508
1772025756381281000,4.886281005859375,0.6915125250816345,0.2933398187160492,-0.029870739206671715
1772025756391279000,4.896279052734375,0.6880614757537842,0.287273645401001,0.00430216733366251
1772025756401276000,4.90627587890625,0.6675982475280762,0.2743256092071533,0.032936207950115204
1772025756411272700,4.916272705078125,0.6399415731430054,0.2722112238407135,0.07025327533483505
1772025756421270800,4.926270751953125,0.6093623638153076,0.26687052845954895,0.10252812504768372
1772025756431268000,4.93626806640625,0.5814753770828247,0.25795555114746094,0.1331605315208435
1772025756441266000,4.946265869140625,0.5586073398590088,0.26413434743881226,0.15042553842067719
1772025756451263000,4.956262939453125,0.5405313968658447,0.28824084997177124,0.16169218719005585
1772025756461259800,4.966259765625,0.5215030908584595,0.314002126455307,0.1607675403356552
1772025756471257300,4.97625732421875,0.5036063194274902,0.3428771495819092,0.1407991349697113
1772025756481254400,4.98625439453125,0.4957701861858368,0.36204472184181213,0.11461174488067627
1772025756491251200,4.996251220703125,0.49637967348098755,0.3650783598423004,0.0798838809132576
1772025756501249300,5.006249267578125,0.49838533997535706,0.3657265603542328,0.05635591223835945
1772025756511246300,5.016246337890625,0.4948189854621887,0.3691682517528534,0.03781557455658913
1772025756521243400,5.026243408203125,0.48600926995277405,0.3827788531780243,0.035585712641477585
1772025756531241500,5.036241455078125,0.4746720790863037,0.4115158021450043,0.05518970638513565
1772025756541238300,5.04623828125,0.4587881863117218,0.44005823135375977,0.09305878728628159
1772025756551236400,5.056236328125,0.4443413317203522,0.45976534485816956,0.14020952582359314
1772025756561233400,5.0662333984375,0.4297005832195282,0.4791252017021179,0.19601978361606598
1772025756571230500,5.07623046875,0.4164577126502991,0.5006607174873352,0.2550636827945709
1772025756581228300,5.086228271484375,0.4176715910434723,0.5405077338218689,0.3262563645839691
1772025756591225300,5.096225341796875,0.44540923833847046,0.5494964718818665,0.39154839515686035
1772025756601222400,5.106222412109375,0.4611456096172333,0.5091785788536072,0.4189259707927704
1772025756611220500,5.116220458984375,0.4392651617527008,0.43982160091400146,0.4061339497566223
1772025756621217300,5.12621728515625,0.3964037299156189,0.39419472217559814,0.3564830422401428
1772025756631214300,5.13621435546875,0.3301514685153961,0.38358137011528015,0.29797831177711487
1772025756641212200,5.146212158203125,0.2357674390077591,0.405001699924469,0.22215066850185394
1772025756651209500,5.15620947265625,0.10029960423707962,0.40915030241012573,0.13248656690120697
1772025756661206300,5.166206298828125,-0.05296850576996803,0.41910865902900696,0.040794193744659424
1772025756671204400,5.176204345703125,-0.169315367937088,0.43638870120048523,-0.013751166872680187
1772025756681201200,5.186201171875,-0.23399928212165833,0.44674572348594666,-0.025752702727913857
1772025756691199200,5.19619921875,-0.26944899559020996,0.4368215501308441,-0.020612342283129692
1772025756701196500,5.206196533203125,-0.2901100814342499,0.4117388427257538,-0.016551021486520767
1772025756711193300,5.216193359375,-0.29229700565338135,0.38306501507759094,-0.008877699263393879
1772025756721191400,5.22619140625,-0.26900315284729004,0.3677994906902313,0.004810149781405926
1772025756731188200,5.236188232421875,-0.23459908366203308,0.361532062292099,0.020341701805591583
1772025756741185500,5.246185546875,-0.1899605095386505,0.35754555463790894,0.04323423653841019
1772025756751183400,5.256183349609375,-0.139412060379982,0.3607748746871948,0.07140181213617325
1772025756761180400,5.266180419921875,-0.08329126238822937,0.35865795612335205,0.10213974863290787
1772025756771177200,5.27617724609375,-0.005259789060801268,0.35473859310150146,0.1509590446949005
1772025756781175300,5.28617529296875,0.07983274012804031,0.33914631605148315,0.2075488269329071
1772025756791172400,5.29617236328125,0.15518386662006378,0.31419065594673157,0.26247361302375793
1772025756801170400,5.30617041015625,0.21801155805587769,0.2903503179550171,0.31813928484916687
1772025756811167200,5.316167236328125,0.27708595991134644,0.26521000266075134,0.36913952231407166
1772025756821164300,5.326164306640625,0.3335806727409363,0.23089490830898285,0.4140462577342987
1772025756831161300,5.336161376953125,0.37095895409584045,0.19005616009235382,0.44235485792160034
1772025756841158400,5.346158447265625,0.3789055645465851,0.15434689819812775,0.4573734998703003
1772025756851156200,5.35615625,0.3729908764362335,0.10463802516460419,0.4587240517139435
1772025756861153300,5.3661533203125,0.34866049885749817,0.047630660235881805,0.45071297883987427
1772025756871150300,5.376150390625,0.3204767405986786,0.000982421450316906,0.43738242983818054
1772025756881148400,5.3861484375,0.2772350013256073,-0.026305392384529114,0.41157451272010803
1772025756891145200,5.396145263671875,0.23152358829975128,-0.04299379885196686,0.3785577416419983
1772025756901143300,5.406143310546875,0.18693907558918,-0.06282422691583633,0.33603212237358093
1772025756911140400,5.416140380859375,0.14681747555732727,-0.09921087324619293,0.2714559733867645
1772025756921137400,5.426137451171875,0.09327303618192673,-0.12505285441875458,0.1769166737794876
1772025756931135500,5.436135498046875,0.02750241756439209,-0.1543893665075302,0.0515778549015522
1772025756941132300,5.44613232421875,-0.05890597403049469,-0.18845519423484802,-0.10725360363721848
1772025756951129300,5.45612939453125,-0.16262906789779663,-0.21779391169548035,-0.27480271458625793
1772025756961127200,5.466127197265625,-0.25778672099113464,-0.2282705157995224,-0.42808762192726135
1772025756971124500,5.47612451171875,-0.3232380449771881,-0.21077635884284973,-0.5348162651062012
1772025756981121300,5.486121337890625,-0.3626147210597992,-0.16416864097118378,-0.5953272581100464
1772025756991119400,5.496119384765625,-0.3676190674304962,-0.09661006182432175,-0.6050512790679932
1772025757001116200,5.5061162109375,-0.33652159571647644,-0.01452717836946249,-0.5646061301231384
1772025757011114200,5.5161142578125,-0.2557687759399414,0.07043001800775528,-0.4946572184562683
1772025757021111300,5.526111328125,-0.14047783613204956,0.1521797478199005,-0.4055875241756439
1772025757031108400,5.5361083984375,-0.01645781472325325,0.22549599409103394,-0.32630473375320435
1772025757041106200,5.546106201171875,0.09944162517786026,0.26512303948402405,-0.27039405703544617
1772025757051103200,5.556103271484375,0.18513721227645874,0.26505303382873535,-0.25052109360694885
1772025757061100300,5.566100341796875,0.2434074431657791,0.2501412034034729,-0.2436639815568924
1772025757071098400,5.576098388671875,0.2831438481807709,0.23674389719963074,-0.2446404993534088
1772025757081095200,5.58609521484375,0.3034333884716034,0.2209540158510208,-0.24474462866783142
1772025757091092200,5.59609228515625,0.31496092677116394,0.18465988337993622,-0.24223558604717255
1772025757101090300,5.60609033203125,0.31909921765327454,0.15167637169361115,-0.23007053136825562
1772025757111087400,5.61608740234375,0.3117084801197052,0.10045358538627625,-0.21451261639595032
1772025757121084400,5.62608447265625,0.27665913105010986,0.03428042307496071,-0.19989745318889618
1772025757131082200,5.636082275390625,0.22670628130435944,-0.04733085259795189,-0.18916960060596466
1772025757141079600,5.64607958984375,0.17281001806259155,-0.12447543442249298,-0.18275271356105804
1772025757151077400,5.656077392578125,0.12429802119731903,-0.18935459852218628,-0.169703409075737
1772025757161074400,5.666074462890625,0.08648113906383514,-0.23944653570652008,-0.15152573585510254
1772025757171071200,5.6760712890625,0.06291849166154861,-0.2695956528186798,-0.13306190073490143
1772025757181069300,5.6860693359375,0.04311016574501991,-0.2854755222797394,-0.1132945865392685
1772025757191066400,5.69606640625,0.030055439099669456,-0.2828960716724396,-0.09615374356508255
1772025757201063400,5.7060634765625,0.032742030918598175,-0.26743215322494507,-0.08462359011173248
1772025757211061200,5.716061279296875,0.04897129163146019,-0.23049353063106537,-0.06904581934213638
1772025757221058300,5.726058349609375,0.083304762840271,-0.176591157913208,-0.06072210893034935
1772025757231055400,5.736055419921875,0.12036964297294617,-0.1246660053730011,-0.05755588784813881
1772025757241053400,5.746053466796875,0.15135738253593445,-0.09275734424591064,-0.05197896435856819
1772025757251050200,5.75605029296875,0.16564059257507324,-0.0636715516448021,-0.04431178793311119
1772025757261048300,5.76604833984375,0.1625787615776062,-0.041491154581308365,-0.02920633926987648
1772025757271045400,5.77604541015625,0.15866898000240326,-0.03871294483542442,-0.004160907119512558
1772025757281042400,5.78604248046875,0.1521652638912201,-0.05046280845999718,0.027226310223340988
1772025757291040500,5.79604052734375,0.1374656856060028,-0.0684463381767273,0.056996189057826996
1772025757301037300,5.806037353515625,0.12465027719736099,-0.09132768213748932,0.08397693932056427
1772025757311034400,5.816034423828125,0.11458053439855576,-0.1181056872010231,0.1041610911488533
1772025757321032200,5.8260322265625,0.11032507568597794,-0.15568023920059204,0.1065928190946579
1772025757331029500,5.836029541015625,0.10619086772203445,-0.20093654096126556,0.09797810763120651
1772025757341026300,5.8460263671875,0.10561669617891312,-0.2398163080215454,0.08743917942047119
1772025757351024400,5.8560244140625,0.11277380585670471,-0.26500988006591797,0.08503494411706924
1772025757361021200,5.866021240234375,0.12522195279598236,-0.27403879165649414,0.09752170741558075
1772025757371019300,5.876019287109375,0.14318035542964935,-0.27092787623405457,0.12618185579776764
1772025757381016300,5.886016357421875,0.1756879687309265,-0.24809101223945618,0.1701948493719101
1772025757391013400,5.896013427734375,0.23623935878276825,-0.20214375853538513,0.22781801223754883
1772025757401011200,5.90601123046875,0.30566662549972534,-0.1694318801164627,0.2963009178638458
1772025757411008300,5.91600830078125,0.32821059226989746,-0.1946926862001419,0.3304767310619354
1772025757421005300,5.92600537109375,0.2872871458530426,-0.23777277767658234,0.30886998772621155
1772025757431003400,5.93600341796875,0.2279648780822754,-0.2736838459968567,0.2602963149547577
1772025757441000200,5.946000244140625,0.1858147531747818,-0.2927342355251312,0.20999027788639069
1772025757450997200,5.955997314453125,0.13751056790351868,-0.28940218687057495,0.1486515998840332
1772025757460995300,5.965995361328125,0.07875297963619232,-0.30260932445526123,0.07313980162143707
1772025757470992400,5.975992431640625,0.02771715633571148,-0.2985292673110962,-0.0027964934706687927
1772025757480989700,5.98598974609375,0.014317993074655533,-0.27922239899635315,-0.06323985755443573
1772025757490986800,5.99598681640625,0.035488251596689224,-0.24772748351097107,-0.1107686311006546
1772025757500983800,6.00598388671875,0.0729549378156662,-0.20993003249168396,-0.13658158481121063
1772025757510982000,6.01598193359375,0.11374146491289139,-0.17049847543239594,-0.15890775620937347
1772025757520978700,6.025978759765625,0.1521969884634018,-0.1424681842327118,-0.17821700870990753
1772025757530975700,6.035975830078125,0.19251303374767303,-0.10136187076568604,-0.1784580647945404
1772025757540973600,6.0459736328125,0.23192328214645386,-0.06372314691543579,-0.14470942318439484
1772025757550971000,6.055970947265625,0.25513967871665955,-0.038582827895879745,-0.07669735699892044
1772025757560967700,6.0659677734375,0.26773563027381897,-0.01506099198013544,0.021475816145539284
1772025757570965800,6.0759658203125,0.2768768072128296,0.01315999124199152,0.14798150956630707
1772025757580962600,6.085962646484375,0.2855408489704132,0.02419533208012581,0.28032994270324707
1772025757590960600,6.095960693359375,0.2866511046886444,0.012337004765868187,0.392360121011734
1772025757600958000,6.1059580078125,0.26315829157829285,-0.008295569568872452,0.46981126070022583
1772025757610954800,6.115954833984375,0.2273300737142563,-0.017682187259197235,0.5090717673301697
1772025757620952800,6.125952880859375,0.18315409123897552,-0.016718922182917595,0.5116758346557617
1772025757630949600,6.13594970703125,0.11919306963682175,-0.008221535943448544,0.46837088465690613
1772025757640947000,6.145947021484375,0.05423164367675781,0.01698341779410839,0.39227294921875
1772025757650944800,6.15594482421875,-0.01570061780512333,0.07859230786561966,0.29516080021858215
1772025757660941800,6.16594189453125,-0.06555233150720596,0.17544667422771454,0.1968424916267395
1772025757670938600,6.175938720703125,-0.08697685599327087,0.2857677936553955,0.09860694408416748
1772025757680936700,6.185936767578125,-0.08729590475559235,0.39188382029533386,0.0004156635841354728
1772025757690933800,6.195933837890625,-0.07316011190414429,0.45470353960990906,-0.09549328684806824
1772025757700930800,6.205930908203125,-0.057397130876779556,0.43917331099510193,-0.18557444214820862
1772025757710928600,6.2159287109375,-0.059099286794662476,0.3917832374572754,-0.2711738348007202
1772025757720925700,6.22592578125,-0.06512388586997986,0.32797470688819885,-0.3549494445323944
1772025757730923800,6.235923828125,-0.07293876260519028,0.2555322051048279,-0.42761456966400146
1772025757740920800,6.2459208984375,-0.0659937709569931,0.2075766772031784,-0.4838317632675171
1772025757750917600,6.255917724609375,-0.038023337721824646,0.18467216193675995,-0.5070687532424927
1772025757760915700,6.265915771484375,0.004305211827158928,0.18163269758224487,-0.49255162477493286
1772025757770912800,6.275912841796875,0.051309000700712204,0.19270506501197815,-0.45443660020828247
1772025757780909800,6.285909912109375,0.10946737974882126,0.18852950632572174,-0.4056323170661926
1772025757790908000,6.295907958984375,0.1567688137292862,0.1567327231168747,-0.3632620573043823
1772025757800904700,6.30590478515625,0.1959787905216217,0.11698530614376068,-0.32394927740097046
1772025757810901800,6.31590185546875,0.2198132872581482,0.07048917561769485,-0.2987360656261444
1772025757820899800,6.32589990234375,0.21967773139476776,0.044194724410772324,-0.27327677607536316
1772025757830897000,6.33589697265625,0.19816571474075317,0.03565331548452377,-0.24624650180339813
1772025757840894700,6.345894775390625,0.16856496036052704,0.04700903594493866,-0.20900805294513702
1772025757850891800,6.355891845703125,0.1386478841304779,0.06443307548761368,-0.16414566338062286
1772025757860888800,6.365888916015625,0.09919155389070511,0.08110792934894562,-0.12785929441452026
1772025757870887000,6.375886962890625,0.05958672985434532,0.10769440978765488,-0.10274533927440643
1772025757880883700,6.3858837890625,0.021657992154359818,0.13444507122039795,-0.0929851233959198
1772025757890880800,6.395880859375,-0.020430872216820717,0.16233661770820618,-0.0893392488360405
1772025757900878600,6.405878662109375,-0.05042126402258873,0.2044193595647812,-0.09415504336357117
1772025757910876000,6.4158759765625,-0.053795985877513885,0.24061205983161926,-0.08953234553337097
1772025757920872700,6.425872802734375,-0.0215016957372427,0.2724948823451996,-0.088950976729393
1772025757930870800,6.435870849609375,0.025486670434474945,0.2815956771373749,-0.08664446324110031
1772025757940867600,6.44586767578125,0.0762190967798233,0.26983729004859924,-0.09263817220926285
1772025757950865700,6.45586572265625,0.1289196014404297,0.254157692193985,-0.09421423822641373
1772025757960862700,6.46586279296875,0.1752903014421463,0.24362649023532867,-0.08355493098497391
1772025757970859800,6.47585986328125,0.20849516987800598,0.24313832819461823,-0.0543234646320343
1772025757980857900,6.48585791015625,0.2288838028907776,0.24268639087677002,-0.013442875817418098
1772025757990854700,6.495854736328125,0.24142612516880035,0.23025597631931305,0.039659950882196426
1772025758000852000,6.50585205078125,0.25426337122917175,0.219856858253479,0.10335744172334671
1772025758010849800,6.515849853515625,0.26513975858688354,0.20267091691493988,0.17128309607505798
1772025758020846800,6.525846923828125,0.2616387605667114,0.17364752292633057,0.23519469797611237
1772025758030843600,6.53584375,0.2587653696537018,0.1589018553495407,0.29879477620124817
1772025758040841700,6.545841796875,0.24950556457042694,0.14309972524642944,0.34954288601875305
1772025758050838800,6.5558388671875,0.2332983762025833,0.12020910531282425,0.38095593452453613
1772025758060836900,6.5658369140625,0.2123137265443802,0.10278830677270889,0.3914927542209625
1772025758070833700,6.575833740234375,0.19663283228874207,0.12404756247997284,0.3877667784690857
1772025758080830700,6.585830810546875,0.19279201328754425,0.176414355635643,0.3787703514099121
1772025758090828500,6.59582861328125,0.22178973257541656,0.25720086693763733,0.37108680605888367
1772025758100825900,6.605825927734375,0.28113293647766113,0.3116864860057831,0.3602176606655121
1772025758110822700,6.61582275390625,0.3187483549118042,0.28511884808540344,0.3197234272956848
1772025758120820700,6.62582080078125,0.3068661093711853,0.23792336881160736,0.24768945574760437
1772025758130817500,6.635817626953125,0.28049686551094055,0.2089763730764389,0.16954362392425537
1772025758140814800,6.64581494140625,0.24819885194301605,0.1834622174501419,0.10665122419595718
1772025758150813000,6.65581298828125,0.2135523408651352,0.1695737987756729,0.05119308829307556
1772025758160809700,6.665809814453125,0.1895788311958313,0.15784257650375366,0.015507264994084835
1772025758170807800,6.675807861328125,0.1892237663269043,0.13282334804534912,0.0005496341618709266
1772025758180804600,6.6858046875,0.20248419046401978,0.11438282579183578,-0.006538901943713427
1772025758190802000,6.695802001953125,0.2297520488500595,0.10514983534812927,-0.00886584259569645
1772025758200799700,6.7057998046875,0.26779982447624207,0.07943568378686905,-0.02342880703508854
1772025758210796800,6.715796875,0.296932578086853,0.04260321706533432,-0.06153924763202667
1772025758220793600,6.725793701171875,0.31265881657600403,0.0020494009368121624,-0.12127155065536499
1772025758230791700,6.735791748046875,0.3206560015678406,-0.028086967766284943,-0.19145648181438446
1772025758240788700,6.745788818359375,0.3291573226451874,-0.030857454985380173,-0.24507497251033783
1772025758250785800,6.755785888671875,0.3320770263671875,-0.009185560047626495,-0.2828149199485779
1772025758260783600,6.76578369140625,0.323703795671463,0.016097959131002426,-0.3025702238082886
1772025758270781000,6.775781005859375,0.31832703948020935,0.04053705930709839,-0.30687257647514343
1772025758280778800,6.78577880859375,0.33375871181488037,0.06155392527580261,-0.29599568247795105
1772025758290775800,6.79577587890625,0.3568851053714752,0.06385292112827301,-0.2729741334915161
1772025758300772600,6.805772705078125,0.36907437443733215,0.05242636054754257,-0.24231873452663422
1772025758310770700,6.815770751953125,0.3854840099811554,0.05237169191241264,-0.1963292807340622
1772025758320767700,6.825767822265625,0.4155029058456421,0.10445167124271393,-0.12306971848011017
1772025758330764800,6.835764892578125,0.48261770606040955,0.1883210390806198,-0.007473738864064217
1772025758340763000,6.845762939453125,0.5890679955482483,0.2844526469707489,0.11692118644714355
1772025758350759700,6.855759765625,0.702621340751648,0.3439863622188568,0.21879447996616364
1772025758360756700,6.8657568359375,0.7825526595115662,0.3598092794418335,0.2814892828464508
1772025758370754800,6.8757548828125,0.812589168548584,0.3244873583316803,0.29651111364364624
1772025758380752000,6.885751953125,0.8160533905029297,0.26318883895874023,0.2796655595302582
1772025758390748700,6.895748779296875,0.799904465675354,0.20738977193832397,0.24828939139842987
1772025758400746800,6.905746826171875,0.7660317420959473,0.19283640384674072,0.20849376916885376
1772025758410743800,6.915743896484375,0.7187541127204895,0.1939176470041275,0.1596386879682541
1772025758420742000,6.925741943359375,0.6542949676513672,0.17577166855335236,0.11419183760881424
1772025758430738700,6.93573876953125,0.5808987617492676,0.1514277309179306,0.054507073014974594
1772025758440735700,6.94573583984375,0.4899749457836151,0.09682495146989822,-0.027301771566271782
1772025758450733600,6.955733642578125,0.3925187885761261,-0.01473521813750267,-0.13169509172439575
1772025758460731000,6.96573095703125,0.28434595465660095,-0.1312304139137268,-0.24130280315876007
1772025758470727700,6.975727783203125,0.17666473984718323,-0.20544296503067017,-0.35748475790023804
1772025758480729900,6.985729736328125,0.09765860438346863,-0.25203150510787964,-0.458881139755249
1772025758490727000,6.995726806640625,0.044839125126600266,-0.2558611333370209,-0.5422638058662415
1772025758500723700,7.0057236328125,0.02513599395751953,-0.1706295758485794,-0.5833163857460022
1772025758510722000,7.01572216796875,0.03488116338849068,-0.05532460659742355,-0.5842722058296204
1772025758520718800,7.02571875,0.10341361910104752,0.05800461396574974,-0.5494721531867981
1772025758530717000,7.035717041015625,0.22507378458976746,0.19520477950572968,-0.4840024709701538
1772025758540713700,7.045713623046875,0.37971022725105286,0.32472577691078186,-0.40603363513946533
1772025758550711000,7.0557109375,0.5323368310928345,0.4131716787815094,-0.34114372730255127
1772025758560708900,7.065708984375,0.6342863440513611,0.4498274326324463,-0.29528966546058655
1772025758570706000,7.075705810546875,0.6950467824935913,0.4574619233608246,-0.2625087797641754
1772025758580702700,7.08570263671875,0.7289586663246155,0.4336293041706085,-0.2222234010696411
1772025758590700800,7.09570068359375,0.7554001808166504,0.39522919058799744,-0.1888720989227295
1772025758600698000,7.105697998046875,0.7648916840553284,0.3537331223487854,-0.15322808921337128
1772025758610695000,7.11569482421875,0.7477362155914307,0.2992410659790039,-0.1163761243224144
1772025758620693000,7.12569287109375,0.7117422819137573,0.22407732903957367,-0.08734393864870071
1772025758630689800,7.135689697265625,0.6532220840454102,0.14294138550758362,-0.06278420239686966
1772025758640687900,7.14568798828125,0.5695689916610718,0.061989545822143555,-0.04064827039837837
1772025758650685000,7.155684814453125,0.4677075147628784,-0.014213419519364834,-0.023357508704066277
1772025758660682000,7.165681884765625,0.3569282591342926,-0.07653431594371796,-0.0011030696332454681
1772025758670679800,7.1756796875,0.25631895661354065,-0.11836721748113632,0.02364801988005638
1772025758680676900,7.1856767578125,0.17525207996368408,-0.14018754661083221,0.05961267650127411
1772025758690674000,7.195673828125,0.12167458236217499,-0.14250309765338898,0.09687816351652145
1772025758700672000,7.205672119140625,0.09495135396718979,-0.13493013381958008,0.12560142576694489
1772025758710668800,7.215668701171875,0.08093620836734772,-0.13557595014572144,0.1398935317993164
1772025758720665900,7.225665771484375,0.07670976966619492,-0.1418285220861435,0.14465740323066711
1772025758730663700,7.23566357421875,0.08442957699298859,-0.15672625601291656,0.13697679340839386
1772025758740661000,7.245660888671875,0.08908531814813614,-0.17953862249851227,0.1286887675523758
1772025758750657800,7.25565771484375,0.09103062003850937,-0.2100309431552887,0.10763534158468246
1772025758760656000,7.26565576171875,0.07053226977586746,-0.2501293420791626,0.07568620145320892
1772025758770652700,7.275652587890625,0.04900205880403519,-0.29419443011283875,0.0503535196185112
1772025758780650800,7.285650634765625,0.030388958752155304,-0.31748509407043457,0.039959732443094254
1772025758790648000,7.29564794921875,0.02159222774207592,-0.3275752663612366,0.03875293582677841
1772025758800644900,7.305644775390625,0.024745410308241844,-0.30300015211105347,0.055538833141326904
1772025758810643000,7.315642822265625,0.05604970082640648,-0.25368237495422363,0.08652131259441376
1772025758820639700,7.3256396484375,0.103078193962574,-0.2360413372516632,0.11642594635486603
1772025758830637000,7.335636962890625,0.12384580820798874,-0.25400030612945557,0.11582057178020477
1772025758840635000,7.345634765625,0.10413149744272232,-0.2727723717689514,0.07637383043766022
1772025758850632000,7.3556318359375,0.09412778913974762,-0.2828269600868225,0.023828517645597458
1772025758860628700,7.365628662109375,0.10612639039754868,-0.2783139646053314,-0.02615342289209366
1772025758870626800,7.375626708984375,0.120273157954216,-0.2809060215950012,-0.07083369046449661
1772025758880623900,7.385623779296875,0.13692352175712585,-0.2833974063396454,-0.10458419471979141
1772025758890622000,7.3956220703125,0.16125185787677765,-0.2809019088745117,-0.1266002058982849
1772025758900618800,7.40561865234375,0.19156235456466675,-0.2765982449054718,-0.12459272146224976
1772025758910615800,7.41561572265625,0.21774913370609283,-0.26830413937568665,-0.10542766004800797
1772025758920614000,7.42561376953125,0.22549386322498322,-0.2741985023021698,-0.08206747472286224
1772025758930611000,7.43561083984375,0.21385380625724792,-0.3018482029438019,-0.06730332970619202
1772025758940607700,7.445607666015625,0.18340802192687988,-0.31254106760025024,-0.061146095395088196
1772025758950605800,7.455605712890625,0.15250875055789948,-0.309476375579834,-0.05242350324988365
1772025758960603000,7.465602783203125,0.12408723682165146,-0.3387133479118347,-0.029293416067957878
1772025758970600000,7.475599853515625,0.09283898025751114,-0.31892794370651245,0.014048338867723942
1772025758980598000,7.485597900390625,0.07347353547811508,-0.2744278311729431,0.07974985241889954
1772025758990594800,7.4955947265625,0.07399986684322357,-0.22927600145339966,0.150268092751503
1772025759000593000,7.505593017578125,0.08975832909345627,-0.19445064663887024,0.23078928887844086
1772025759010590000,7.51558984375,0.1268886774778366,-0.13678741455078125,0.3116195499897003
1772025759020587000,7.5255869140625,0.16943401098251343,-0.040507495403289795,0.3905915915966034
1772025759030584800,7.535584716796875,0.19300316274166107,0.04679723456501961,0.44976186752319336
1772025759040582000,7.545581787109375,0.1783299446105957,0.13263703882694244,0.46313145756721497
1772025759050579000,7.555578857421875,0.16304795444011688,0.22800080478191376,0.44225451350212097
1772025759060577000,7.565576904296875,0.14534273743629456,0.2864236533641815,0.4057620167732239
1772025759070573800,7.57557373046875,0.11638958007097244,0.3046807646751404,0.34127098321914673
1772025759080571000,7.58557080078125,0.08170350641012192,0.3006942570209503,0.2736455798149109
1772025759090568700,7.595568603515625,0.021767258644104004,0.27311673760414124,0.2002795934677124
1772025759100566000,7.60556591796875,-0.037433747202157974,0.2513701617717743,0.13988097012043
1772025759110564000,7.615564208984375,-0.07842952013015747,0.2324368804693222,0.09230872243642807
1772025759120561000,7.625560791015625,-0.10514847934246063,0.190500870347023,0.042974721640348434
1772025759130557700,7.6355576171875,-0.12423505634069443,0.12989592552185059,-0.011670151725411415
1772025759140555800,7.6455556640625,-0.1521143615245819,0.057399626821279526,-0.08557260781526566
1772025759150553000,7.655552978515625,-0.19100387394428253,-0.051003579050302505,-0.18429388105869293
1772025759160550000,7.6655498046875,-0.23445546627044678,-0.1460541933774948,-0.29821324348449707
1772025759170548000,7.6755478515625,-0.26598644256591797,-0.22185955941677094,-0.42396989464759827
1772025759180544800,7.685544677734375,-0.2848203182220459,-0.25357910990715027,-0.5414347648620605
1772025759190542000,7.6955419921875,-0.2917754352092743,-0.2562063932418823,-0.6341575384140015
1772025759200540000,7.705539794921875,-0.2838258743286133,-0.21300138533115387,-0.6750034689903259
1772025759210537000,7.715536865234375,-0.24935400485992432,-0.13927964866161346,-0.6596889495849609
1772025759220534800,7.72553466796875,-0.207798033952713,-0.06859509646892548,-0.5907738208770752
1772025759230531800,7.73553173828125,-0.13544267416000366,-0.014555331319570541,-0.49275699257850647
1772025759240529000,7.74552880859375,-0.05452066659927368,0.029607335105538368,-0.38098201155662537
1772025759250527000,7.75552685546875,0.003018484450876713,0.054162248969078064,-0.27200907468795776
1772025759260523800,7.765523681640625,0.01772126369178295,0.05143384262919426,-0.18007035553455353
1772025759270520800,7.775520751953125,0.004986715503036976,0.039807092398405075,-0.11236564069986343
1772025759280518700,7.7855185546875,-0.019066687673330307,0.041013769805431366,-0.06607750803232193
1772025759290516000,7.795515869140625,-0.051319949328899384,0.05771079659461975,-0.04053515940904617
1772025759300512800,7.8055126953125,-0.09526050835847855,0.07877960056066513,-0.03691459447145462
1772025759310510800,7.8155107421875,-0.14856500923633575,0.1166396290063858,-0.051501259207725525
1772025759320507600,7.825507568359375,-0.2093021124601364,0.1646937131881714,-0.08620251715183258
1772025759330505000,7.8355048828125,-0.2583036422729492,0.22176054120063782,-0.12539924681186676
1772025759340503000,7.8455029296875,-0.28987354040145874,0.2749217450618744,-0.1720261424779892
1772025759350499800,7.855499755859375,-0.2941388487815857,0.31749746203422546,-0.2171054631471634
1772025759360498000,7.865497802734375,-0.2822025716304779,0.32411861419677734,-0.27189013361930847
1772025759370494700,7.87549462890625,-0.25887569785118103,0.29998254776000977,-0.3195711076259613
1772025759380492000,7.885491943359375,-0.2217315286397934,0.2658677101135254,-0.35173171758651733
1772025759390489900,7.89548974609375,-0.17414653301239014,0.2371685951948166,-0.35768556594848633
1772025759400487000,7.90548681640625,-0.12475607544183731,0.19949312508106232,-0.3475181460380554
1772025759410483700,7.915483642578125,-0.07600414007902145,0.15384627878665924,-0.31961387395858765
1772025759420482000,7.92548193359375,-0.024591289460659027,0.11176646500825882,-0.26922205090522766
1772025759430478800,7.935478759765625,0.02478008344769478,0.08246111869812012,-0.21377068758010864
1772025759440476000,7.945475830078125,0.0683685764670372,0.0445542149245739,-0.15178453922271729
1772025759450473700,7.9554736328125,0.10490357130765915,0.017295045778155327,-0.08936361223459244
1772025759460471000,7.965470947265625,0.13846391439437866,0.015651609748601913,-0.02252812311053276
1772025759470468900,7.97546875,0.1649751365184784,0.028656398877501488,0.03207537531852722
1772025759480462000,7.985462158203125,0.17171692848205566,0.04890095070004463,0.07797949016094208
1772025759490459000,7.995458984375,0.16635365784168243,0.06930281221866608,0.1095096617937088
1772025759500457000,8.00545703125,0.1464041918516159,0.08584610372781754,0.12007948011159897
1772025759510454000,8.0154541015625,0.11984649300575256,0.10943357646465302,0.12803320586681366
1772025759520451000,8.025451171875,0.09071976691484451,0.14500993490219116,0.12799325585365295
1772025759530449000,8.035448974609375,0.06036333367228508,0.16907167434692383,0.12820331752300262
1772025759540446000,8.045446044921874,0.04622221738100052,0.2151305079460144,0.14476072788238525
1772025759550443000,8.055443115234375,0.042959749698638916,0.22885558009147644,0.16080401837825775
1772025759560441000,8.065441162109375,0.01245190855115652,0.1918022185564041,0.1596681773662567
1772025759570438000,8.07543798828125,-0.043115660548210144,0.15942901372909546,0.1370222419500351
1772025759580436000,8.08543603515625,-0.09564224630594254,0.14300157129764557,0.12161453068256378
1772025759590432800,8.095432861328124,-0.1340603232383728,0.14608217775821686,0.10411428660154343
1772025759600430000,8.10543017578125,-0.17423224449157715,0.16791850328445435,0.10380323231220245
1772025759610428000,8.115427978515624,-0.20516227185726166,0.198201522231102,0.10300389677286148
1772025759620425000,8.125425048828125,-0.22278520464897156,0.22910697758197784,0.09062658995389938
1772025759630421800,8.135421875,-0.21701744198799133,0.25412657856941223,0.0745379626750946
1772025759640419800,8.145419921875,-0.17886313796043396,0.27166908979415894,0.0584479458630085
1772025759650417000,8.1554169921875,-0.10896661877632141,0.2744496464729309,0.040801312774419785
1772025759660414000,8.1654140625,-0.041361212730407715,0.2839885354042053,0.020942386239767075
1772025759670412000,8.175412109375,-0.00200720876455307,0.2934046983718872,-0.02675388939678669
1772025759680408800,8.185408935546874,0.04402366653084755,0.309519499540329,-0.06379739195108414
1772025759690407000,8.195406982421876,0.0843416303396225,0.2888732850551605,-0.08043817430734634
1772025759700404000,8.205404052734375,0.10790874063968658,0.24984386563301086,-0.10045342147350311
1772025759710401000,8.215401123046876,0.1289413571357727,0.20575931668281555,-0.09328713268041611
1772025759720398800,8.22539892578125,0.15846435725688934,0.1344395875930786,-0.07186466455459595
1772025759730396200,8.235396240234374,0.18767406046390533,0.05992273986339569,-0.03530742973089218
1772025759740393000,8.24539306640625,0.19916532933712006,-0.014326456934213638,0.00625173095613718
1772025759750391000,8.25539111328125,0.21834349632263184,-0.06610020250082016,0.0703028067946434
1772025759760387800,8.265387939453126,0.23754994571208954,-0.08037447929382324,0.1573740541934967
1772025759770385200,8.27538525390625,0.2520264685153961,-0.06341186165809631,0.258833646774292
1772025759780383000,8.285383056640624,0.2681010365486145,-0.03339830040931702,0.35252872109413147
1772025759790380000,8.295380126953125,0.28875410556793213,0.01386226899921894,0.4474404454231262
1772025759800376800,8.305376953125,0.30139240622520447,0.08705605566501617,0.5240347981452942
1772025759810375000,8.315375,0.30566638708114624,0.13698868453502655,0.5661733150482178
1772025759820372000,8.3253720703125,0.3191409111022949,0.127467080950737,0.5739494562149048
1772025759830370000,8.3353701171875,0.3341360092163086,0.08416435867547989,0.5617749094963074
1772025759840367000,8.3453671875,0.34989339113235474,0.041532211005687714,0.5393990278244019
1772025759850364000,8.355364013671876,0.3573545515537262,0.0024636765010654926,0.507346510887146
1772025759860362000,8.365362060546875,0.3421601355075836,-0.021294916048645973,0.46757644414901733
1772025759870359000,8.375359130859374,0.2835356593132019,-0.05354693904519081,0.40480682253837585
1772025759880356000,8.385356201171875,0.1800854504108429,-0.12016165256500244,0.29255059361457825
1772025759890354000,8.39535400390625,0.036148250102996826,-0.20158886909484863,0.13732825219631195
1772025759900351000,8.40535107421875,-0.13776469230651855,-0.2642535865306854,-0.04886559396982193
1772025759910348000,8.41534814453125,-0.3108491003513336,-0.2947007715702057,-0.2407771199941635
1772025759920346000,8.42534619140625,-0.44778192043304443,-0.2902892529964447,-0.409920871257782
1772025759930343000,8.435343017578125,-0.5586793422698975,-0.2615988254547119,-0.565616250038147
1772025759940341000,8.445341064453125,-0.6611124873161316,-0.20118767023086548,-0.686204731464386
1772025759950337800,8.455337890625,-0.7054667472839355,-0.11220603436231613,-0.7471395134925842
1772025759960335000,8.465335205078125,-0.6705995798110962,-0.0163335632532835,-0.7565380334854126
1772025759970333000,8.4753330078125,-0.5679210424423218,0.10487911105155945,-0.7218546271324158
1772025759980330000,8.485330078125,-0.40544259548187256,0.24868901073932648,-0.650558352470398
1772025759990326800,8.495326904296874,-0.21159790456295013,0.3990006744861603,-0.5506986975669861
1772025760000324900,8.505324951171875,-0.02720915898680687,0.49522656202316284,-0.465137243270874
1772025760010322000,8.515322021484375,0.09532718360424042,0.5171366333961487,-0.4034114480018616
1772025760020319000,8.525319091796876,0.15247569978237152,0.5120978951454163,-0.346290647983551
1772025760030317000,8.535317138671875,0.18905271589756012,0.5046530365943909,-0.28845536708831787
1772025760040313900,8.54531396484375,0.23374028503894806,0.47434625029563904,-0.2440761774778366
1772025760050312000,8.55531201171875,0.2818734347820282,0.41961026191711426,-0.2026645392179489
1772025760060309000,8.56530908203125,0.3363819420337677,0.35881856083869934,-0.1530892550945282
1772025760070306000,8.57530615234375,0.38054823875427246,0.2685009241104126,-0.11393994092941284
1772025760080303900,8.585303955078125,0.40640753507614136,0.16794075071811676,-0.09241200983524323
1772025760090301000,8.595301025390626,0.413186252117157,0.07766465097665787,-0.0792335644364357
1772025760100298000,8.605298095703125,0.4065888226032257,-0.006677661556750536,-0.07513176649808884
1772025760110296000,8.615296142578124,0.3842088282108307,-0.06481130421161652,-0.08023378252983093
1772025760120292900,8.62529296875,0.35219281911849976,-0.09498385339975357,-0.08424849808216095
1772025760130290000,8.6352900390625,0.3106297254562378,-0.09788533300161362,-0.08305372297763824
1772025760140288000,8.6452880859375,0.26763245463371277,-0.08961249142885208,-0.08263827115297318
1772025760150285000,8.65528515625,0.23282404243946075,-0.08279533684253693,-0.07376162707805634
1772025760160281900,8.66528173828125,0.19928312301635742,-0.06356864422559738,-0.06841133534908295
1772025760170280000,8.675280029296875,0.1784753054380417,-0.03656342625617981,-0.06481792777776718
1772025760180277000,8.685277099609374,0.1558392345905304,-0.03926227614283562,-0.06914583593606949
1772025760190275000,8.695275146484375,0.1412879079580307,-0.07427001744508743,-0.07840239256620407
1772025760200272000,8.70527197265625,0.12707354128360748,-0.1128925159573555,-0.0845862552523613
1772025760210269000,8.71526904296875,0.1253676414489746,-0.15085157752037048,-0.07917158305644989
1772025760220267000,8.72526708984375,0.13050062954425812,-0.16298386454582214,-0.06442113220691681
1772025760230264000,8.73526416015625,0.1361418217420578,-0.1674424111843109,-0.05449864640831947
1772025760240261000,8.74526123046875,0.15054233372211456,-0.17051677405834198,-0.026100827381014824
1772025760250259000,8.755259033203124,0.16832415759563446,-0.16666585206985474,0.003394540399312973
1772025760260256000,8.765256103515625,0.19244520366191864,-0.15893788635730743,0.05289098620414734
1772025760270253000,8.775253173828125,0.22862888872623444,-0.13947975635528564,0.10669557005167007
1772025760280251100,8.785251220703126,0.2803591787815094,-0.11070484668016434,0.16516847908496857
1772025760290248000,8.795248046875,0.3300299644470215,-0.1367146074771881,0.20215903222560883
1772025760300246000,8.80524609375,0.3303537964820862,-0.20674988627433777,0.205134317278862
1772025760310242800,8.815242919921875,0.2730325758457184,-0.26760631799697876,0.1794416904449463
1772025760320240000,8.825240234375,0.21343688666820526,-0.3038460910320282,0.1450727880001068
1772025760330238000,8.835238037109375,0.18041472136974335,-0.32734188437461853,0.12112830579280853
1772025760340235000,8.845235107421875,0.16494840383529663,-0.33691835403442383,0.11360940337181091
1772025760350231800,8.855231689453126,0.16353021562099457,-0.34058550000190735,0.11845757067203522
1772025760360230000,8.86522998046875,0.16568605601787567,-0.34515494108200073,0.1356315016746521
1772025760370227000,8.87522705078125,0.1712431162595749,-0.3603353500366211,0.151731476187706
1772025760380224000,8.88522412109375,0.18312133848667145,-0.3789505958557129,0.162003293633461
1772025760390222000,8.89522216796875,0.18544374406337738,-0.40732643008232117,0.15595878660678864
1772025760400219000,8.905218994140625,0.1693316251039505,-0.4212145507335663,0.12827841937541962
1772025760410217000,8.915217041015625,0.12738686800003052,-0.4175046682357788,0.09572283178567886
1772025760420214000,8.925214111328126,0.07797323912382126,-0.39976826310157776,0.06770797073841095
1772025760430211000,8.935211181640625,0.034062471240758896,-0.36452382802963257,0.0568162240087986
1772025760440209000,8.945208984375,-0.0063315569423139095,-0.3181765675544739,0.07476726174354553
1772025760450206000,8.9552060546875,-0.04130160063505173,-0.25560298562049866,0.10215269774198532
1772025760460203000,8.965203125,-0.07437139749526978,-0.193638414144516,0.12118151783943176
1772025760470201000,8.975201171875,-0.10390869528055191,-0.15311728417873383,0.13279807567596436
1772025760480199000,8.985198974609375,-0.12409093230962753,-0.10823769122362137,0.1629738211631775
1772025760490196000,8.995196044921874,-0.12119299918413162,-0.0348639115691185,0.21561498939990997
1772025760500194000,9.005194091796875,-0.10213994234800339,0.0634666457772255,0.28597062826156616
1772025760510190800,9.01519091796875,-0.0795583575963974,0.15888866782188416,0.36311689019203186
1772025760520188000,9.02518798828125,-0.04915571212768555,0.23429127037525177,0.42432618141174316
1772025760530186000,9.03518603515625,-0.0358797088265419,0.2818395793437958,0.46848759055137634
1772025760540183000,9.04518310546875,-0.03020823746919632,0.3026772141456604,0.49467286467552185
1772025760550180900,9.055180908203125,-0.0472787469625473,0.30919501185417175,0.5041068196296692
1772025760560178000,9.065177978515624,-0.07121044397354126,0.28998351097106934,0.4886740446090698
1772025760570175000,9.075175048828125,-0.11091076582670212,0.27391502261161804,0.4493446350097656
1772025760580173000,9.085173095703125,-0.16301177442073822,0.2537551820278168,0.38768821954727173
1772025760590169900,9.095169921875,-0.20053842663764954,0.23481523990631104,0.32046735286712646
1772025760600167000,9.1051669921875,-0.2319067269563675,0.2173374444246292,0.24064789712429047
1772025760610165000,9.1151650390625,-0.25853896141052246,0.18645773828029633,0.15708285570144653
1772025760620162000,9.125162109375,-0.2722398638725281,0.14146283268928528,0.06292812526226044
1772025760630158800,9.135158935546874,-0.2770451307296753,0.09737926721572876,-0.03785994276404381
1772025760640157000,9.145156982421875,-0.28372591733932495,0.029234834015369415,-0.14755715429782867
1772025760650154000,9.155154052734375,-0.28597885370254517,-0.034166473895311356,-0.26852595806121826
1772025760660152000,9.165152099609376,-0.28843188285827637,-0.07004724442958832,-0.38703903555870056
1772025760670148900,9.17514892578125,-0.27959826588630676,-0.08123091608285904,-0.48993927240371704
1772025760680146000,9.18514599609375,-0.2595382630825043,-0.061528317630290985,-0.570863664150238
1772025760690144000,9.19514404296875,-0.21911513805389404,-0.03195109963417053,-0.6279911994934082
1772025760700141000,9.20514111328125,-0.16331499814987183,0.007729469798505306,-0.6429964900016785
1772025760710137900,9.215137939453125,-0.0934985801577568,0.04869489371776581,-0.6282591223716736
1772025760720136000,9.225135986328125,-0.03131190687417984,0.07194721698760986,-0.5868120789527893
1772025760730133000,9.235133056640626,0.018344081938266754,0.08841544389724731,-0.5283277630805969
1772025760740130000,9.245130126953125,0.04571845009922981,0.08713366836309433,-0.46350690722465515
1772025760750128000,9.255128173828124,0.0540284737944603,0.05836034566164017,-0.4072646200656891
1772025760760125000,9.265125,0.05253231152892113,0.020604711025953293,-0.35651808977127075
1772025760770123000,9.275123046875,0.03785238042473793,-0.0044309841468930244,-0.3109074532985687
1772025760780119800,9.285119873046876,-0.0025056935846805573,-0.0023012543097138405,-0.26750460267066956
1772025760790117000,9.2951171875,-0.055612288415431976,0.009284639731049538,-0.2481689751148224
1772025760800115000,9.305114990234374,-0.12012097239494324,0.029561413452029228,-0.22260530292987823
1772025760810112000,9.315112060546875,-0.18067575991153717,0.05926980823278427,-0.20084379613399506
1772025760820108800,9.32510888671875,-0.22405973076820374,0.0897398367524147,-0.18387652933597565
1772025760830107000,9.33510693359375,-0.23715655505657196,0.12036512047052383,-0.17538012564182281
1772025760840104000,9.34510400390625,-0.22335100173950195,0.15422323346138,-0.1735856831073761
1772025760850101000,9.35510107421875,-0.1985154151916504,0.17585718631744385,-0.17815780639648438
1772025760860099000,9.36509912109375,-0.17592647671699524,0.19961470365524292,-0.1875944435596466
1772025760870096000,9.375095947265624,-0.14626328647136688,0.2177303284406662,-0.19167420268058777
1772025760880094000,9.385093994140625,-0.10658271610736847,0.2450524866580963,-0.18664322793483734
1772025760890091000,9.395091064453124,-0.07442671060562134,0.26774775981903076,-0.17895302176475525
1772025760900088000,9.405088134765625,-0.047825995832681656,0.2846023738384247,-0.15428043901920319
1772025760910086000,9.4150859375,-0.023679206147789955,0.29222583770751953,-0.11560529470443726
1772025760920083000,9.4250830078125,-0.004794199950993061,0.2766290307044983,-0.07028467953205109
1772025760930080000,9.435080078125,0.003987531177699566,0.24738702178001404,-0.0110398568212986
1772025760940078000,9.445078125,-0.00019256665837019682,0.21410790085792542,0.058378901332616806
1772025760950075000,9.455074951171875,-0.005949195008724928,0.16267134249210358,0.1397838592529297
1772025760960072000,9.465072021484374,-0.00795775093138218,0.15240806341171265,0.22493764758110046
1772025760970069800,9.47506982421875,-0.009810881689190865,0.1434217393398285,0.3076874315738678
1772025760980067000,9.485067138671875,-0.02548225224018097,0.12381450086832047,0.37603825330734253
1772025760990063900,9.49506396484375,-0.05419956520199776,0.12048949301242828,0.43685680627822876
1772025761000062000,9.50506201171875,-0.07608329504728317,0.13531558215618134,0.49573424458503723
1772025761010058800,9.515058837890624,-0.0778479054570198,0.16521622240543365,0.546522319316864
1772025761020057000,9.52505712890625,-0.062252964824438095,0.17188823223114014,0.5890750885009766
1772025761030054000,9.535053955078125,-0.07196055352687836,0.14754660427570343,0.5916159152984619
1772025761040051000,9.545051025390626,-0.11723562330007553,0.13239721953868866,0.5581128001213074
1772025761050049000,9.555049072265625,-0.191329225897789,0.13702808320522308,0.5077494978904724
1772025761060046000,9.565046142578124,-0.2658167779445648,0.1400715410709381,0.4503171145915985
1772025761070043000,9.57504296875,-0.33630165457725525,0.13859492540359497,0.39035364985466003
1772025761080041000,9.585041015625,-0.3813530206680298,0.14358516037464142,0.33991897106170654
1772025761090038000,9.5950380859375,-0.4046145975589752,0.1588207185268402,0.309847891330719
1772025761100035000,9.60503515625,-0.39913859963417053,0.17732995748519897,0.2948950529098511
1772025761110033200,9.615033203125,-0.3528766632080078,0.18956983089447021,0.29256510734558105
1772025761120030000,9.625030029296875,-0.31026557087898254,0.20427794754505157,0.286369264125824
1772025761130028000,9.635028076171874,-0.2733544707298279,0.19487355649471283,0.2612280547618866
1772025761140024800,9.64502490234375,-0.24713031947612762,0.17299142479896545,0.21463021636009216
1772025761150022100,9.655022216796874,-0.22868646681308746,0.14693696796894073,0.1657872498035431
1772025761160020000,9.66502001953125,-0.21624977886676788,0.12391261756420135,0.1169147789478302
1772025761170017000,9.67501708984375,-0.20236225426197052,0.12098800390958786,0.0886262059211731
1772025761180013800,9.685013916015626,-0.19063208997249603,0.13387185335159302,0.08212782442569733
1772025761190012000,9.695011962890625,-0.16878755390644073,0.14032195508480072,0.08730581402778625
1772025761200009000,9.705009033203124,-0.14446063339710236,0.13177186250686646,0.1025281772017479
1772025761210006000,9.715006103515625,-0.11673155426979065,0.11007851362228394,0.1276356726884842
1772025761220003800,9.72500390625,-0.08959314227104187,0.10336814820766449,0.17242391407489777
1772025761230001000,9.7350009765625,-0.05734413117170334,0.13178087770938873,0.24049776792526245
1772025761239998000,9.744998046875,0.002040098886936903,0.1957888901233673,0.3409940004348755
1772025761249996000,9.75499609375,0.07729034870862961,0.24354591965675354,0.44615909457206726
1772025761259993000,9.7649931640625,0.1463618129491806,0.25264647603034973,0.5238168835639954
1772025761269991000,9.774990966796874,0.2003280073404312,0.23278941214084625,0.5584099888801575
1772025761279988000,9.784988037109375,0.2430427074432373,0.1901783049106598,0.562330424785614
1772025761289985000,9.794985107421875,0.28441834449768066,0.15010860562324524,0.548865795135498
1772025761299983000,9.804983154296876,0.3218488097190857,0.10775022208690643,0.5296516418457031
1772025761309980000,9.81497998046875,0.3387431502342224,0.0704837441444397,0.5004310011863708
1772025761319977000,9.82497705078125,0.3332245349884033,0.05003412440419197,0.4624024033546448
1772025761329974800,9.834974853515625,0.3085160553455353,0.02034425549209118,0.4070057272911072
1772025761339972000,9.84497216796875,0.26630067825317383,-0.020407967269420624,0.3387419581413269
1772025761349969000,9.854968994140625,0.20570847392082214,-0.06922759860754013,0.26019224524497986
1772025761359967000,9.864967041015625,0.11900900304317474,-0.12522535026073456,0.1606941521167755
1772025761369963800,9.8749638671875,0.03212498873472214,-0.2023954689502716,0.03765558823943138
1772025761379961900,9.8849619140625,-0.06350299715995789,-0.27582627534866333,-0.09965620189905167
1772025761389959000,9.894958984375,-0.1488761305809021,-0.329075425863266,-0.2538665533065796
1772025761399956000,9.9049560546875,-0.21779288351535797,-0.3399643003940582,-0.4015766382217407
1772025761409954000,9.9149541015625,-0.2522815763950348,-0.30744603276252747,-0.5182664394378662
1772025761419950800,9.924950927734375,-0.2615791857242584,-0.22219984233379364,-0.6069549918174744
1772025761429948000,9.934947998046875,-0.25022709369659424,-0.11453382670879364,-0.6528019309043884
1772025761439946000,9.944946044921876,-0.20457811653614044,-0.01595665141940117,-0.6776859760284424
1772025761449944000,9.954944091796875,-0.12736302614212036,0.062083788216114044,-0.6811082363128662
1772025761459940900,9.96494091796875,-0.03034379333257675,0.13122184574604034,-0.6639268398284912
1772025761469938000,9.97493798828125,0.0548371821641922,0.1833687424659729,-0.6330538988113403
1772025761479935000,9.98493505859375,0.11288530379533768,0.20926079154014587,-0.5971877574920654
1772025761489932000,9.99493212890625,0.1425083726644516,0.19355960190296173,-0.550187885761261
1772025761499928800,10.0049287109375,0.15614083409309387,0.15320418775081635,-0.488357275724411
1772025761509927000,10.014927001953126,0.16551630198955536,0.10064765065908432,-0.40260565280914307
1772025761519924000,10.024924072265625,0.16489392518997192,0.04842732846736908,-0.31289947032928467
1772025761529922000,10.034922119140624,0.1591808795928955,-0.013312242925167084,-0.23166078329086304
1772025761539918800,10.0449189453125,0.1563403606414795,-0.05764029175043106,-0.16889594495296478
1772025761549916000,10.054916015625,0.14770764112472534,-0.10051007568836212,-0.12466946989297867
1772025761559914200,10.064914306640626,0.14098794758319855,-0.14184845983982086,-0.10594452172517776
1772025761569911000,10.0749111328125,0.12974107265472412,-0.15677917003631592,-0.10383310914039612
1772025761579907800,10.084907958984376,0.10714653134346008,-0.16892850399017334,-0.10952214896678925
1772025761589906000,10.094906005859375,0.0869005098938942,-0.1656121462583542,-0.1147828921675682
1772025761599903200,10.1049033203125,0.0719015896320343,-0.15483592450618744,-0.10316139459609985
1772025761609900000,10.114900146484375,0.058096230030059814,-0.14810523390769958,-0.0821671113371849
1772025761619898000,10.124898193359375,0.04054439812898636,-0.158438041806221,-0.04838304966688156
1772025761629895000,10.13489501953125,0.01681935414671898,-0.17991606891155243,-0.013844643719494343
1772025761639893000,10.14489306640625,-0.007082782685756683,-0.21126839518547058,0.02512166276574135
1772025761649890000,10.15489013671875,-0.024249030277132988,-0.250587522983551,0.06576457619667053
1772025761659887000,10.16488720703125,-0.03757229074835777,-0.2914910316467285,0.10672932118177414
1772025761669885000,10.174885009765624,-0.057350944727659225,-0.31482309103012085,0.13594533503055573
1772025761679882000,10.184882080078125,-0.08249278366565704,-0.34058520197868347,0.14864568412303925
1772025761689879000,10.194879150390625,-0.09744510799646378,-0.3673176169395447,0.15691228210926056
1772025761699877000,10.204877197265626,-0.1074223741889,-0.3537924885749817,0.16701896488666534
1772025761709874000,10.2148740234375,-0.10764060914516449,-0.3233872056007385,0.17097169160842896
1772025761719871000,10.22487109375,-0.09467075020074844,-0.29724428057670593,0.17657871544361115
1772025761729868800,10.234868896484375,-0.07209377735853195,-0.2690911889076233,0.1876489371061325
1772025761739866000,10.2448662109375,-0.03504202142357826,-0.22742868959903717,0.2020723521709442
1772025761749863000,10.25486279296875,0.014746865257620811,-0.19952549040317535,0.21157890558242798
1772025761759861000,10.264861083984375,0.060991063714027405,-0.2183748036623001,0.221869096159935
1772025761769857800,10.27485791015625,0.06612960249185562,-0.2693588137626648,0.2079603374004364
1772025761779856000,10.28485595703125,0.03734748810529709,-0.3221743702888489,0.1746455281972885
1772025761789853200,10.294853271484374,0.020239677280187607,-0.35355791449546814,0.15794798731803894
1772025761799850000,10.30485009765625,0.02073822170495987,-0.3566719591617584,0.16923817992210388
1772025761809848000,10.31484814453125,0.03604351356625557,-0.33430996537208557,0.19220313429832458
1772025761819844900,10.324844970703126,0.053938090801239014,-0.3034447431564331,0.21884752810001373
1772025761829842200,10.33484228515625,0.08059598505496979,-0.28709980845451355,0.2496401071548462
1772025761839840000,10.344840087890624,0.11135122925043106,-0.2838081419467926,0.27041810750961304
1772025761849837000,10.354837158203125,0.13081037998199463,-0.297840416431427,0.27835991978645325
1772025761859833900,10.364833740234374,0.14519278705120087,-0.32559508085250854,0.2765284478664398
1772025761869832000,10.37483203125,0.14659354090690613,-0.353808730840683,0.2694931924343109
1772025761879829000,10.3848291015625,0.11977552622556686,-0.371332585811615,0.2500041723251343
1772025761889827000,10.3948271484375,0.0792325958609581,-0.38184884190559387,0.22446304559707642
1772025761899823900,10.404823974609375,0.03363821655511856,-0.3748559057712555,0.1958436518907547
1772025761909821000,10.414821044921876,-0.004264119081199169,-0.35509127378463745,0.16641688346862793
1772025761919819000,10.424819091796875,-0.03420310840010643,-0.32863569259643555,0.14187052845954895
1772025761929816000,10.434816162109374,-0.0665254220366478,-0.285707950592041,0.1256120800971985
1772025761939812900,10.444812744140625,-0.10081788152456284,-0.236344113945961,0.11612482368946075
1772025761949811000,10.45481103515625,-0.12850598990917206,-0.1941172480583191,0.12243881821632385
1772025761959808000,10.46480810546875,-0.14359945058822632,-0.13961352407932281,0.14414837956428528
1772025761969805000,10.47480517578125,-0.14673089981079102,-0.10104494541883469,0.18562676012516022
1772025761979803100,10.48480322265625,-0.14923080801963806,-0.05310245603322983,0.2483668327331543
1772025761989800000,10.494800048828125,-0.1587221622467041,0.014925061725080013,0.3200402855873108
1772025761999797000,10.504796875,-0.17404359579086304,0.07342085987329483,0.3785738945007324
1772025762009795000,10.514795166015626,-0.19213595986366272,0.11052288115024567,0.4094651937484741
1772025762019792100,10.524792236328125,-0.20531567931175232,0.12851999700069427,0.4090699851512909
1772025762029790000,10.5347900390625,-0.23956623673439026,0.1343347430229187,0.3714596927165985
1772025762039787000,10.544787109375,-0.2758012115955353,0.13587696850299835,0.30477866530418396
1772025762049784000,10.5547841796875,-0.32313647866249084,0.15117329359054565,0.2314247041940689
1772025762059782100,10.5647822265625,-0.35917118191719055,0.17978709936141968,0.1521269530057907
1772025762069779000,10.574779052734375,-0.36501917243003845,0.20862449705600739,0.08550286293029785
1772025762079776000,10.58477587890625,-0.35804620385169983,0.22462423145771027,0.013720819726586342
1772025762089773800,10.59477392578125,-0.3481591045856476,0.2154747098684311,-0.058626145124435425
1772025762099771100,10.604771240234374,-0.3447398543357849,0.189875066280365,-0.1436198651790619
1772025762109768000,10.614767822265625,-0.3566887676715851,0.14803136885166168,-0.24302855134010315
1772025762119766000,10.62476611328125,-0.37541237473487854,0.0824720710515976,-0.35970669984817505
1772025762129762800,10.6347626953125,-0.4052996039390564,0.020010750740766525,-0.47375181317329407
1772025762139760000,10.644760009765625,-0.4311847388744354,-0.01968073472380638,-0.5673701763153076
1772025762149758200,10.65475830078125,-0.43415817618370056,-0.042054109275341034,-0.6113537549972534
1772025762159755000,10.664755126953125,-0.41558903455734253,-0.03776322305202484,-0.606307327747345
1772025762169753000,10.674753173828124,-0.38141196966171265,-0.0018187252571806312,-0.5530965328216553
1772025762179750000,10.68475,-0.3261883854866028,0.035941436886787415,-0.4810737371444702
1772025762189747200,10.694747314453124,-0.2629131078720093,0.05552377551794052,-0.3904259204864502
1772025762199745000,10.7047451171875,-0.2117479294538498,0.08280172944068909,-0.29608985781669617
1772025762209742000,10.7147421875,-0.16619080305099487,0.10875176638364792,-0.2046452909708023
1772025762219739000,10.72473876953125,-0.14591775834560394,0.12595126032829285,-0.1363418698310852
1772025762229737000,10.734737060546875,-0.14418931305408478,0.11121062934398651,-0.07116274535655975
1772025762239734000,10.744734130859374,-0.1616159826517105,0.08346421271562576,-0.010039202868938446
1772025762249731000,10.75473095703125,-0.19890007376670837,0.06488858908414841,0.06263729184865952
1772025762259729000,10.76472900390625,-0.26496484875679016,0.01321687363088131,0.12112697213888168
1772025762269726000,10.774725830078125,-0.3231714367866516,-0.07047497481107712,0.1268686056137085
1772025762279723000,10.784722900390625,-0.345711350440979,-0.1261017620563507,0.09255164861679077
1772025762289721000,10.79472119140625,-0.3452727496623993,-0.12718553841114044,0.05063789337873459
1772025762299718000,10.8047177734375,-0.3383170962333679,-0.06089893728494644,-0.002651959890499711
1772025762309716000,10.814716064453124,-0.30941063165664673,0.03891931101679802,-0.06671413779258728
1772025762319713000,10.824713134765625,-0.25776633620262146,0.12895677983760834,-0.1409984827041626
1772025762329710000,10.8347099609375,-0.19807671010494232,0.13893286883831024,-0.2136063575744629
1772025762339708200,10.844708251953126,-0.14451707899570465,0.1296917051076889,-0.2651859223842621
1772025762349705000,10.854705078125,-0.08805711567401886,0.13721419870853424,-0.2915523648262024
1772025762359702000,10.864701904296876,-0.03390625864267349,0.12044186145067215,-0.2865453362464905
1772025762369699800,10.874699951171875,0.0018991917604580522,0.07463564723730087,-0.26257482171058655
