time,seconds_elapsed,z,y,x
1772025692483743500,0.083743408203125,0.6875258088111877,0.44738128781318665,0.11321403831243515
1772025692493740300,0.093740234375,0.6230160593986511,0.4228975176811218,0.16624636948108673
1772025692503738400,0.10373828125,0.5766108632087708,0.39018410444259644,0.19568516314029694
1772025692513735200,0.113735107421875,0.5546640157699585,0.3741809129714966,0.21283112466335297
1772025692523732500,0.123732421875,0.5455363988876343,0.38155117630958557,0.21113832294940948
1772025692533730300,0.133730224609375,0.5373029708862305,0.37818145751953125,0.18464651703834534
1772025692543727400,0.143727294921875,0.52772456407547,0.35878968238830566,0.13685229420661926
1772025692553725400,0.153725341796875,0.5300713181495667,0.33676135540008545,0.07343550771474838
1772025692563722500,0.163722412109375,0.5430946350097656,0.3024921715259552,0.00898830033838749
1772025692573720600,0.173720458984375,0.5657323002815247,0.23976916074752808,-0.059879980981349945
1772025692583717400,0.18371728515625,0.5808743834495544,0.17444093525409698,-0.11983683705329895
1772025692593714400,0.19371435546875,0.5858238935470581,0.11796994507312775,-0.17374056577682495
1772025692603712300,0.203712158203125,0.5965426564216614,0.07655148208141327,-0.2026343196630478
1772025692613709600,0.21370947265625,0.6173613667488098,0.05033105984330177,-0.21014124155044556
1772025692623707400,0.223707275390625,0.6424404382705688,0.028900813311338425,-0.1928938925266266
1772025692633704400,0.233704345703125,0.6811534762382507,0.021741436794400215,-0.1611495465040207
1772025692643701200,0.243701171875,0.7167163491249084,0.03607332706451416,-0.12082315236330032
1772025692653699300,0.25369921875,0.7470793128013611,0.06176350638270378,-0.07976333051919937
1772025692663696400,0.2636962890625,0.7792119979858398,0.07710865885019302,-0.043932873755693436
1772025692673694500,0.273694580078125,0.8064857125282288,0.09511163085699081,-0.024468358606100082
1772025692683691300,0.283691162109375,0.8392325043678284,0.12983207404613495,-0.008724113926291466
1772025692693689300,0.293689453125,0.8849853277206421,0.18909725546836853,0.016544491052627563
1772025692703686400,0.303686279296875,0.9249459505081177,0.2818014621734619,0.0461607500910759
1772025692713683500,0.313683349609375,0.9595382809638977,0.3640795648097992,0.07324030250310898
1772025692723681500,0.323681640625,0.9877367615699768,0.4471955895423889,0.09293501079082489
1772025692733678300,0.33367822265625,1.0107768774032593,0.494825154542923,0.10113382339477539
1772025692743676400,0.343676513671875,1.0454909801483154,0.48280975222587585,0.09790413081645966
1772025692753673200,0.353673095703125,1.0777157545089722,0.430420845746994,0.08737318962812424
1772025692763671300,0.36367138671875,1.104507565498352,0.3544633984565735,0.06446952372789383
1772025692773668400,0.37366845703125,1.1308095455169678,0.25964125990867615,0.040247540920972824
1772025692783665400,0.38366552734375,1.1494723558425903,0.1744779795408249,0.01732325367629528
1772025692793663200,0.393663330078125,1.159458041191101,0.09388034045696259,-0.00788809359073639
1772025692803660300,0.403660400390625,1.1340738534927368,0.0108967125415802,-0.05507995933294296
1772025692813658400,0.413658447265625,1.0750787258148193,-0.057254377752542496,-0.12205180525779724
1772025692823655400,0.423655517578125,0.9941154718399048,-0.10698296129703522,-0.20207658410072327
1772025692833653500,0.433653564453125,0.896589994430542,-0.13979630172252655,-0.29226770997047424
1772025692843650300,0.443650390625,0.7943859100341797,-0.15029005706310272,-0.39281412959098816
1772025692853647400,0.4536474609375,0.710757851600647,-0.1284976750612259,-0.4836212694644928
1772025692863645400,0.4636455078125,0.6429461240768433,-0.06442488729953766,-0.5556734204292297
1772025692873642500,0.473642578125,0.6031947135925293,0.021640222519636154,-0.5894902348518372
1772025692883640300,0.483640380859375,0.589130163192749,0.11557874083518982,-0.5879339575767517
1772025692893637400,0.493637451171875,0.6070013046264648,0.21554234623908997,-0.5467218160629272
1772025692903634400,0.503634521484375,0.6577451229095459,0.31788724660873413,-0.47461599111557007
1772025692913632500,0.513632568359375,0.7284581661224365,0.3961232006549835,-0.38348662853240967
1772025692923629300,0.52362939453125,0.8008273243904114,0.446768194437027,-0.29947251081466675
1772025692933627400,0.53362744140625,0.8529000878334045,0.4739404320716858,-0.2233833223581314
1772025692943624400,0.54362451171875,0.8906387686729431,0.4809544086456299,-0.17063935101032257
1772025692953622300,0.553622314453125,0.9090502858161926,0.47641903162002563,-0.13410957157611847
1772025692963619600,0.56361962890625,0.9122459888458252,0.4539148211479187,-0.11925674974918365
1772025692973616400,0.573616455078125,0.9004085063934326,0.4259375035762787,-0.11944716423749924
1772025692983614500,0.583614501953125,0.8854316473007202,0.377412885427475,-0.13463161885738373
1772025692993611300,0.593611328125,0.8675413131713867,0.3055243194103241,-0.1580439954996109
1772025693003609300,0.603609375,0.8433369994163513,0.21791332960128784,-0.1748126596212387
1772025693013606400,0.6136064453125,0.8086122870445251,0.13731223344802856,-0.1825486123561859
1772025693023604500,0.6236044921875,0.7675654292106628,0.08041047304868698,-0.179345041513443
1772025693033601300,0.633601318359375,0.7316238880157471,0.038603637367486954,-0.16082806885242462
1772025693043598300,0.643598388671875,0.713705837726593,0.003263960825279355,-0.1286194622516632
1772025693053596400,0.653596435546875,0.709753155708313,-0.037899985909461975,-0.09364388883113861
1772025693063593500,0.663593505859375,0.7101069688796997,-0.08038190007209778,-0.05329814553260803
1772025693073591600,0.673591552734375,0.6978763937950134,-0.1265355497598648,-0.023348499089479446
1772025693083588400,0.68358837890625,0.6759506464004517,-0.19220411777496338,-0.01364310085773468
1772025693093585400,0.69358544921875,0.6454441547393799,-0.25967931747436523,-0.011324552819132805
1772025693103583200,0.703583251953125,0.6047413349151611,-0.31419870257377625,-0.01616119220852852
1772025693113580500,0.71358056640625,0.5699495673179626,-0.36010733246803284,-0.022045979276299477
1772025693123578400,0.723578369140625,0.5428234338760376,-0.3915911018848419,-0.025173835456371307
1772025693133575400,0.733575439453125,0.5137366652488708,-0.4074949622154236,-0.03481927141547203
1772025693143573200,0.7435732421875,0.49788132309913635,-0.4127894937992096,-0.037862684577703476
1772025693153570300,0.7535703125,0.4920378029346466,-0.3560175597667694,-0.0038836803287267685
1772025693163567400,0.7635673828125,0.5051845908164978,-0.2161763608455658,0.07850883156061172
1772025693173565400,0.7735654296875,0.5473523139953613,-0.004713648930191994,0.20166513323783875
1772025693183562200,0.783562255859375,0.5960054993629456,0.14979152381420135,0.30098751187324524
1772025693193560300,0.793560302734375,0.6229327321052551,0.17461536824703217,0.33782491087913513
1772025693203557400,0.803557373046875,0.6198517084121704,0.13124534487724304,0.304208904504776
1772025693213555500,0.813555419921875,0.6053524017333984,0.08045513927936554,0.2317032814025879
1772025693223552500,0.823552490234375,0.592956006526947,0.04739817604422569,0.15383541584014893
1772025693233549300,0.83354931640625,0.5763059258460999,0.019322333857417107,0.06880388408899307
1772025693243547400,0.84354736328125,0.5320187211036682,-0.029034284874796867,-0.02177043817937374
1772025693253544400,0.85354443359375,0.4771362841129303,-0.07238628715276718,-0.10272174328565598
1772025693263542500,0.86354248046875,0.4399978816509247,-0.07681702822446823,-0.14867839217185974
1772025693273539300,0.873539306640625,0.4318605959415436,-0.05653758719563484,-0.14155815541744232
1772025693283536400,0.883536376953125,0.4320521652698517,-0.0312135498970747,-0.10925128310918808
1772025693293534200,0.8935341796875,0.41915369033813477,-0.0023456825874745846,-0.048926956951618195
1772025693303531500,0.903531494140625,0.40905457735061646,0.03674549236893654,0.030497100204229355
1772025693313529600,0.913529541015625,0.40307071805000305,0.08089137822389603,0.11871963739395142
1772025693323526400,0.9235263671875,0.41103750467300415,0.125344380736351,0.20045426487922668
1772025693333524500,0.9335244140625,0.41928982734680176,0.16339457035064697,0.26491767168045044
1772025693343521300,0.943521240234375,0.42085346579551697,0.19953098893165588,0.30882421135902405
1772025693353518600,0.9535185546875,0.42683175206184387,0.23613721132278442,0.3439505100250244
1772025693363516400,0.963516357421875,0.4369974434375763,0.26856300234794617,0.3639027178287506
1772025693373513500,0.973513427734375,0.45400145649909973,0.28571218252182007,0.3840031921863556
1772025693383511300,0.98351123046875,0.4722268581390381,0.2865166962146759,0.4021269381046295
1772025693393508400,0.99350830078125,0.4800315201282501,0.282739520072937,0.4170542359352112
1772025693403505400,1.00350537109375,0.48409220576286316,0.2641807496547699,0.42685022950172424
1772025693413500200,1.013500244140625,0.47625160217285156,0.23942989110946655,0.43631216883659363
1772025693423497000,1.0234970703125,0.47178715467453003,0.21763525903224945,0.43730106949806213
1772025693433495000,1.0334951171875,0.4664110243320465,0.19860057532787323,0.4304439425468445
1772025693443491800,1.043491943359375,0.45297569036483765,0.16537129878997803,0.40892109274864197
1772025693453490000,1.053489990234375,0.4303326904773712,0.1131214052438736,0.37013107538223267
1772025693463487200,1.0634873046875,0.3881622850894928,0.04971928521990776,0.3001854121685028
1772025693473484000,1.073484130859375,0.3272390067577362,-0.017281318083405495,0.2087465524673462
1772025693483482000,1.083482177734375,0.25832444429397583,-0.07087000459432602,0.10236914455890656
1772025693493479000,1.09347900390625,0.1870257556438446,-0.10157225281000137,-0.015000891871750355
1772025693503477000,1.10347705078125,0.11652479320764542,-0.10154232382774353,-0.13404761254787445
1772025693513474000,1.11347412109375,0.06741077452898026,-0.07578502595424652,-0.24620716273784637
1772025693523472100,1.12347216796875,0.05224490165710449,-0.010527110658586025,-0.324634313583374
1772025693533469000,1.133468994140625,0.07159942388534546,0.08556107431650162,-0.3699458837509155
1772025693543466000,1.143466064453125,0.11368121951818466,0.17438071966171265,-0.3846614956855774
1772025693553463800,1.1534638671875,0.16065990924835205,0.23822468519210815,-0.369897723197937
1772025693563461000,1.163461181640625,0.21198126673698425,0.2829130291938782,-0.3333613872528076
1772025693573459200,1.173459228515625,0.2581562399864197,0.30144092440605164,-0.2821621000766754
1772025693583456000,1.1834560546875,0.2891608774662018,0.297529399394989,-0.24693840742111206
1772025693593453000,1.193453125,0.30197229981422424,0.27048659324645996,-0.2210484743118286
1772025693603451100,1.203451171875,0.2967109680175781,0.22969649732112885,-0.20913149416446686
1772025693613448200,1.2134482421875,0.27176833152770996,0.18450850248336792,-0.2055514007806778
1772025693623446000,1.223446044921875,0.22641059756278992,0.14441180229187012,-0.21769866347312927
1772025693633443000,1.233443115234375,0.1662876009941101,0.12456273287534714,-0.23266535997390747
1772025693643441000,1.24344091796875,0.10292626917362213,0.12321370095014572,-0.253776878118515
1772025693653438200,1.253438232421875,0.03524735942482948,0.13554733991622925,-0.2733798921108246
1772025693663435000,1.26343505859375,-0.03671371936798096,0.16027849912643433,-0.27946043014526367
1772025693673433000,1.27343310546875,-0.08964643627405167,0.19661040604114532,-0.28229668736457825
1772025693683430000,1.283429931640625,-0.12805289030075073,0.22337214648723602,-0.2800880968570709
1772025693693428000,1.293427978515625,-0.14842501282691956,0.21635392308235168,-0.28820595145225525
1772025693703425000,1.303425048828125,-0.15457342565059662,0.18013881146907806,-0.30230817198753357
1772025693713422000,1.313422119140625,-0.1516287624835968,0.14519281685352325,-0.31822988390922546
1772025693723420200,1.323420166015625,-0.13980701565742493,0.1275879442691803,-0.32903623580932617
1772025693733417000,1.3334169921875,-0.12051135301589966,0.11847354471683502,-0.33445361256599426
1772025693743415000,1.3434150390625,-0.09653566032648087,0.11859963834285736,-0.3401136100292206
1772025693753412000,1.353412109375,-0.05929401144385338,0.13064219057559967,-0.3351971507072449
1772025693763410200,1.36341015625,-0.01277458667755127,0.14781656861305237,-0.3225257396697998
1772025693773407000,1.373406982421875,0.043631430715322495,0.16619344055652618,-0.2958906888961792
1772025693783404000,1.383404052734375,0.10061035305261612,0.1820315569639206,-0.25198593735694885
1772025693793401900,1.39340185546875,0.15545308589935303,0.19616255164146423,-0.19392475485801697
1772025693803399200,1.403399169921875,0.20256932079792023,0.17509883642196655,-0.13208995759487152
1772025693813397000,1.41339697265625,0.23385347425937653,0.13590162992477417,-0.07584585249423981
1772025693823394000,1.42339404296875,0.25919201970100403,0.07793325930833817,-0.03170960769057274
1772025693833390800,1.433390869140625,0.2699565291404724,0.013813931494951248,-0.001758631900884211
1772025693843389000,1.443388916015625,0.2633095681667328,-0.04968399927020073,0.01560906134545803
1772025693853386200,1.45338623046875,0.243717759847641,-0.09320724010467529,0.020156141370534897
1772025693863384000,1.463384033203125,0.21883250772953033,-0.11548040062189102,0.017909830436110497
1772025693873381000,1.473381103515625,0.19015692174434662,-0.11169897764921188,-0.0030146269127726555
1772025693883379000,1.48337890625,0.16583098471164703,-0.07810021936893463,-0.016454709693789482
1772025693893376000,1.4933759765625,0.1538073569536209,-0.00594293512403965,-0.024969635531306267
1772025693903373000,1.503373046875,0.154178187251091,0.10290677100419998,-0.02163316309452057
1772025693913371100,1.51337109375,0.186270073056221,0.24138128757476807,-0.0025518801994621754
1772025693923368000,1.523367919921875,0.2304317206144333,0.3238827884197235,0.0002520479029044509
1772025693933366000,1.533365966796875,0.24951034784317017,0.2981891632080078,-0.03522125631570816
1772025693943363000,1.543363037109375,0.2368137240409851,0.21181590855121613,-0.09149491786956787
1772025693953360100,1.553360107421875,0.21143433451652527,0.13498878479003906,-0.14451153576374054
1772025693963358200,1.563358154296875,0.16929425299167633,0.07796693593263626,-0.18359892070293427
1772025693973355000,1.57335498046875,0.1156291514635086,0.013978101313114166,-0.21512649953365326
1772025693983353000,1.58335302734375,0.059775594621896744,-0.05431155115365982,-0.23751522600650787
1772025693993350100,1.59335009765625,0.013375071808695793,-0.10131394863128662,-0.2520422339439392
1772025694003348200,1.60334814453125,-0.017387650907039642,-0.12851445376873016,-0.2491399347782135
1772025694013345000,1.613344970703125,-0.033890727907419205,-0.13583947718143463,-0.22640132904052734
1772025694023342000,1.623342041015625,-0.04235423728823662,-0.1284724920988083,-0.18885767459869385
1772025694033340000,1.63333984375,-0.029401419684290886,-0.11187273263931274,-0.13998015224933624
1772025694043337200,1.643337158203125,-0.006197314243763685,-0.09449309855699539,-0.08065478503704071
1772025694053335000,1.6533349609375,0.03239881247282028,-0.07297688722610474,-0.014672034420073032
1772025694063332000,1.66333203125,0.07432199269533157,-0.0681067407131195,0.04386143386363983
1772025694073329000,1.673328857421875,0.11252237111330032,-0.06029515713453293,0.0864214077591896
1772025694083327000,1.683326904296875,0.15455639362335205,-0.0619472973048687,0.10901781171560287
1772025694093324000,1.693323974609375,0.19131360948085785,-0.046345170587301254,0.12292883545160294
1772025694103322000,1.703322021484375,0.22924098372459412,-0.003955117426812649,0.13448652625083923
1772025694113319200,1.713319091796875,0.2796308994293213,0.07146640121936798,0.16605244576931
1772025694123317000,1.72331689453125,0.3409861624240875,0.1715172529220581,0.208808034658432
1772025694133314000,1.73331396484375,0.3981194794178009,0.25328534841537476,0.2501075267791748
1772025694143311000,1.74331103515625,0.4398522973060608,0.3019353151321411,0.28788942098617554
1772025694153309200,1.75330908203125,0.47627609968185425,0.3113967478275299,0.30365318059921265
1772025694163306000,1.763305908203125,0.5143271088600159,0.2830495834350586,0.3157403767108917
1772025694173304000,1.773303955078125,0.5501322746276855,0.2312905192375183,0.3134250342845917
1772025694183300900,1.78330078125,0.5834265351295471,0.17775200307369232,0.3100948631763458
1772025694193298200,1.793298095703125,0.6049768328666687,0.13124069571495056,0.2997857630252838
1772025694203296000,1.8032958984375,0.6084426641464233,0.09364127367734909,0.2720566987991333
1772025694213293000,1.81329296875,0.5898258686065674,0.04904504120349884,0.22284305095672607
1772025694223291100,1.823291015625,0.551403284072876,0.010032448917627335,0.16390633583068848
1772025694233288000,1.833287841796875,0.4841720759868622,-0.03946266695857048,0.08850212395191193
1772025694243286000,1.8432861328125,0.38511431217193604,-0.09213980287313461,-0.009326374158263206
1772025694253283000,1.853282958984375,0.2618999779224396,-0.1450650691986084,-0.12870310246944427
1772025694263280000,1.863280029296875,0.15289439260959625,-0.21091076731681824,-0.25805455446243286
1772025694273278000,1.87327783203125,0.0724131390452385,-0.2654230296611786,-0.3757268488407135
1772025694283275000,1.88327490234375,0.017551438882946968,-0.3056252598762512,-0.47090640664100647
1772025694293273000,1.893273193359375,-0.013107402250170708,-0.3130813241004944,-0.5331569910049438
1772025694303270100,1.903270263671875,-0.008937358856201172,-0.2801382541656494,-0.5478919148445129
1772025694313267000,1.913266845703125,0.03169182687997818,-0.21353499591350555,-0.5205543041229248
1772025694323265000,1.92326513671875,0.09816034138202667,-0.13062399625778198,-0.4562396705150604
1772025694333262000,1.933261962890625,0.19989149272441864,-0.045067545026540756,-0.372959166765213
1772025694343260200,1.94326025390625,0.32629844546318054,0.03077666088938713,-0.2852673828601837
1772025694353257000,1.953257080078125,0.45028990507125854,0.08719998598098755,-0.21058782935142517
1772025694363255000,1.963255126953125,0.5485028624534607,0.11653316766023636,-0.1557069569826126
1772025694373252000,1.973252197265625,0.6131598949432373,0.12208958715200424,-0.115499347448349
1772025694383249200,1.983249267578125,0.6457282304763794,0.11638127267360687,-0.0927729681134224
1772025694393247200,1.993247314453125,0.6563201546669006,0.10415416955947876,-0.08594462275505066
1772025694403244000,2.003244140625,0.6443330645561218,0.08573354780673981,-0.08702745288610458
1772025694413241600,2.01324169921875,0.6304638385772705,0.0541473925113678,-0.0973551943898201
1772025694423238400,2.02323828125,0.5962647795677185,0.004066633526235819,-0.11445510387420654
1772025694433235500,2.0332353515625,0.5486128330230713,-0.056086719036102295,-0.13777987658977509
1772025694443233500,2.043233642578125,0.4813856780529022,-0.11339116096496582,-0.1503712683916092
1772025694453230600,2.053230712890625,0.41143667697906494,-0.14022596180438995,-0.145451620221138
1772025694463228400,2.063228515625,0.3358807861804962,-0.15478643774986267,-0.12350285798311234
1772025694473225500,2.0732255859375,0.2691936194896698,-0.1768408715724945,-0.0891755074262619
1772025694483223600,2.0832236328125,0.21076600253582,-0.20684148371219635,-0.03774707019329071
1772025694493220600,2.093220703125,0.15350644290447235,-0.252568781375885,0.005306389182806015
1772025694503217400,2.103217529296875,0.09737003594636917,-0.3156936764717102,0.04201265797019005
1772025694513215500,2.113215576171875,0.04524238407611847,-0.38591110706329346,0.07086827605962753
1772025694523212500,2.123212646484375,-0.008907257579267025,-0.43876558542251587,0.09859371930360794
1772025694533210600,2.133210693359375,-0.05157056450843811,-0.4709288477897644,0.12066386640071869
1772025694543207400,2.14320751953125,-0.08311478048563004,-0.48747754096984863,0.1403750479221344
1772025694553204500,2.15320458984375,-0.11069741100072861,-0.4775724411010742,0.15353453159332275
1772025694563202600,2.16320263671875,-0.13953572511672974,-0.44669073820114136,0.1637866199016571
1772025694573199600,2.17319970703125,-0.16120053827762604,-0.39349037408828735,0.16590890288352966
1772025694583197700,2.18319775390625,-0.1588405966758728,-0.2817313075065613,0.18033383786678314
1772025694593194500,2.193194580078125,-0.1259327083826065,-0.18097859621047974,0.20250944793224335
1772025694603191600,2.203191650390625,-0.10937397181987762,-0.16418230533599854,0.1921878308057785
1772025694613189400,2.213189453125,-0.13192401826381683,-0.22234387695789337,0.1423555612564087
1772025694623186700,2.223186767578125,-0.18131166696548462,-0.2941989302635193,0.06900152564048767
1772025694633184500,2.2331845703125,-0.2445809245109558,-0.3416745662689209,-0.014887512661516666
1772025694643181600,2.243181640625,-0.32145431637763977,-0.3730010986328125,-0.10960333049297333
1772025694653179400,2.253179443359375,-0.39840397238731384,-0.3825741112232208,-0.21076244115829468
1772025694663176400,2.263176513671875,-0.4619642198085785,-0.3670607805252075,-0.29782769083976746
1772025694673173500,2.273173583984375,-0.4994881749153137,-0.3357042074203491,-0.3652365505695343
1772025694683171600,2.283171630859375,-0.5046561360359192,-0.26742488145828247,-0.39824220538139343
1772025694693168400,2.29316845703125,-0.4973953068256378,-0.2028975784778595,-0.42954152822494507
1772025694703166500,2.30316650390625,-0.4915236234664917,-0.18927164375782013,-0.46109575033187866
1772025694713163500,2.31316357421875,-0.49904146790504456,-0.21729448437690735,-0.49223530292510986
1772025694723160600,2.32316064453125,-0.5140501856803894,-0.2500848174095154,-0.5063682794570923
1772025694733158700,2.33315869140625,-0.5241331458091736,-0.26983270049095154,-0.49854975938796997
1772025694743155500,2.343155517578125,-0.531085193157196,-0.27160975337028503,-0.4764149487018585
1772025694753153500,2.353153564453125,-0.5186799168586731,-0.2546219825744629,-0.4325881004333496
1772025694763150300,2.363150390625,-0.4949395954608917,-0.22497323155403137,-0.3626999258995056
1772025694773148400,2.3731484375,-0.4611770808696747,-0.1569470465183258,-0.2685246765613556
1772025694783145500,2.3831455078125,-0.40771010518074036,-0.052446845918893814,-0.1399516463279724
1772025694793142500,2.393142578125,-0.33300524950027466,0.0846867710351944,0.009720124304294586
1772025694803140400,2.403140380859375,-0.26563170552253723,0.2125585526227951,0.1596018224954605
1772025694813137400,2.413137451171875,-0.2142593413591385,0.2817605137825012,0.2830505073070526
1772025694823135500,2.423135498046875,-0.17374996840953827,0.2771953046321869,0.37384504079818726
1772025694833132500,2.433132568359375,-0.14381177723407745,0.22805093228816986,0.4349765479564667
1772025694843129300,2.44312939453125,-0.14488190412521362,0.17957159876823425,0.471606969833374
1772025694853127400,2.45312744140625,-0.17418305575847626,0.1435619294643402,0.5000849366188049
1772025694863124700,2.463124755859375,-0.22361263632774353,0.12289866805076599,0.5309625864028931
1772025694873122600,2.47312255859375,-0.2883298397064209,0.1132284626364708,0.5593678951263428
1772025694883119600,2.48311962890625,-0.36210477352142334,0.10651945322751999,0.5814064145088196
1772025694893116400,2.493116455078125,-0.4399942457675934,0.10001734644174576,0.5987409353256226
1772025694903114500,2.503114501953125,-0.5059254765510559,0.11287478357553482,0.6004825234413147
1772025694913111600,2.513111572265625,-0.5674426555633545,0.12737596035003662,0.5835203528404236
1772025694923109600,2.523109619140625,-0.6128039956092834,0.1330941915512085,0.5421540141105652
1772025694933106400,2.5331064453125,-0.6428079605102539,0.13804741203784943,0.4772602617740631
1772025694943104500,2.5431044921875,-0.6476321220397949,0.14948150515556335,0.40197449922561646
1772025694953101300,2.553101318359375,-0.6348769068717957,0.1697247177362442,0.32796338200569153
1772025694963098600,2.5630986328125,-0.6025874614715576,0.19919653236865997,0.2632370889186859
1772025694973096700,2.5730966796875,-0.5648502111434937,0.22940608859062195,0.2065836489200592
1772025694983093500,2.583093505859375,-0.5232825875282288,0.2679423391819,0.16119951009750366
1772025694993091600,2.593091552734375,-0.48365500569343567,0.31271031498908997,0.11914872378110886
1772025695003088400,2.60308837890625,-0.44248679280281067,0.34853607416152954,0.07722201943397522
1772025695013085700,2.613085693359375,-0.4014860987663269,0.3782862424850464,0.035140082240104675
1772025695023083500,2.62308349609375,-0.3590323030948639,0.3923749029636383,-0.004843483678996563
1772025695033080600,2.63308056640625,-0.3196244537830353,0.3885362446308136,-0.04446705803275108
1772025695043078400,2.643078369140625,-0.28273072838783264,0.3694498538970947,-0.07589255273342133
1772025695053075500,2.653075439453125,-0.25247108936309814,0.33908477425575256,-0.10461980104446411
1772025695063072500,2.663072509765625,-0.23466967046260834,0.29892852902412415,-0.13208617269992828
1772025695073070600,2.673070556640625,-0.23665958642959595,0.26775917410850525,-0.16018997132778168
1772025695083067400,2.6830673828125,-0.24837297201156616,0.23845627903938293,-0.18464882671833038
1772025695093065500,2.6930654296875,-0.2653871178627014,0.21581673622131348,-0.19475898146629333
1772025695103062300,2.703062255859375,-0.2799200713634491,0.20850466191768646,-0.1983039826154709
1772025695113060400,2.713060302734375,-0.28390201926231384,0.2076825499534607,-0.19536305963993073
1772025695123057700,2.7230576171875,-0.2750910818576813,0.21973752975463867,-0.17573468387126923
1772025695133054500,2.733054443359375,-0.24516968429088593,0.22708919644355774,-0.15701958537101746
1772025695143052500,2.743052490234375,-0.20112158358097076,0.23457223176956177,-0.1357279121875763
1772025695153049300,2.75304931640625,-0.14802028238773346,0.24141016602516174,-0.10353615880012512
1772025695163047700,2.763047607421875,-0.0903814285993576,0.26417386531829834,-0.07074688374996185
1772025695173044500,2.77304443359375,-0.0454978421330452,0.2824538052082062,-0.046575501561164856
1772025695183041500,2.78304150390625,-0.014710754156112671,0.2934137284755707,-0.03379758074879646
1772025695193039400,2.793039306640625,0.020698368549346924,0.2921633720397949,-0.02541741542518139
1772025695203036700,2.80303662109375,0.05411276966333389,0.28880083560943604,-0.01708012819290161
1772025695213034500,2.813034423828125,0.08453352749347687,0.26482093334198,-0.0012969046365469694
1772025695223031600,2.823031494140625,0.10689692199230194,0.24100957810878754,0.024907682090997696
1772025695233029600,2.833029541015625,0.13134261965751648,0.2072976976633072,0.05616440623998642
1772025695243026400,2.8430263671875,0.1550964117050171,0.1672983467578888,0.09652860462665558
1772025695253023700,2.853023681640625,0.16666492819786072,0.12703587114810944,0.14025239646434784
1772025695263021600,2.863021484375,0.16543178260326385,0.08514824509620667,0.17503470182418823
1772025695273018600,2.8730185546875,0.15913553535938263,0.058680687099695206,0.21809881925582886
1772025695283016400,2.883016357421875,0.15045005083084106,0.08722680807113647,0.2713053822517395
1772025695293013500,2.893013427734375,0.142180398106575,0.18223613500595093,0.3337644934654236
1772025695303010600,2.903010498046875,0.13678088784217834,0.27444249391555786,0.38785529136657715
1772025695313008600,2.913008544921875,0.11951747536659241,0.30602890253067017,0.39129024744033813
1772025695323005400,2.92300537109375,0.08054888248443604,0.29429197311401367,0.34915590286254883
1772025695333003500,2.93300341796875,0.030861759558320045,0.2983724772930145,0.2838139235973358
1772025695343000300,2.943000244140625,-0.011658142320811749,0.3223176598548889,0.2021460235118866
1772025695352997600,2.95299755859375,-0.06329896301031113,0.3145018219947815,0.09246133267879486
1772025695362995700,2.96299560546875,-0.12418608367443085,0.23957295715808868,-0.04673866927623749
1772025695372992500,2.972992431640625,-0.17994976043701172,0.12793457508087158,-0.19599846005439758
1772025695382990600,2.982990478515625,-0.20966830849647522,0.029635649174451828,-0.3244639039039612
1772025695392987400,2.9929873046875,-0.20307324826717377,-0.032107606530189514,-0.4210037589073181
1772025695402984700,3.002984619140625,-0.1774367243051529,-0.07159474492073059,-0.4855210483074188
1772025695412982800,3.012982666015625,-0.15537509322166443,-0.07560813426971436,-0.5216593146324158
1772025695422979800,3.022979736328125,-0.12959468364715576,-0.05238272622227669,-0.5421155095100403
1772025695432978000,3.03297802734375,-0.09535176306962967,-0.000368260545656085,-0.523390531539917
1772025695442974700,3.042974609375,-0.061216503381729126,0.09196656197309494,-0.4735608696937561
1772025695452972800,3.052972900390625,-0.015657007694244385,0.22129471600055695,-0.38050204515457153
1772025695462969900,3.062969970703125,0.055758506059646606,0.3721001446247101,-0.24959996342658997
1772025695472967000,3.072966796875,0.16465382277965546,0.5092782378196716,-0.0798005536198616
1772025695482964700,3.08296484375,0.30823829770088196,0.5833829045295715,0.10426588356494904
1772025695492961800,3.0929619140625,0.4545166790485382,0.5736836194992065,0.2806084454059601
1772025695502959600,3.102959716796875,0.5695428252220154,0.49945399165153503,0.43585044145584106
1772025695512957000,3.11295703125,0.6304900646209717,0.4097701609134674,0.5558207631111145
1772025695522953700,3.12295361328125,0.6308135986328125,0.34334611892700195,0.6401463150978088
1772025695532951800,3.132951904296875,0.5837520956993103,0.29259613156318665,0.6972018480300903
1772025695542948600,3.142948486328125,0.5174952149391174,0.2492411732673645,0.7134678959846497
1772025695552946700,3.15294677734375,0.44749030470848083,0.1980174034833908,0.7077868580818176
1772025695562943700,3.16294384765625,0.4034814238548279,0.1477583348751068,0.7002382278442383
1772025695572940800,3.17294091796875,0.37808576226234436,0.09773272275924683,0.6955521106719971
1772025695582939000,3.18293896484375,0.3543418347835541,0.040615264326334,0.6876497864723206
1772025695592935700,3.192935791015625,0.31488096714019775,-0.03404592350125313,0.6639612317085266
1772025695602933800,3.202933837890625,0.24545474350452423,-0.13112245500087738,0.6045951247215271
1772025695612930800,3.212930908203125,0.1324501633644104,-0.23416122794151306,0.5011451840400696
1772025695622928000,3.222927978515625,-0.014342011883854866,-0.34162312746047974,0.3515869379043579
1772025695632925700,3.23292578125,-0.1702069789171219,-0.4444331228733063,0.17102620005607605
1772025695642922800,3.2429228515625,-0.29905062913894653,-0.5162408351898193,-0.01589769311249256
1772025695652920800,3.2529208984375,-0.3876361548900604,-0.5266402363777161,-0.17832015454769135
1772025695662918000,3.26291796875,-0.4512031376361847,-0.4938018023967743,-0.31065633893013
1772025695672914700,3.272914794921875,-0.499820739030838,-0.42044422030448914,-0.40421798825263977
1772025695682912800,3.282912841796875,-0.5114213228225708,-0.3114513158798218,-0.4563162922859192
1772025695692909800,3.292909912109375,-0.4888018071651459,-0.19802677631378174,-0.4797409474849701
1772025695702908000,3.302907958984375,-0.42360013723373413,-0.11289379000663757,-0.4772030711174011
1772025695712904700,3.31290478515625,-0.34305575489997864,-0.05197025462985039,-0.4709659218788147
1772025695722902800,3.32290283203125,-0.2545364797115326,-0.005546854343265295,-0.46495941281318665
1772025695732899800,3.33289990234375,-0.17593462765216827,0.03244180977344513,-0.4605521559715271
1772025695742897000,3.34289697265625,-0.10264416038990021,0.0657779648900032,-0.4654487669467926
1772025695752895000,3.35289501953125,-0.04968773573637009,0.10371949523687363,-0.47780662775039673
1772025695762891800,3.362891845703125,-0.0038008412811905146,0.13383275270462036,-0.5019544959068298
1772025695772889900,3.372889892578125,0.03628932312130928,0.1527089774608612,-0.5407027006149292
1772025695782886700,3.38288671875,0.0727040022611618,0.15765978395938873,-0.5770190954208374
1772025695792884000,3.392884033203125,0.10500787943601608,0.1588326394557953,-0.5949855446815491
1772025695802881800,3.4028818359375,0.12390607595443726,0.15260665118694305,-0.5945391058921814
1772025695812878800,3.41287890625,0.12203414738178253,0.1329226940870285,-0.582238495349884
1772025695822876700,3.422876708984375,0.11197526752948761,0.09379604458808899,-0.5627036094665527
1772025695832873700,3.432873779296875,0.09285110235214233,0.04257626086473465,-0.5424060821533203
1772025695842870800,3.442870849609375,0.062123559415340424,-0.01595347374677658,-0.5247423052787781
1772025695852868900,3.452868896484375,0.01942482776939869,-0.07500587403774261,-0.5075409412384033
1772025695862865700,3.46286572265625,-0.019670698791742325,-0.13169433176517487,-0.48550158739089966
1772025695872863700,3.47286376953125,-0.05507050082087517,-0.19417767226696014,-0.4536760151386261
1772025695882860800,3.48286083984375,-0.08725658059120178,-0.255649596452713,-0.41135045886039734
1772025695892857900,3.49285791015625,-0.12592993676662445,-0.3218512535095215,-0.3634479343891144
1772025695902856000,3.50285595703125,-0.16779358685016632,-0.380290150642395,-0.3051130175590515
1772025695912852700,3.512852783203125,-0.20673273503780365,-0.4391010105609894,-0.2406030148267746
1772025695922850800,3.522850830078125,-0.24942666292190552,-0.48194020986557007,-0.1673281341791153
1772025695932847600,3.53284765625,-0.2857377827167511,-0.5311858057975769,-0.10626877099275589
1772025695942845000,3.542844970703125,-0.32268115878105164,-0.5973877310752869,-0.07068494707345963
1772025695952842800,3.5528427734375,-0.3551158010959625,-0.6738023161888123,-0.054901715368032455
1772025695962839800,3.56283984375,-0.37632012367248535,-0.7528350353240967,-0.03965681791305542
1772025695972837600,3.572837646484375,-0.38665929436683655,-0.7930455803871155,-0.019272183999419212
1772025695982834700,3.582834716796875,-0.38016805052757263,-0.7792506217956543,0.019380824640393257
1772025695992831700,3.592831787109375,-0.34179937839508057,-0.6975440382957458,0.0781027227640152
1772025696002829800,3.602829833984375,-0.28946927189826965,-0.6270742416381836,0.1413268744945526
1772025696012826600,3.61282666015625,-0.2662909924983978,-0.6199047565460205,0.16456268727779388
1772025696022824700,3.62282470703125,-0.26583465933799744,-0.6290998458862305,0.16497471928596497
1772025696032822000,3.632822021484375,-0.2577759325504303,-0.6059290170669556,0.17544840276241302
1772025696042818800,3.64281884765625,-0.22903312742710114,-0.5384629964828491,0.21072176098823547
1772025696052817000,3.65281689453125,-0.2067483365535736,-0.46867966651916504,0.24445629119873047
1772025696062813700,3.662813720703125,-0.20072029531002045,-0.42958569526672363,0.25618043541908264
1772025696072811800,3.672811767578125,-0.19080480933189392,-0.4130282998085022,0.2639518082141876
1772025696082808800,3.682808837890625,-0.16405516862869263,-0.39062219858169556,0.2794700860977173
1772025696092807000,3.692806884765625,-0.12685348093509674,-0.38460612297058105,0.2928370237350464
1772025696102803700,3.7028037109375,-0.09956927597522736,-0.40833741426467896,0.2940189838409424
1772025696112800800,3.71280078125,-0.08791022002696991,-0.4433808922767639,0.28010237216949463
1772025696122798600,3.722798583984375,-0.0850885882973671,-0.4667927026748657,0.2627074122428894
1772025696132796000,3.7327958984375,-0.09455026686191559,-0.4757678210735321,0.24792152643203735
1772025696142794000,3.7427939453125,-0.11186880618333817,-0.47359734773635864,0.2260039746761322
1772025696152790800,3.752790771484375,-0.13760904967784882,-0.4612959325313568,0.20456767082214355
1772025696162787800,3.762787841796875,-0.16703341901302338,-0.43798115849494934,0.1872614473104477
1772025696172785700,3.77278564453125,-0.19199976325035095,-0.3973751664161682,0.1753872036933899
1772025696182783000,3.782782958984375,-0.20401974022388458,-0.34825652837753296,0.17889094352722168
1772025696192780800,3.79278076171875,-0.2087354063987732,-0.29747509956359863,0.2049819380044937
1772025696202777900,3.80277783203125,-0.20476801693439484,-0.2292051762342453,0.24780002236366272
1772025696212774700,3.812774658203125,-0.20012027025222778,-0.1544603705406189,0.307148277759552
1772025696222772700,3.822772705078125,-0.1994914710521698,-0.08415605872869492,0.3717174530029297
1772025696232769800,3.832769775390625,-0.21034811437129974,-0.03671956807374954,0.4329952001571655
1772025696242768000,3.842767822265625,-0.23877932131290436,-0.007303464226424694,0.4809962213039398
1772025696252764700,3.8527646484375,-0.2774745225906372,0.007577480748295784,0.5112638473510742
1772025696262761700,3.86276171875,-0.32300475239753723,0.018416309729218483,0.5162941217422485
1772025696272759800,3.872759765625,-0.3657058775424957,0.025817234069108963,0.5019556879997253
1772025696282756900,3.8827568359375,-0.41258642077445984,0.03263162449002266,0.4655880033969879
1772025696292755000,3.8927548828125,-0.4614085555076599,0.05364822596311569,0.4178266227245331
1772025696302751700,3.902751708984375,-0.5113265514373779,0.07882189005613327,0.35807132720947266
1772025696312748800,3.912748779296875,-0.5601880550384521,0.09813965857028961,0.27633970975875854
1772025696322747000,3.922746826171875,-0.6063631176948547,0.08694343268871307,0.1711941808462143
1772025696332744000,3.932743896484375,-0.6526472568511963,0.04864664003252983,0.044361140578985214
1772025696342741800,3.94274169921875,-0.6872553825378418,-0.010331211611628532,-0.09114240854978561
1772025696352738800,3.95273876953125,-0.7077414989471436,-0.058916591107845306,-0.21435940265655518
1772025696362735900,3.96273583984375,-0.7034337520599365,-0.07404865324497223,-0.30910131335258484
1772025696372734000,3.97273388671875,-0.6734324097633362,-0.03805070370435715,-0.36776143312454224
1772025696382730800,3.982730712890625,-0.6180461645126343,0.04015127196907997,-0.40356165170669556
1772025696392728800,3.992728759765625,-0.5535933971405029,0.13099941611289978,-0.4195992052555084
1772025696402725600,4.0027255859375,-0.47773054242134094,0.20132480561733246,-0.43075838685035706
1772025696412723200,4.01272314453125,-0.3995411992073059,0.24865983426570892,-0.4348119795322418
1772025696422721000,4.022720947265625,-0.3343541622161865,0.2674589157104492,-0.4288105070590973
1772025696432718300,4.03271826171875,-0.27596327662467957,0.27193117141723633,-0.41479721665382385
1772025696442716400,4.04271630859375,-0.2299814373254776,0.268189400434494,-0.39691999554634094
1772025696452713200,4.052713134765625,-0.19354939460754395,0.23990023136138916,-0.3781186044216156
1772025696462710000,4.0627099609375,-0.17468179762363434,0.20355170965194702,-0.3633643090724945
1772025696472708400,4.072708251953125,-0.16848568618297577,0.14599893987178802,-0.35204586386680603
1772025696482705400,4.082705322265625,-0.1789828985929489,0.07937362790107727,-0.34811335802078247
1772025696492703200,4.092703125,-0.2048211395740509,0.010685376822948456,-0.3455239534378052
1772025696502700300,4.1027001953125,-0.25136613845825195,-0.03748451545834541,-0.3423309326171875
1772025696512697300,4.112697265625,-0.31511661410331726,-0.06459975987672806,-0.33214831352233887
1772025696522695400,4.1226953125,-0.3817322552204132,-0.0643564909696579,-0.32427263259887695
1772025696532692200,4.132692138671875,-0.4317280352115631,-0.05478162690997124,-0.31565144658088684
1772025696542690300,4.142690185546875,-0.45973318815231323,-0.06620293110609055,-0.31288275122642517
1772025696552687000,4.15268701171875,-0.4692598581314087,-0.10308238863945007,-0.3197510540485382
1772025696562684400,4.162684326171875,-0.4638511836528778,-0.1281881481409073,-0.32712531089782715
1772025696572682200,4.17268212890625,-0.45055535435676575,-0.13574673235416412,-0.3315402865409851
1772025696582679300,4.18267919921875,-0.42441853880882263,-0.12503615021705627,-0.3165462911128998
1772025696592677400,4.192677490234375,-0.3814508318901062,-0.10758978128433228,-0.28999510407447815
1772025696602674200,4.202674072265625,-0.323367714881897,-0.0812317505478859,-0.24723826348781586
1772025696612671200,4.212671142578125,-0.2585966885089874,-0.0486634187400341,-0.1987953633069992
1772025696622669300,4.22266943359375,-0.20261447131633759,-0.0059883384965360165,-0.15116634964942932
1772025696632666400,4.232666259765625,-0.1604079008102417,0.03819509968161583,-0.10923062264919281
1772025696642664200,4.242664306640625,-0.13851316273212433,0.07528462260961533,-0.07480418682098389
1772025696652661200,4.2526611328125,-0.11948835104703903,0.09343646466732025,-0.035841070115566254
1772025696662658300,4.262658203125,-0.11341625452041626,0.09501859545707703,-0.0029212799854576588
1772025696672656400,4.272656494140625,-0.10985294729471207,0.0879279300570488,0.03101831115782261
1772025696682653200,4.282653076171875,-0.11911467462778091,0.08004244416952133,0.07105529308319092
1772025696692651300,4.2926513671875,-0.132489874958992,0.06657244265079498,0.10834727436304092
1772025696702648000,4.30264794921875,-0.1588239222764969,0.04368317127227783,0.14136546850204468
1772025696712645400,4.312645263671875,-0.19054590165615082,0.028112730011343956,0.1681446135044098
1772025696722643200,4.322643310546875,-0.2280043214559555,0.020876655355095863,0.1711350828409195
1772025696732640300,4.33264013671875,-0.26510241627693176,0.02579418197274208,0.15737000107765198
1772025696742638300,4.342638427734375,-0.29327458143234253,0.0598769336938858,0.12323738634586334
1772025696752635100,4.35263525390625,-0.3066715896129608,0.13662737607955933,0.07901719212532043
1772025696762632400,4.362632568359375,-0.29453638195991516,0.2362959086894989,0.023079361766576767
1772025696772630300,4.37263037109375,-0.2711639404296875,0.29829350113868713,-0.043185945600271225
1772025696782627300,4.38262744140625,-0.26524826884269714,0.2654716372489929,-0.13294671475887299
1772025696792625200,4.392625244140625,-0.27557334303855896,0.1881944239139557,-0.23645712435245514
1772025696802622200,4.402622314453125,-0.2811276912689209,0.12237635254859924,-0.32203319668769836
1772025696812619300,4.412619384765625,-0.2668353021144867,0.07057014852762222,-0.3727549612522125
1772025696822617300,4.422617431640625,-0.2655348479747772,-0.02311885543167591,-0.41392260789871216
1772025696832614100,4.4326142578125,-0.2978999614715576,-0.15641087293624878,-0.4546996057033539
1772025696842612200,4.4426123046875,-0.35074949264526367,-0.26439744234085083,-0.46646490693092346
1772025696852609300,4.452609375,-0.4077507257461548,-0.3116602897644043,-0.42326682806015015
1772025696862606300,4.4626064453125,-0.45658862590789795,-0.2947177290916443,-0.3332647681236267
1772025696872604400,4.4726044921875,-0.49501991271972656,-0.2551758885383606,-0.2171671986579895
1772025696882601200,4.482601318359375,-0.5121136903762817,-0.21212448179721832,-0.08636511117219925
1772025696892598300,4.492598388671875,-0.49697843194007874,-0.16678017377853394,0.04476574808359146
1772025696902596400,4.502596435546875,-0.4487183690071106,-0.1318586766719818,0.175417959690094
1772025696912593400,4.512593505859375,-0.37817254662513733,-0.09192938357591629,0.3026331663131714
1772025696922591200,4.52259130859375,-0.29705125093460083,-0.0381079763174057,0.4154606759548187
1772025696932588300,4.53258837890625,-0.21386022865772247,0.04409315064549446,0.5268018245697021
1772025696942585300,4.54258544921875,-0.13164672255516052,0.14884676039218903,0.6331468820571899
1772025696952583400,4.55258349609375,-0.05269971489906311,0.2658058702945709,0.7368093729019165
1772025696962580200,4.562580322265625,0.021991679444909096,0.36289769411087036,0.8399112820625305
1772025696972578300,4.572578369140625,0.09222350269556046,0.41617900133132935,0.9201371669769287
1772025696982575000,4.5825751953125,0.14344100654125214,0.40290361642837524,0.9514309167861938
1772025696992572400,4.592572509765625,0.17111603915691376,0.3297250270843506,0.9459975361824036
1772025697002570200,4.6025703125,0.1899963617324829,0.22653432190418243,0.9136157631874084
1772025697012567300,4.6125673828125,0.2059500366449356,0.12244360893964767,0.8739876747131348
1772025697022565400,4.6225654296875,0.2188594937324524,0.040071625262498856,0.8218216300010681
1772025697032562200,4.632562255859375,0.2210233062505722,-0.021847136318683624,0.7582588791847229
1772025697042559200,4.642559326171875,0.21571534872055054,-0.07352261990308762,0.681727945804596
1772025697052557300,4.652557373046875,0.19525986909866333,-0.10894346237182617,0.5833762884140015
1772025697062554400,4.662554443359375,0.15591587126255035,-0.14530056715011597,0.4647020995616913
1772025697072552200,4.67255224609375,0.09842407703399658,-0.20851363241672516,0.3262459635734558
1772025697082549200,4.68254931640625,0.022983400151133537,-0.2716808617115021,0.17773212492465973
1772025697092546300,4.69254638671875,-0.07811205834150314,-0.3470746576786041,0.026363903656601906
1772025697102544400,4.70254443359375,-0.18515223264694214,-0.4208671748638153,-0.11588139832019806
1772025697112541200,4.712541259765625,-0.28231340646743774,-0.4786612391471863,-0.23385649919509888
1772025697122539300,4.722539306640625,-0.34516632556915283,-0.49700993299484253,-0.3137723505496979
1772025697132536000,4.7325361328125,-0.3749774992465973,-0.45765772461891174,-0.3507937490940094
1772025697142533400,4.742533447265625,-0.3809698820114136,-0.3572501242160797,-0.33528125286102295
1772025697152531200,4.75253125,-0.35818547010421753,-0.21504318714141846,-0.2860580384731293
1772025697162528300,4.7625283203125,-0.3004743754863739,-0.05850593000650406,-0.22395025193691254
1772025697172526300,4.7725263671875,-0.20996364951133728,0.08123785257339478,-0.16593489050865173
1772025697182523100,4.782523193359375,-0.0932287871837616,0.17351995408535004,-0.1282760500907898
1772025697192520200,4.792520263671875,0.03534010425209999,0.22333358228206635,-0.11063847690820694
1772025697202518300,4.802518310546875,0.13614070415496826,0.24027982354164124,-0.11216798424720764
1772025697212515300,4.812515380859375,0.2225182056427002,0.2350538969039917,-0.11608815938234329
1772025697222513200,4.82251318359375,0.29627951979637146,0.23751439154148102,-0.12666410207748413
1772025697232510200,4.83251025390625,0.3582051992416382,0.2374451607465744,-0.14122040569782257
1772025697242507300,4.84250732421875,0.3942650854587555,0.23294906318187714,-0.16564859449863434
1772025697252505300,4.85250537109375,0.4090847671031952,0.2253745049238205,-0.19451352953910828
1772025697262502100,4.862502197265625,0.41749173402786255,0.21101513504981995,-0.22534029185771942
1772025697272499200,4.872499267578125,0.4141979515552521,0.1984729766845703,-0.24551799893379211
1772025697282497300,4.882497314453125,0.394186407327652,0.16732299327850342,-0.2705852687358856
1772025697292494300,4.892494384765625,0.36365777254104614,0.12710633873939514,-0.2906697690486908
1772025697302492200,4.9024921875,0.32983142137527466,0.08065678924322128,-0.30152201652526855
1772025697312489200,4.9124892578125,0.2948598563671112,0.03907659277319908,-0.2989600598812103
1772025697322486300,4.922486328125,0.26075080037117004,-0.01861211098730564,-0.29020044207572937
1772025697332484400,4.932484375,0.22211924195289612,-0.07735159248113632,-0.27363184094429016
1772025697342481400,4.9424814453125,0.18623681366443634,-0.12972304224967957,-0.23690207302570343
1772025697352479200,4.952479248046875,0.1535254716873169,-0.1771446168422699,-0.1991509646177292
1772025697362476300,4.962476318359375,0.11636639386415482,-0.24334093928337097,-0.15619231760501862
1772025697372473300,4.972473388671875,0.07764136791229248,-0.3095753788948059,-0.11347200721502304
1772025697382471400,4.982471435546875,0.037826057523489,-0.3710077702999115,-0.08285125344991684
1772025697392468200,4.99246826171875,-0.002235605614259839,-0.43610450625419617,-0.06212732568383217
1772025697402466300,5.00246630859375,-0.04357101023197174,-0.49171650409698486,-0.05611550435423851
1772025697412462800,5.012462890625,-0.07897160947322845,-0.5341028571128845,-0.06881212443113327
1772025697422460000,5.0224599609375,-0.11382954567670822,-0.5685257315635681,-0.09159734100103378
1772025697432458000,5.0324580078125,-0.14728257060050964,-0.5815741419792175,-0.13208352029323578
1772025697442454800,5.042454833984375,-0.1633758395910263,-0.5565697550773621,-0.16363324224948883
1772025697452452900,5.052452880859375,-0.1426900029182434,-0.4905734062194824,-0.18255393207073212
1772025697462449700,5.06244970703125,-0.11068912595510483,-0.45206978917121887,-0.18412688374519348
1772025697472447000,5.072447021484375,-0.1199667751789093,-0.47783827781677246,-0.20717813074588776
1772025697482444800,5.08244482421875,-0.16711118817329407,-0.5176388621330261,-0.241867333650589
1772025697492441900,5.09244189453125,-0.2099372148513794,-0.4969729781150818,-0.2349897176027298
1772025697502438700,5.102438720703125,-0.2123408317565918,-0.39627566933631897,-0.1637042760848999
1772025697512437000,5.11243701171875,-0.1622009575366974,-0.23973985016345978,-0.04716062545776367
1772025697522434000,5.12243408203125,-0.08457837998867035,-0.09492819011211395,0.08178216964006424
1772025697532432000,5.132431884765625,0.0004960311343893409,-0.0031127796974033117,0.18392372131347656
1772025697542429000,5.142428955078125,0.07417245209217072,0.05559050291776657,0.262214332818985
1772025697552426000,5.152426025390625,0.148441880941391,0.06112455204129219,0.3049948215484619
1772025697562424000,5.162424072265625,0.20122100412845612,0.0021033231168985367,0.3156270980834961
1772025697572420900,5.1724208984375,0.20830899477005005,-0.09130492061376572,0.2745470404624939
1772025697582419000,5.1824189453125,0.17083550989627838,-0.1790105402469635,0.20449303090572357
1772025697592415700,5.192415771484375,0.10044815391302109,-0.23264287412166595,0.11350161582231522
1772025697602413000,5.2024130859375,0.011581415310502052,-0.2593463361263275,0.017885081470012665
1772025697612411000,5.212410888671875,-0.0765329971909523,-0.2635749280452728,-0.07192070037126541
1772025697622408000,5.222407958984375,-0.1396869271993637,-0.2561396062374115,-0.1447107493877411
1772025697632406000,5.232406005859375,-0.16664370894432068,-0.22893860936164856,-0.17890387773513794
1772025697642402800,5.24240283203125,-0.15905767679214478,-0.17256306111812592,-0.16816560924053192
1772025697652399900,5.25239990234375,-0.11649131029844284,-0.08163821697235107,-0.11777541041374207
1772025697662398000,5.26239794921875,-0.050466276705265045,0.0160361360758543,-0.025976387783885002
1772025697672395000,5.27239501953125,0.02978009544312954,0.10302696377038956,0.09420301765203476
1772025697682392800,5.282392822265625,0.09255003929138184,0.15878872573375702,0.23368515074253082
1772025697692390000,5.292389892578125,0.1328311562538147,0.17230373620986938,0.36772605776786804
1772025697702387000,5.302386962890625,0.1458364725112915,0.1526867151260376,0.4901866316795349
1772025697712385000,5.312385009765625,0.13217924535274506,0.12978167831897736,0.5800605416297913
1772025697722380000,5.322380126953125,0.10092596709728241,0.12915632128715515,0.6406335234642029
1772025697732376800,5.332376953125,0.054322775453329086,0.15196922421455383,0.6681846976280212
1772025697742375000,5.342375,-0.005456545390188694,0.18771952390670776,0.6576222777366638
1772025697752371700,5.352371826171875,-0.07442256063222885,0.22291293740272522,0.6086727976799011
1772025697762369800,5.362369873046875,-0.15346644818782806,0.254184752702713,0.5220411419868469
1772025697772366800,5.372366943359375,-0.23427021503448486,0.2575552463531494,0.40550631284713745
1772025697782364000,5.382364013671875,-0.31817543506622314,0.23165613412857056,0.26048678159713745
1772025697792362000,5.392362060546875,-0.40210816264152527,0.18911346793174744,0.10861605405807495
1772025697802358800,5.40235888671875,-0.4852536916732788,0.13317324221134186,-0.04265262186527252
1772025697812356900,5.41235693359375,-0.5724416375160217,0.07325585186481476,-0.17855054140090942
1772025697822354000,5.42235400390625,-0.6474438905715942,0.030308671295642853,-0.2908514440059662
1772025697832351000,5.43235107421875,-0.7099501490592957,0.018043750897049904,-0.3818013072013855
1772025697842348800,5.442348876953125,-0.7483482360839844,0.03971772640943527,-0.4469906687736511
1772025697852345900,5.452345947265625,-0.7644063234329224,0.08129313588142395,-0.4926503002643585
1772025697862343700,5.46234375,-0.7629427909851074,0.1555119752883911,-0.5115290880203247
1772025697872341000,5.472341064453125,-0.7378001809120178,0.2372118979692459,-0.5173851251602173
1772025697882337800,5.482337890625,-0.7037076950073242,0.2912152111530304,-0.5243908166885376
1772025697892335900,5.4923359375,-0.6550711989402771,0.3019147217273712,-0.5175172090530396
1772025697902332700,5.502332763671875,-0.59687739610672,0.28851446509361267,-0.4917793571949005
1772025697912330000,5.512330078125,-0.5433598756790161,0.2560814321041107,-0.44675490260124207
1772025697922328000,5.522328125,-0.49295374751091003,0.20733337104320526,-0.3982887864112854
1772025697932324900,5.532324951171875,-0.4559331238269806,0.1523798406124115,-0.3448721468448639
1772025697942323000,5.542322998046875,-0.42005544900894165,0.09424835443496704,-0.2879202365875244
1772025697952319700,5.55231982421875,-0.38960060477256775,0.04293350130319595,-0.23759688436985016
1772025697962317000,5.562317138671875,-0.3674476742744446,0.0069576152600348,-0.2022620588541031
1772025697972315000,5.57231494140625,-0.35245487093925476,-0.017275020480155945,-0.1759638786315918
1772025697982312000,5.58231201171875,-0.33990898728370667,-0.02411401830613613,-0.1575435996055603
1772025697992309800,5.592309814453125,-0.3233691155910492,-0.029456503689289093,-0.13407476246356964
1772025698002306800,5.602306884765625,-0.3008716404438019,-0.03685156628489494,-0.1044217199087143
1772025698012304000,5.612303955078125,-0.2790912389755249,-0.028612276539206505,-0.06341010332107544
1772025698022302000,5.622302001953125,-0.25740668177604675,0.002230800222605467,-0.0015570694813504815
1772025698032298800,5.632298828125,-0.22757768630981445,0.026114827021956444,0.06529173254966736
1772025698042296800,5.642296875,-0.18958546221256256,0.03241371735930443,0.1371057629585266
1772025698052294000,5.6522939453125,-0.14257241785526276,0.015972159802913666,0.19871026277542114
1772025698062291000,5.662291015625,-0.10083894431591034,-0.008180883713066578,0.2620943486690521
1772025698072289000,5.6722890625,-0.0667499452829361,-0.025268524885177612,0.3125772476196289
1772025698082285800,5.682285888671875,-0.04047108441591263,-0.036270271986722946,0.3573598265647888
1772025698092283000,5.692282958984375,-0.026134222745895386,-0.025683939456939697,0.3847525715827942
1772025698102281000,5.702281005859375,-0.020668882876634598,-0.0014726107474416494,0.4013805687427521
1772025698112278000,5.712278076171875,-0.02008458599448204,0.029996365308761597,0.41675764322280884
1772025698122275800,5.72227587890625,-0.0247785784304142,0.06615101546049118,0.4278886616230011
1772025698132273000,5.73227294921875,-0.03320428729057312,0.09942135214805603,0.4357151687145233
1772025698142270000,5.74227001953125,-0.0344567708671093,0.12974676489830017,0.44762054085731506
1772025698152268000,5.75226806640625,-0.030785072594881058,0.1705876737833023,0.4655763804912567
1772025698162264800,5.762264892578125,-0.016935165971517563,0.2363864630460739,0.4857574999332428
1772025698172263000,5.772262939453125,0.011948680505156517,0.3355790972709656,0.5160996913909912
1772025698182259700,5.782259765625,0.06290103495121002,0.4382471740245819,0.5572139620780945
1772025698192257000,5.792257080078125,0.11748997867107391,0.45984888076782227,0.5841704607009888
1772025698202254800,5.8022548828125,0.14072684943675995,0.38734015822410583,0.586624264717102
1772025698212252000,5.812251953125,0.14197799563407898,0.2929784953594208,0.5800896883010864
1772025698222248700,5.822248779296875,0.142085999250412,0.22437210381031036,0.5727586150169373
1772025698232246800,5.832246826171875,0.13380303978919983,0.16280913352966309,0.5569567680358887
1772025698242243800,5.842243896484375,0.08558324724435806,0.06983736902475357,0.5091649293899536
1772025698252242000,5.852241943359375,0.005253518000245094,-0.07091069966554642,0.41440168023109436
1772025698262239000,5.862239013671875,-0.10583522170782089,-0.2138277143239975,0.29569312930107117
1772025698272235800,5.87223583984375,-0.2016882449388504,-0.3260274827480316,0.18315966427326202
1772025698282233900,5.88223388671875,-0.24877014756202698,-0.3837026357650757,0.09419796615839005
1772025698292231000,5.89223095703125,-0.27348989248275757,-0.41098326444625854,0.03282542526721954
1772025698302229000,5.90222900390625,-0.2870534062385559,-0.4221575856208801,0.002256993670016527
1772025698312225800,5.912225830078125,-0.28175076842308044,-0.39954042434692383,0.0058938064612448215
1772025698322222800,5.922222900390625,-0.24539895355701447,-0.32773667573928833,0.035366207361221313
1772025698332220700,5.932220703125,-0.19121001660823822,-0.2312958687543869,0.07483984529972076
1772025698342218000,5.942218017578125,-0.11966744065284729,-0.12341146171092987,0.1104552298784256
1772025698352215800,5.9522158203125,-0.042001668363809586,-0.02437782473862171,0.14244697988033295
1772025698362215000,5.96221484375,0.04977456480264664,0.06505373120307922,0.17334799468517303
1772025698372212000,5.9722119140625,0.1415897160768509,0.1451331228017807,0.2044939249753952
1772025698382209800,5.982209716796875,0.22569425404071808,0.22596536576747894,0.25220024585723877
1772025698392206800,5.992206787109375,0.29786059260368347,0.32682061195373535,0.320957213640213
1772025698402205000,6.002204833984375,0.36541837453842163,0.432233065366745,0.39325258135795593
1772025698412201500,6.012201416015625,0.4252505600452423,0.4950184226036072,0.45994025468826294
1772025698422198300,6.0221982421875,0.47967639565467834,0.5046057105064392,0.5165631175041199
1772025698432196400,6.0321962890625,0.5309052467346191,0.44442206621170044,0.5440493226051331
1772025698442193200,6.042193115234375,0.5717934966087341,0.31935063004493713,0.5518762469291687
1772025698452190500,6.0521904296875,0.6009916067123413,0.15922142565250397,0.53901606798172
1772025698462188300,6.062188232421875,0.6201083064079285,-0.0033472557552158833,0.5150641798973083
1772025698472185300,6.072185302734375,0.6221464276313782,-0.1493912786245346,0.4827546775341034
1772025698482183200,6.08218310546875,0.6106486916542053,-0.2433527708053589,0.4533490240573883
1772025698492180200,6.09218017578125,0.5783141851425171,-0.2962801456451416,0.40854132175445557
1772025698502177300,6.10217724609375,0.5160647034645081,-0.3370465636253357,0.33698830008506775
1772025698512175400,6.11217529296875,0.426710307598114,-0.37410712242126465,0.23293939232826233
1772025698522172200,6.122172119140625,0.3086349666118622,-0.4051327705383301,0.09987422823905945
1772025698532170200,6.132170166015625,0.15682253241539001,-0.4513077437877655,-0.07044557482004166
1772025698542167300,6.142167236328125,-0.023299530148506165,-0.5213102698326111,-0.2578877806663513
1772025698552164400,6.152164306640625,-0.19982104003429413,-0.5678013563156128,-0.42965394258499146
1772025698562162400,6.162162353515625,-0.348055362701416,-0.5530155301094055,-0.5702016353607178
1772025698572159200,6.1721591796875,-0.46173450350761414,-0.48790255188941956,-0.6652194857597351
1772025698582156300,6.18215625,-0.5434531569480896,-0.38155728578567505,-0.7049907445907593
1772025698592154400,6.192154296875,-0.5694533586502075,-0.23793219029903412,-0.6858513951301575
1772025698602151400,6.2021513671875,-0.5487242937088013,-0.05729501321911812,-0.6361799240112305
1772025698612149200,6.212149169921875,-0.47572624683380127,0.11701713502407074,-0.5743652582168579
1772025698622146300,6.222146240234375,-0.3606297969818115,0.2568569779396057,-0.5012449622154236
1772025698632143400,6.232143310546875,-0.21103844046592712,0.35498541593551636,-0.45042282342910767
1772025698642141400,6.242141357421875,-0.057381220161914825,0.4159840941429138,-0.4155830442905426
1772025698652138200,6.25213818359375,0.07146171480417252,0.4460538327693939,-0.40177881717681885
1772025698662136300,6.26213623046875,0.17516839504241943,0.4434974491596222,-0.39589908719062805
1772025698672133000,6.272133056640625,0.25639426708221436,0.42816591262817383,-0.39242127537727356
1772025698682130400,6.28213037109375,0.32879072427749634,0.40281593799591064,-0.38226357102394104
1772025698692128300,6.292128173828125,0.3812941312789917,0.36295560002326965,-0.37309351563453674
1772025698702125300,6.302125244140625,0.40616244077682495,0.3140905201435089,-0.36479830741882324
1772025698712122000,6.3121220703125,0.40919819474220276,0.2616153359413147,-0.35101965069770813
1772025698722120200,6.3221201171875,0.39644670486450195,0.20231682062149048,-0.332914799451828
1772025698732117500,6.332117431640625,0.3690606355667114,0.12185659259557724,-0.31305748224258423
1772025698742115300,6.342115234375,0.32279327511787415,0.048273295164108276,-0.294324666261673
1772025698752112400,6.3521123046875,0.2698885202407837,-0.03798862174153328,-0.2735730707645416
1772025698762109200,6.362109130859375,0.21165625751018524,-0.13261578977108002,-0.24811050295829773
1772025698772107300,6.372107177734375,0.15199266374111176,-0.22982357442378998,-0.21427877247333527
1772025698782104300,6.382104248046875,0.09971529990434647,-0.31859657168388367,-0.16188175976276398
1772025698792102400,6.392102294921875,0.056202709674835205,-0.3780321776866913,-0.09895018488168716
1772025698802099200,6.40209912109375,0.02754868008196354,-0.40460631251335144,-0.042171064764261246
1772025698812096300,6.41209619140625,0.014005972072482109,-0.41419368982315063,0.010668450966477394
1772025698822094000,6.422093994140625,0.0070436871610581875,-0.42232534289360046,0.03942206874489784
1772025698832091400,6.43209130859375,0.0009096281137317419,-0.4310336112976074,0.044554777443408966
1772025698842088200,6.442088134765625,-0.009515363723039627,-0.4329276382923126,0.022904016077518463
1772025698852086300,6.452086181640625,-0.019076643511652946,-0.43717166781425476,-0.0037997672334313393
1772025698862083000,6.4620830078125,-0.034172143787145615,-0.42884331941604614,-0.026091957464814186
1772025698872081200,6.4720810546875,-0.05167683586478233,-0.42405495047569275,-0.04772481322288513
1772025698882078500,6.482078369140625,-0.07432003319263458,-0.42158669233322144,-0.06351090967655182
1772025698892075300,6.4920751953125,-0.08853784948587418,-0.40287744998931885,-0.06222593039274216
1772025698902073300,6.5020732421875,-0.0859101191163063,-0.3780549466609955,-0.04740430414676666
1772025698912070400,6.5120703125,-0.07589290291070938,-0.34157922863960266,-0.01574144884943962
1772025698922068500,6.522068359375,-0.044832415878772736,-0.275269091129303,0.036904383450746536
1772025698932065300,6.532065185546875,0.012664168141782284,-0.18701086938381195,0.10581953823566437
1772025698942062300,6.542062255859375,0.0641883984208107,-0.158241406083107,0.15952591598033905
1772025698952060200,6.55206005859375,0.07770873606204987,-0.1935248225927353,0.15561239421367645
1772025698962057500,6.562057373046875,0.08466079086065292,-0.247053861618042,0.12736724317073822
1772025698972054300,6.57205419921875,0.10829102247953415,-0.25198817253112793,0.10155508667230606
1772025698982052400,6.58205224609375,0.1340560019016266,-0.2358494997024536,0.07548220455646515
1772025698992049200,6.592049072265625,0.14792227745056152,-0.22490736842155457,0.036336932331323624
1772025699002047200,6.602047119140625,0.13551393151283264,-0.24365496635437012,-0.02378133311867714
1772025699012044300,6.612044189453125,0.10289765149354935,-0.27983081340789795,-0.09151404350996017
1772025699022041300,6.622041259765625,0.078688845038414,-0.30133289098739624,-0.14702637493610382
1772025699032039400,6.632039306640625,0.07420460879802704,-0.31102997064590454,-0.1930236965417862
1772025699042036200,6.6420361328125,0.0740814134478569,-0.3274783194065094,-0.2222898304462433
1772025699052033300,6.652033203125,0.07769905775785446,-0.34716975688934326,-0.24127790331840515
1772025699062031400,6.66203125,0.08931628614664078,-0.34905514121055603,-0.24496465921401978
1772025699072028400,6.6720283203125,0.10789290070533752,-0.32644811272621155,-0.2256745845079422
1772025699082026200,6.682026123046875,0.12492620944976807,-0.2924976050853729,-0.18789923191070557
1772025699092023300,6.692023193359375,0.13484276831150055,-0.26311439275741577,-0.13350950181484222
1772025699102020400,6.702020263671875,0.13033689558506012,-0.22307538986206055,-0.06968536972999573
1772025699112018400,6.712018310546875,0.11403223127126694,-0.17704637348651886,-0.015041302889585495
1772025699122015200,6.72201513671875,0.09588279575109482,-0.13476666808128357,0.03847292438149452
1772025699132013300,6.732013427734375,0.07654611766338348,-0.10450597107410431,0.09123121201992035
1772025699142010000,6.742010009765625,0.050103429704904556,-0.07251741737127304,0.13618503510951996
1772025699152007400,6.75200732421875,0.027408765628933907,-0.04442692548036575,0.1777292788028717
1772025699162005200,6.762005126953125,0.0036207016091793776,-0.012804330326616764,0.2147122621536255
1772025699172002300,6.772002197265625,-0.028167586773633957,0.015966329723596573,0.22748105227947235
1772025699181999000,6.7819990234375,-0.07407200336456299,0.030495109036564827,0.20719051361083984
1772025699191997200,6.7919970703125,-0.1267559975385666,0.0196674931794405,0.16818878054618835
1772025699201994200,6.801994140625,-0.180965855717659,-0.002279354725033045,0.12348435074090958
1772025699211992300,6.811992431640625,-0.23000609874725342,-0.0024090507067739964,0.08462537080049515
1772025699221989400,6.8219892578125,-0.28300169110298157,0.026222705841064453,0.049796681851148605
1772025699231986200,6.831986083984375,-0.3318230211734772,0.0656966120004654,0.010427438654005527
1772025699241984300,6.841984375,-0.37473171949386597,0.09422142803668976,-0.026592830196022987
1772025699251981300,6.851981201171875,-0.4171540141105652,0.08878165483474731,-0.07486475259065628
1772025699261978400,6.861978271484375,-0.4637342095375061,0.055273715406656265,-0.13423921167850494
1772025699271976200,6.87197607421875,-0.5136818289756775,0.013225334696471691,-0.20896457135677338
1772025699281973200,6.88197314453125,-0.5744380354881287,-0.029007896780967712,-0.2977716624736786
1772025699291971300,6.891971435546875,-0.6357828974723816,-0.06483007222414017,-0.39332908391952515
1772025699301968400,6.901968505859375,-0.6847217679023743,-0.07238295674324036,-0.48825713992118835
1772025699311965200,6.911965087890625,-0.7155409455299377,-0.04444879665970802,-0.5660786628723145
1772025699321963300,6.92196337890625,-0.7075522541999817,0.024257870391011238,-0.6203445792198181
1772025699331960300,6.931960205078125,-0.6681318879127502,0.11811885237693787,-0.6404064297676086
1772025699341958400,6.94195849609375,-0.594291627407074,0.2206009030342102,-0.6201642155647278
1772025699351955500,6.95195556640625,-0.5026283264160156,0.3119182884693146,-0.5732702016830444
1772025699361952300,6.9619521484375,-0.4001779556274414,0.3923228085041046,-0.5021110773086548
1772025699371950300,6.971950439453125,-0.31144461035728455,0.4463399648666382,-0.4225805103778839
1772025699381947400,6.981947509765625,-0.24582023918628693,0.45570123195648193,-0.34215977787971497
1772025699391944400,6.9919443359375,-0.20414255559444427,0.42881742119789124,-0.2756710350513458
1772025699401942300,7.0019423828125,-0.16543857753276825,0.37150925397872925,-0.22868233919143677
1772025699411939300,7.011939208984375,-0.1521667093038559,0.30881577730178833,-0.19706210494041443
1772025699421937700,7.021937744140625,-0.1624239683151245,0.24607650935649872,-0.18500776588916779
1772025699431934700,7.031934814453125,-0.20778000354766846,0.19428734481334686,-0.19390006363391876
1772025699441931800,7.041931884765625,-0.2714913785457611,0.15747541189193726,-0.22052475810050964
1772025699451929900,7.051929931640625,-0.34905409812927246,0.1378210186958313,-0.2652120590209961
1772025699461926700,7.0619267578125,-0.4282633066177368,0.11651177704334259,-0.3133660554885864
1772025699471924700,7.0719248046875,-0.4962322413921356,0.09901294857263565,-0.36126062273979187
1772025699481921800,7.081921875,-0.5542120337486267,0.0787997841835022,-0.41411712765693665
1772025699491918800,7.0919189453125,-0.5954143404960632,0.05911875143647194,-0.4564267694950104
1772025699501916700,7.101916748046875,-0.607472836971283,0.042128704488277435,-0.48170575499534607
1772025699511913700,7.111913818359375,-0.6045745015144348,0.0266975536942482,-0.4900963008403778
1772025699521910800,7.121910888671875,-0.5980748534202576,0.010319523513317108,-0.48270976543426514
1772025699531908900,7.131908935546875,-0.5668473839759827,0.0093661118298769,-0.4482223689556122
1772025699541905700,7.14190576171875,-0.522497296333313,0.0132288858294487,-0.3880566656589508
1772025699551903700,7.15190380859375,-0.45605090260505676,0.02195872738957405,-0.31430575251579285
1772025699561900800,7.16190087890625,-0.375712126493454,0.027925847098231316,-0.21761038899421692
1772025699571897900,7.17189794921875,-0.2906632721424103,0.028865676373243332,-0.10779999941587448
1772025699581896000,7.18189599609375,-0.21936093270778656,0.03631075844168663,0.0063956789672374725
1772025699591892700,7.191892822265625,-0.15925711393356323,0.05995164066553116,0.12373802065849304
1772025699601889800,7.201889892578125,-0.11958985775709152,0.09163739532232285,0.22625800967216492
1772025699611887600,7.2118876953125,-0.08948775380849838,0.10846557468175888,0.3134036064147949
1772025699621885000,7.221885009765625,-0.0690501481294632,0.09877866506576538,0.3768940269947052
1772025699631882800,7.2318828125,-0.05859057977795601,0.05803469568490982,0.4269960820674896
1772025699641879800,7.2418798828125,-0.05131841078400612,0.01548877265304327,0.466045081615448
1772025699651876600,7.251876708984375,-0.04616093263030052,0.006778372451663017,0.5108463764190674
1772025699661874700,7.261874755859375,-0.042555518448352814,0.05709635093808174,0.5585705637931824
1772025699671871700,7.271871826171875,-0.04387244954705238,0.11436470597982407,0.5882834196090698
1772025699681868800,7.281868896484375,-0.06586666405200958,0.11827590316534042,0.5691661834716797
1772025699691867000,7.291866943359375,-0.11341606825590134,0.06373809278011322,0.5021477341651917
1772025699701863700,7.30186376953125,-0.15725480020046234,0.01672903448343277,0.42317432165145874
1772025699711861800,7.31186181640625,-0.17741893231868744,0.0011921526165679097,0.3516934812068939
1772025699721858800,7.32185888671875,-0.19765238463878632,-0.014138064347207546,0.2798880934715271
1772025699731856000,7.33185595703125,-0.2257245033979416,-0.08004038035869598,0.19732315838336945
1772025699741853700,7.341853759765625,-0.25876614451408386,-0.16271308064460754,0.11563068628311157
1772025699751850800,7.351850830078125,-0.2647190988063812,-0.23867256939411163,0.05973519757390022
1772025699761847800,7.361847900390625,-0.25657057762145996,-0.28824469447135925,0.03753242641687393
1772025699771846000,7.371845947265625,-0.24709077179431915,-0.3091513216495514,0.029079020023345947
1772025699781842700,7.3818427734375,-0.247841939330101,-0.2944019138813019,0.029877370223402977
1772025699791840800,7.3918408203125,-0.24810878932476044,-0.23831041157245636,0.035766419023275375
1772025699801837600,7.401837646484375,-0.23703519999980927,-0.15439580380916595,0.03669432923197746
1772025699811835000,7.4118349609375,-0.21156074106693268,-0.05219912528991699,0.035809360444545746
1772025699821832700,7.421832763671875,-0.16257040202617645,0.051154300570487976,0.04711247608065605
1772025699831829800,7.431829833984375,-0.09489627182483673,0.150321364402771,0.07163193076848984
1772025699841827800,7.441827880859375,0.003872265573590994,0.23777516186237335,0.11950112879276276
1772025699851824600,7.45182470703125,0.1198531985282898,0.30646926164627075,0.18725274503231049
1772025699861821700,7.46182177734375,0.2214183360338211,0.351310670375824,0.2547107934951782
1772025699871819800,7.47181982421875,0.2906070053577423,0.3650299310684204,0.3204200267791748
1772025699881816800,7.48181689453125,0.33697569370269775,0.3860417902469635,0.3848128318786621
1772025699891813600,7.491813720703125,0.3757105767726898,0.41209280490875244,0.45553067326545715
1772025699901811700,7.501811767578125,0.4103357791900635,0.42541879415512085,0.5218254923820496
1772025699911808800,7.511808837890625,0.44053229689598083,0.39542654156684875,0.5730500221252441
1772025699921806800,7.521806884765625,0.46301785111427307,0.3198970556259155,0.6069854497909546
1772025699931803600,7.5318037109375,0.47957125306129456,0.23283620178699493,0.626832902431488
1772025699941801000,7.541801025390625,0.49696096777915955,0.1314515322446823,0.637580394744873
1772025699951798800,7.551798828125,0.524533748626709,0.027325408533215523,0.64998459815979
1772025699961795800,7.5617958984375,0.5490361452102661,-0.06276015192270279,0.6568710803985596
1772025699971792600,7.571792724609375,0.5671469569206238,-0.11619408428668976,0.6552902460098267
1772025699981790700,7.581790771484375,0.5560550093650818,-0.13596974313259125,0.632647693157196
1772025699991787800,7.591787841796875,0.5140638947486877,-0.13204556703567505,0.5715315937995911
1772025700001785900,7.601785888671875,0.4444458484649658,-0.13824254274368286,0.4638393819332123
1772025700011782700,7.61178271484375,0.35364672541618347,-0.18289843201637268,0.30590197443962097
1772025700021779700,7.62177978515625,0.2354215383529663,-0.27539709210395813,0.09882800281047821
1772025700031777800,7.63177783203125,0.10639777779579163,-0.39383718371391296,-0.11930086463689804
1772025700041774800,7.64177490234375,-0.01819303259253502,-0.4877103865146637,-0.32922300696372986
1772025700051771600,7.651771728515625,-0.12146855145692825,-0.5123973488807678,-0.4986834228038788
1772025700061769700,7.661769775390625,-0.20030689239501953,-0.45436757802963257,-0.5946474671363831
1772025700071766800,7.671766845703125,-0.2432921826839447,-0.32619842886924744,-0.6063110828399658
1772025700081764600,7.6817646484375,-0.24971559643745422,-0.13911797106266022,-0.5550271272659302
1772025700091762000,7.691761962890625,-0.21536321938037872,0.06244231387972832,-0.4596990644931793
1772025700101758700,7.7017587890625,-0.1440446972846985,0.25662609934806824,-0.34570637345314026
1772025700111756800,7.7117568359375,-0.04294391721487045,0.39544814825057983,-0.23506267368793488
1772025700121753600,7.721753662109375,0.05067181959748268,0.46797996759414673,-0.15907497704029083
1772025700131751700,7.731751708984375,0.11535947024822235,0.4672366976737976,-0.12603846192359924
1772025700141748700,7.741748779296875,0.15341490507125854,0.4091971516609192,-0.13025318086147308
1772025700151745800,7.751745849609375,0.1763167679309845,0.34163010120391846,-0.1648324579000473
1772025700161743600,7.76174365234375,0.19324541091918945,0.2689151465892792,-0.20743851363658905
1772025700171740700,7.77174072265625,0.19106188416481018,0.20518705248832703,-0.2580191195011139
1772025700181737700,7.78173779296875,0.1674719750881195,0.1448063850402832,-0.30345419049263
1772025700191735800,7.79173583984375,0.1274300068616867,0.08379575610160828,-0.3440926969051361
1772025700201732900,7.80173291015625,0.083421491086483,0.03404419124126434,-0.3590663969516754
1772025700211730700,7.811730712890625,0.047170814126729965,-0.01318351086229086,-0.33930468559265137
1772025700221727700,7.821727783203125,0.019419824704527855,-0.05207217484712601,-0.2951816916465759
1772025700231724800,7.831724853515625,-0.006505516357719898,-0.08379042148590088,-0.2303752601146698
1772025700241723000,7.841722900390625,-0.01793457567691803,-0.11126198619604111,-0.14524884521961212
1772025700251719700,7.8517197265625,-0.02203504368662834,-0.1400369107723236,-0.05328988656401634
1772025700261716700,7.861716796875,-0.023180438205599785,-0.1768808662891388,0.03529936447739601
1772025700271714600,7.871714599609375,-0.019981715828180313,-0.23151029646396637,0.11127961426973343
1772025700281711900,7.8817119140625,-0.024030210450291634,-0.2856965959072113,0.1727079451084137
1772025700291709700,7.891709716796875,-0.034509219229221344,-0.33350273966789246,0.2166391909122467
1772025700301706800,7.901706787109375,-0.05112529546022415,-0.3622131645679474,0.23803450167179108
1772025700311703800,7.911703857421875,-0.07240235060453415,-0.38930174708366394,0.23217155039310455
1772025700321702000,7.921701904296875,-0.10338643193244934,-0.4050050973892212,0.20367087423801422
1772025700331698700,7.93169873046875,-0.13654038310050964,-0.42137235403060913,0.16289867460727692
1772025700341695700,7.94169580078125,-0.16616787016391754,-0.4242962896823883,0.12315059453248978
1772025700351693800,7.95169384765625,-0.19010941684246063,-0.39981332421302795,0.09279108792543411
1772025700361691000,7.96169091796875,-0.19915543496608734,-0.3665074408054352,0.07345554232597351
1772025700371689000,7.97168896484375,-0.18405663967132568,-0.31004440784454346,0.07423078268766403
1772025700381685800,7.981685791015625,-0.14211918413639069,-0.25779369473457336,0.09367199242115021
1772025700391682800,7.991682861328125,-0.12178274989128113,-0.292904794216156,0.09849444031715393
1772025700401680600,8.0016806640625,-0.14713582396507263,-0.41579779982566833,0.05871833860874176
1772025700411678000,8.011677978515625,-0.1874627321958542,-0.5353380441665649,0.008487658575177193
1772025700421674500,8.021674560546876,-0.20878161489963531,-0.5780397057533264,-0.013389942236244678
1772025700431672600,8.031672607421875,-0.21032917499542236,-0.5455116033554077,-0.01626429334282875
1772025700441669400,8.04166943359375,-0.2182425707578659,-0.5022556781768799,-0.023421209305524826
1772025700451667500,8.05166748046875,-0.22992771863937378,-0.46378952264785767,-0.04307720065116882
1772025700461664500,8.06166455078125,-0.23455810546875,-0.42618271708488464,-0.059760503470897675
1772025700471661600,8.07166162109375,-0.21365627646446228,-0.3971249759197235,-0.06708579510450363
1772025700481659400,8.081659423828125,-0.1836356371641159,-0.3989648222923279,-0.08200409263372421
1772025700491656400,8.091656494140626,-0.16058890521526337,-0.43726402521133423,-0.11230367422103882
1772025700501654500,8.101654541015625,-0.15170304477214813,-0.493812620639801,-0.15459680557250977
1772025700511651600,8.111651611328124,-0.15136481821537018,-0.536699116230011,-0.1960102915763855
1772025700521648400,8.1216484375,-0.1499365270137787,-0.551326334476471,-0.22055505216121674
1772025700531646500,8.131646484375,-0.14917725324630737,-0.540788471698761,-0.21673262119293213
1772025700541643500,8.1416435546875,-0.14311827719211578,-0.5060104131698608,-0.18495111167430878
1772025700551640600,8.151640625,-0.13977175951004028,-0.4454924762248993,-0.1308460682630539
1772025700561638700,8.161638671875,-0.13057933747768402,-0.377775639295578,-0.0600641705095768
1772025700571635500,8.171635498046875,-0.11907021701335907,-0.30351099371910095,0.017407184466719627
1772025700581633500,8.181633544921874,-0.10190917551517487,-0.235743910074234,0.10093995928764343
1772025700591630300,8.19163037109375,-0.08351206034421921,-0.18340986967086792,0.18321245908737183
1772025700601627600,8.201627685546875,-0.07130060344934464,-0.148149311542511,0.2608436644077301
1772025700611625500,8.21162548828125,-0.06978153437376022,-0.11815307289361954,0.32238292694091797
1772025700621622500,8.22162255859375,-0.08289946615695953,-0.09007510542869568,0.3763982355594635
1772025700631619300,8.231619384765626,-0.10108885914087296,-0.05475306138396263,0.41357970237731934
1772025700641617700,8.24161767578125,-0.1349523365497589,-0.018322646617889404,0.4381667375564575
1772025700651614500,8.251614501953124,-0.17587792873382568,0.01254179235547781,0.44705504179000854
1772025700661612500,8.261612548828126,-0.22573556005954742,0.04269813373684883,0.4342176616191864
1772025700671609300,8.271609375,-0.2820877730846405,0.06624260544776917,0.39994171261787415
1772025700681606700,8.281606689453126,-0.33761492371559143,0.08400874584913254,0.3406527042388916
1772025700691604700,8.291604736328125,-0.3985869288444519,0.07823155075311661,0.2725095748901367
1772025700701601500,8.3016015625,-0.4582236409187317,0.053708210587501526,0.18711866438388824
1772025700711598300,8.311598388671875,-0.519476056098938,0.012705650180578232,0.08670203387737274
1772025700721596400,8.321596435546875,-0.5887932181358337,-0.030778858810663223,-0.025540418922901154
1772025700731593700,8.33159375,-0.6483486890792847,-0.05927388370037079,-0.1423775553703308
1772025700741591600,8.341591552734375,-0.6842617988586426,-0.06260275840759277,-0.2583164572715759
1772025700751588600,8.351588623046876,-0.6938848495483398,-0.03502705693244934,-0.36398857831954956
1772025700761585400,8.36158544921875,-0.6845325827598572,0.01081966981291771,-0.4606392979621887
1772025700771583500,8.37158349609375,-0.6648573875427246,0.06605496257543564,-0.5369343161582947
1772025700781580500,8.38158056640625,-0.634077787399292,0.12309268862009048,-0.5817153453826904
1772025700791577600,8.39157763671875,-0.5829564929008484,0.1870514154434204,-0.597364604473114
1772025700801575400,8.401575439453126,-0.515629231929779,0.2518274784088135,-0.5767355561256409
1772025700811572500,8.411572509765625,-0.45066753029823303,0.29867565631866455,-0.539888858795166
1772025700821570300,8.4215703125,-0.38127800822257996,0.32230815291404724,-0.49384844303131104
1772025700831567600,8.431567626953125,-0.31757307052612305,0.3165498673915863,-0.4410131871700287
1772025700841564400,8.441564453125,-0.2703479528427124,0.30243536829948425,-0.394214004278183
1772025700851562500,8.4515625,-0.24084731936454773,0.29116299748420715,-0.35961127281188965
1772025700861559300,8.461559326171875,-0.22869084775447845,0.28352704644203186,-0.34118300676345825
1772025700871556600,8.471556640625,-0.2233450710773468,0.2722458839416504,-0.3416557013988495
1772025700881554700,8.4815546875,-0.22142469882965088,0.24417638778686523,-0.35667142271995544
1772025700891551500,8.491551513671874,-0.22953668236732483,0.21118701994419098,-0.3747364282608032
1772025700901549600,8.501549560546875,-0.23906877636909485,0.18201197683811188,-0.3916443884372711
1772025700911546400,8.51154638671875,-0.25288495421409607,0.1734863966703415,-0.3977150619029999
1772025700921543700,8.521543701171876,-0.26675283908843994,0.1660463511943817,-0.3903287649154663
1772025700931541500,8.53154150390625,-0.2867175042629242,0.17019130289554596,-0.36542820930480957
1772025700941538600,8.54153857421875,-0.3072102665901184,0.17444007098674774,-0.33580854535102844
1772025700951535400,8.551535400390625,-0.32341745495796204,0.16881467401981354,-0.301729679107666
1772025700961533400,8.561533447265624,-0.32919901609420776,0.15315775573253632,-0.27330440282821655
1772025700971530500,8.571530517578125,-0.32850900292396545,0.13080105185508728,-0.2428080141544342
1772025700981528600,8.581528564453125,-0.3228137493133545,0.11552904546260834,-0.21535323560237885
1772025700991525400,8.591525390625,-0.32446542382240295,0.12077946960926056,-0.1818820834159851
1772025701001522400,8.6015224609375,-0.3161206543445587,0.14627139270305634,-0.14472760260105133
1772025701011520500,8.6115205078125,-0.2939021587371826,0.1772809773683548,-0.1025463193655014
1772025701021517600,8.621517578125,-0.25713276863098145,0.20220276713371277,-0.05839090794324875
1772025701031514400,8.631514404296874,-0.19661322236061096,0.22447718679904938,-0.010296082124114037
1772025701041512400,8.641512451171875,-0.1354447305202484,0.22815875709056854,0.025314774364233017
1772025701051509500,8.651509521484375,-0.0761992409825325,0.21725738048553467,0.050404150038957596
1772025701061507600,8.661507568359376,-0.03870544210076332,0.20620420575141907,0.083103708922863
1772025701071504600,8.671504638671875,-0.023078808560967445,0.21447651088237762,0.11696020513772964
1772025701081501400,8.68150146484375,-0.020957525819540024,0.21502463519573212,0.1542874574661255
1772025701091499500,8.69149951171875,-0.026903830468654633,0.2080378234386444,0.18825900554656982
1772025701101496600,8.70149658203125,-0.03872835263609886,0.19995027780532837,0.22600460052490234
1772025701111493600,8.71149365234375,-0.05027608573436737,0.1899660974740982,0.26346221566200256
1772025701121491500,8.721491455078125,-0.05811939015984535,0.17546842992305756,0.3137199878692627
1772025701131488500,8.731488525390626,-0.06302306801080704,0.1743733435869217,0.36302629113197327
1772025701141486300,8.741486328125,-0.06719046831130981,0.19581502676010132,0.4049791395664215
1772025701151483600,8.751483642578124,-0.06694412976503372,0.23185424506664276,0.4424506425857544
1772025701161480400,8.76148046875,-0.05531534180045128,0.27736616134643555,0.46693605184555054
1772025701171478500,8.771478515625,-0.03673393651843071,0.2923051714897156,0.47773465514183044
1772025701181475300,8.781475341796876,-0.031003376469016075,0.2484028935432434,0.4555281400680542
1772025701191472600,8.79147265625,-0.03935451805591583,0.16930487751960754,0.41175377368927
1772025701201470700,8.801470703125,-0.04644274711608887,0.0854557529091835,0.37681055068969727
1772025701211467500,8.811467529296875,-0.060272276401519775,0.022125784307718277,0.35491669178009033
1772025701221465600,8.821465576171875,-0.08287728577852249,-0.010012023150920868,0.342516154050827
1772025701231462400,8.83146240234375,-0.11305942386388779,-0.01526244543492794,0.3478403389453888
1772025701241459700,8.841459716796875,-0.14189580082893372,-0.003929332364350557,0.3561185896396637
1772025701251457500,8.85145751953125,-0.15781910717487335,0.03391898050904274,0.3719281852245331
1772025701261454600,8.86145458984375,-0.14941762387752533,0.08920860290527344,0.38336750864982605
1772025701271451400,8.871451416015624,-0.12683242559432983,0.13521043956279755,0.380900114774704
1772025701281449500,8.881449462890625,-0.09522882848978043,0.15806284546852112,0.36168399453163147
1772025701291446500,8.891446533203125,-0.06179230287671089,0.16542968153953552,0.3287026286125183
1772025701301444600,8.901444580078126,-0.026614220812916756,0.16254284977912903,0.2949051856994629
1772025701311441400,8.91144140625,0.02197089046239853,0.15685567259788513,0.2646050751209259
1772025701321438500,8.9214384765625,0.07734021544456482,0.15199996531009674,0.2343924194574356
1772025701331436300,8.931436279296875,0.1377526819705963,0.14328263700008392,0.21225810050964355
1772025701341433600,8.94143359375,0.20282039046287537,0.13237929344177246,0.19645076990127563
1772025701351430400,8.951430419921875,0.26367759704589844,0.11521521210670471,0.19898290932178497
1772025701361428500,8.961428466796875,0.32138293981552124,0.10002323985099792,0.2135460078716278
1772025701371425300,8.97142529296875,0.35467857122421265,0.09289395809173584,0.2310624122619629
1772025701381423400,8.98142333984375,0.3748309910297394,0.0911107063293457,0.24972398579120636
1772025701391420700,8.991420654296874,0.38206252455711365,0.10440360754728317,0.27181515097618103
1772025701401417500,9.00141748046875,0.4036904573440552,0.13778333365917206,0.3108119070529938
1772025701411415600,9.01141552734375,0.4413638114929199,0.18940125405788422,0.3591994047164917
1772025701421412900,9.021412841796876,0.4962676763534546,0.2610674798488617,0.4060722887516022
1772025701431410000,9.031409912109375,0.5518280863761902,0.3178197145462036,0.44828924536705017
1772025701441408000,9.041407958984376,0.5979170203208923,0.3560730814933777,0.47299620509147644
1772025701451404800,9.05140478515625,0.6245124340057373,0.3886494040489197,0.470226526260376
1772025701461403000,9.06140283203125,0.6361191868782043,0.38801875710487366,0.4513275921344757
1772025701471400000,9.07139990234375,0.6402590870857239,0.3550077974796295,0.4291442632675171
1772025701481397000,9.08139697265625,0.6569448113441467,0.3296799659729004,0.39969709515571594
1772025701491395000,9.09139501953125,0.6679958701133728,0.2940244972705841,0.3641281723976135
1772025701501392000,9.101391845703125,0.6867515444755554,0.2464410960674286,0.32645922899246216
1772025701511389000,9.111388916015626,0.6962491869926453,0.2014342099428177,0.2827186584472656
1772025701521386800,9.12138671875,0.6890825629234314,0.16069169342517853,0.23022569715976715
1772025701531384000,9.131384033203124,0.6594130992889404,0.11558706313371658,0.15388432145118713
1772025701541382000,9.1413818359375,0.5953875184059143,0.05091778188943863,0.05579591915011406
1772025701551379000,9.15137890625,0.5044307112693787,-0.009905618615448475,-0.06668925285339355
1772025701561375700,9.161375732421876,0.3864903151988983,-0.07571925222873688,-0.20357665419578552
1772025701571373800,9.171373779296875,0.24034003913402557,-0.11603498458862305,-0.34924226999282837
1772025701581371000,9.181370849609374,0.088615782558918,-0.13599570095539093,-0.49819430708885193
1772025701591368000,9.191367919921875,-0.05626710504293442,-0.11481505632400513,-0.6364030838012695
1772025701601365800,9.20136572265625,-0.1794145107269287,-0.045885682106018066,-0.7340195178985596
1772025701611362800,9.21136279296875,-0.26490357518196106,0.055142663419246674,-0.7831702828407288
1772025701621359900,9.22135986328125,-0.30666384100914,0.1500636637210846,-0.7869364619255066
1772025701631358000,9.23135791015625,-0.2947387099266052,0.2477971464395523,-0.7440707683563232
1772025701641355000,9.24135498046875,-0.2342243492603302,0.34598296880722046,-0.663916826248169
1772025701651352800,9.251352783203124,-0.13112540543079376,0.42666342854499817,-0.5539306402206421
1772025701661350000,9.261349853515625,0.005294567905366421,0.4752330183982849,-0.4340554177761078
1772025701671347000,9.271346923828125,0.1603001207113266,0.4983982741832733,-0.31562066078186035
1772025701681345000,9.281344970703126,0.3083302974700928,0.48076388239860535,-0.22217018902301788
1772025701691341800,9.291341796875,0.4345420300960541,0.4308844804763794,-0.15010078251361847
1772025701701339000,9.3013388671875,0.5246180891990662,0.37254148721694946,-0.09867807477712631
1772025701711337000,9.3113369140625,0.5814909338951111,0.3204804062843323,-0.06254536658525467
1772025701721331700,9.321331787109376,0.6145594120025635,0.27278265357017517,-0.038655754178762436
1772025701731329800,9.331329833984375,0.6295483112335205,0.21939444541931152,-0.02177923358976841
1772025701741326800,9.341326904296874,0.6238451600074768,0.17068418860435486,-0.004608314484357834
1772025701751324000,9.351323974609375,0.6112023591995239,0.11694558709859848,0.017156634479761124
1772025701761322000,9.361322021484375,0.5833801627159119,0.06168355047702789,0.04334809631109238
1772025701771319000,9.371319091796876,0.5541133284568787,-0.00786516908556223,0.07586901634931564
1772025701781315800,9.38131591796875,0.5213979482650757,-0.08191581070423126,0.10389027744531631
1772025701791314000,9.39131396484375,0.49143898487091064,-0.15963830053806305,0.13314056396484375
1772025701801311000,9.40131103515625,0.4612143933773041,-0.23557119071483612,0.14699679613113403
1772025701811308800,9.411308837890624,0.4306071996688843,-0.3130228519439697,0.15954507887363434
1772025701821306000,9.42130615234375,0.39575469493865967,-0.36792972683906555,0.1576651632785797
1772025701831303000,9.431302978515625,0.35739052295684814,-0.40819644927978516,0.1418507695198059
1772025701841301000,9.441301025390626,0.32685160636901855,-0.42868539690971375,0.12020013481378555
1772025701851297800,9.4512978515625,0.3054792284965515,-0.41861891746520996,0.09435815364122391
1772025701861295000,9.461295166015624,0.28985029458999634,-0.3918411135673523,0.07399503141641617
1772025701871293000,9.47129296875,0.2913379371166229,-0.3584837019443512,0.05986136570572853
1772025701881290000,9.4812900390625,0.3048594295978546,-0.3277239203453064,0.06237964332103729
1772025701891287800,9.491287841796876,0.33553531765937805,-0.30518826842308044,0.07516921311616898
1772025701901284900,9.501284912109375,0.38523808121681213,-0.2911442816257477,0.09452485293149948
1772025701911282000,9.511281982421876,0.4455597400665283,-0.28647497296333313,0.12192665040493011
1772025701921280000,9.521280029296875,0.508401095867157,-0.28513118624687195,0.1520663946866989
1772025701931277000,9.531277099609374,0.5616834759712219,-0.2792687714099884,0.1843404471874237
1772025701941273900,9.54127392578125,0.6043788194656372,-0.2813725769519806,0.21164870262145996
1772025701951272000,9.55127197265625,0.6354400515556335,-0.28669464588165283,0.2361798733472824
1772025701961269000,9.56126904296875,0.667241632938385,-0.280867338180542,0.26425039768218994
1772025701971266000,9.57126611328125,0.7078956365585327,-0.25457313656806946,0.2916066348552704
1772025701981264000,9.581263916015626,0.7413300275802612,-0.2577447295188904,0.30505746603012085
1772025701991261000,9.591260986328125,0.7431859374046326,-0.31615665555000305,0.2740899622440338
1772025702001258800,9.6012587890625,0.7135416865348816,-0.4027506709098816,0.1985422819852829
1772025702011256000,9.611256103515625,0.6770877838134766,-0.4596230089664459,0.11388012021780014
1772025702021252900,9.6212529296875,0.6539540886878967,-0.4996660053730011,0.026962069794535637
1772025702031251000,9.6312509765625,0.6414915919303894,-0.5294473767280579,-0.06367222219705582
1772025702041247700,9.641247802734375,0.6274749040603638,-0.5497595071792603,-0.1550588756799698
1772025702051245000,9.6512451171875,0.6248309016227722,-0.5406134128570557,-0.23011288046836853
1772025702061243000,9.661242919921875,0.6273589730262756,-0.517707347869873,-0.2769874334335327
1772025702071240000,9.671239990234374,0.6482298970222473,-0.4776994585990906,-0.29103052616119385
1772025702081238000,9.681238037109376,0.6779633164405823,-0.44036415219306946,-0.2896415889263153
1772025702091234800,9.69123486328125,0.7251361608505249,-0.41750359535217285,-0.2679794430732727
1772025702101231900,9.70123193359375,0.7863008379936218,-0.3990083634853363,-0.2299458235502243
1772025702111230000,9.71122998046875,0.8523379564285278,-0.3742668032646179,-0.17736676335334778
1772025702121227000,9.72122705078125,0.9066113829612732,-0.33380067348480225,-0.11644035577774048
1772025702131223800,9.731223876953125,0.9453108310699463,-0.26815029978752136,-0.05658182501792908
1772025702141222000,9.741221923828125,0.9701390862464905,-0.1876104772090912,0.009722034446895123
1772025702151219000,9.751218994140626,0.9866746068000793,-0.08847750723361969,0.08806344121694565
1772025702161217000,9.761217041015625,0.9898560643196106,0.03154987469315529,0.17744526267051697
1772025702171213800,9.7712138671875,0.982576847076416,0.15287551283836365,0.26186639070510864
1772025702181211000,9.7812109375,0.9846116304397583,0.2706860303878784,0.3345249593257904
1772025702191209000,9.791208984375,0.9921576976776123,0.37967002391815186,0.3806975185871124
1772025702201206000,9.8012060546875,1.001368522644043,0.4473937749862671,0.38836902379989624
1772025702211202800,9.811202880859375,1.007179617881775,0.46291521191596985,0.3654996454715729
1772025702221201000,9.821200927734376,0.9981468319892883,0.433566689491272,0.3241559863090515
1772025702231198000,9.831197998046875,0.9694821834564209,0.3885406255722046,0.2748696804046631
1772025702241196000,9.841196044921874,0.9161879420280457,0.3484724760055542,0.2193734496831894
1772025702251192800,9.85119287109375,0.8331782817840576,0.33920493721961975,0.16396930813789368
1772025702261190000,9.86118994140625,0.7221397757530212,0.366668701171875,0.1045292317867279
1772025702271188000,9.87118798828125,0.594929575920105,0.43502509593963623,0.04399824142456055
1772025702281185000,9.88118505859375,0.4839332699775696,0.5212636590003967,-0.023185187950730324
1772025702291182000,9.89118212890625,0.39334505796432495,0.6149702072143555,-0.09241139143705368
1772025702301180000,9.901179931640625,0.32953327894210815,0.6997277140617371,-0.17885559797286987
1772025702311177000,9.911177001953124,0.29257872700691223,0.7603330016136169,-0.2740953266620636
1772025702321177000,9.921177001953126,0.27568548917770386,0.7763996124267578,-0.37489062547683716
1772025702331174000,9.931173828125,0.2893347144126892,0.7698783278465271,-0.4711575210094452
1772025702341171000,9.9411708984375,0.33929872512817383,0.7468825578689575,-0.5423332452774048
1772025702351168800,9.951168701171875,0.4242743253707886,0.7235247492790222,-0.5836045145988464
1772025702361166000,9.961166015625,0.5259218215942383,0.7017733454704285,-0.6020604372024536
1772025702371163000,9.971162841796875,0.6412001848220825,0.6743323802947998,-0.6027610898017883
1772025702381161000,9.981160888671875,0.7472015023231506,0.6500248312950134,-0.5976677536964417
1772025702391157800,9.99115771484375,0.840204656124115,0.6330597400665283,-0.5871325135231018
1772025702401155000,10.001155029296875,0.9230907559394836,0.6297574639320374,-0.5877329111099243
1772025702411153000,10.01115283203125,1.0008209943771362,0.6692689061164856,-0.5603830218315125
1772025702421149700,10.021149658203125,1.0881295204162598,0.7257903218269348,-0.49604907631874084
1772025702431147500,10.0311474609375,1.1630221605300903,0.7465967535972595,-0.437494158744812
1772025702441144800,10.041144775390626,1.234916090965271,0.7283794283866882,-0.3955300450325012
1772025702451141600,10.0511416015625,1.3049029111862183,0.693739116191864,-0.3511229157447815
1772025702461139700,10.0611396484375,1.3675364255905151,0.6581156849861145,-0.3195696473121643
1772025702471136500,10.071136474609375,1.4041131734848022,0.6102419495582581,-0.29272472858428955
1772025702481133800,10.0811337890625,1.4215534925460815,0.5769289135932922,-0.27755028009414673
1772025702491132000,10.0911318359375,1.419203281402588,0.5557594299316406,-0.2673431932926178
1772025702501128700,10.101128662109375,1.3997963666915894,0.5529069900512695,-0.27064332365989685
1772025702511126800,10.111126708984376,1.3742518424987793,0.5699496269226074,-0.27626606822013855
1772025702521123600,10.12112353515625,1.3458303213119507,0.609310507774353,-0.2859938442707062
1772025702531121000,10.131120849609376,1.3234091997146606,0.6353519558906555,-0.2964571416378021
1772025702541118700,10.14111865234375,1.3028005361557007,0.6497841477394104,-0.30578896403312683
1772025702551115800,10.15111572265625,1.2907936573028564,0.6661700010299683,-0.3149201571941376
1772025702561112600,10.161112548828125,1.2929648160934448,0.6826797127723694,-0.3134895861148834
1772025702571110700,10.171110595703125,1.3085384368896484,0.6949284076690674,-0.331487238407135
1772025702581107700,10.181107666015626,1.3257170915603638,0.6937295198440552,-0.36469969153404236
1772025702591105800,10.191105712890625,1.3389455080032349,0.683355987071991,-0.4056662917137146
1772025702601102600,10.2011025390625,1.3554664850234985,0.682529091835022,-0.4438842833042145
1772025702611099600,10.211099609375,1.3761330842971802,0.6854817867279053,-0.4772576689720154
1772025702621097500,10.221097412109375,1.4048020839691162,0.7110779285430908,-0.48651257157325745
1772025702631094800,10.2310947265625,1.4501721858978271,0.7245564460754395,-0.47672250866889954
1772025702641091600,10.241091552734375,1.4859414100646973,0.7038636207580566,-0.46459513902664185
1772025702651089700,10.251089599609376,1.5021328926086426,0.6649487018585205,-0.45408791303634644
1772025702661086500,10.26108642578125,1.5006049871444702,0.6227582097053528,-0.44959309697151184
1772025702671084500,10.27108447265625,1.4798789024353027,0.5666347742080688,-0.4448678493499756
1772025702681081900,10.281081787109375,1.4410098791122437,0.5046732425689697,-0.4355086088180542
1772025702691078700,10.29107861328125,1.3960778713226318,0.431881308555603,-0.41133591532707214
1772025702701076700,10.30107666015625,1.3634068965911865,0.39511168003082275,-0.3480207324028015
1772025702711073500,10.311073486328125,1.3452961444854736,0.40083056688308716,-0.23406167328357697
1772025702721070800,10.32107080078125,1.3433315753936768,0.451204389333725,-0.0942263975739479
1772025702731068700,10.331068603515625,1.3577048778533936,0.5000582337379456,0.034667130559682846
1772025702741065700,10.341065673828124,1.3885724544525146,0.49383240938186646,0.13151311874389648
1772025702751062500,10.3510625,1.4257081747055054,0.4346891939640045,0.19715550541877747
1772025702761060600,10.361060546875,1.4659820795059204,0.3832627236843109,0.24118220806121826
1772025702771057700,10.3710576171875,1.4989343881607056,0.36157581210136414,0.2688157260417938
1772025702781055700,10.3810556640625,1.530683994293213,0.37206050753593445,0.288677841424942
1772025702791052500,10.391052490234374,1.5530222654342651,0.3980782628059387,0.2967323064804077
1772025702801049600,10.401049560546875,1.5784387588500977,0.435248464345932,0.3031618297100067
1772025702811047700,10.411047607421875,1.6105860471725464,0.47074759006500244,0.30541619658470154
1772025702821044700,10.421044677734375,1.6461210250854492,0.5009434819221497,0.2990467846393585
1772025702831041500,10.43104150390625,1.6772525310516357,0.5301804542541504,0.2656920254230499
1772025702841039600,10.44103955078125,1.7026249170303345,0.5596657991409302,0.19798748195171356
1772025702851036700,10.45103662109375,1.7216923236846924,0.5750607252120972,0.09841002523899078
1772025702861034800,10.46103466796875,1.7370281219482422,0.5531677007675171,-0.021801671013236046
1772025702871031800,10.47103173828125,1.7203196287155151,0.49710339307785034,-0.14941449463367462
1772025702881028600,10.481028564453124,1.6712278127670288,0.4098275601863861,-0.27255547046661377
1772025702891026700,10.491026611328126,1.5977532863616943,0.32668471336364746,-0.36697545647621155
1772025702901023700,10.501023681640625,1.5296149253845215,0.27699950337409973,-0.4191896617412567
1772025702911020800,10.511020751953126,1.4779021739959717,0.2790567874908447,-0.40388765931129456
1772025702921018600,10.5210185546875,1.4522162675857544,0.3295321762561798,-0.33416780829429626
1772025702931015700,10.531015625,1.4561553001403809,0.41158655285835266,-0.23240870237350464
1772025702941012700,10.5410126953125,1.4856727123260498,0.5067784190177917,-0.11609408259391785
1772025702951010800,10.5510107421875,1.5395634174346924,0.6066991686820984,0.0007377246511168778
1772025702961007600,10.561007568359376,1.5846565961837769,0.6987430453300476,0.08735843747854233
1772025702971005700,10.571005615234375,1.6159201860427856,0.7522744536399841,0.12999483942985535
1772025702981002500,10.58100244140625,1.6446945667266846,0.7768272161483765,0.14336544275283813
1772025702990999800,10.590999755859375,1.666158676147461,0.7871118187904358,0.13226673007011414
1772025703000998000,10.600997802734375,1.693150520324707,0.7578962445259094,0.09739507734775543
1772025703010994700,10.61099462890625,1.725287914276123,0.6995943188667297,0.04245859757065773
1772025703020991500,10.620991455078125,1.7480088472366333,0.6313298940658569,-0.035804979503154755
1772025703030989600,10.630989501953126,1.7629462480545044,0.557211697101593,-0.12925076484680176
1772025703040987000,10.64098681640625,1.7662732601165771,0.4583568572998047,-0.23222148418426514
1772025703050984700,10.650984619140624,1.7637137174606323,0.3623861074447632,-0.31758084893226624
1772025703060981800,10.660981689453125,1.745551347732544,0.3014771640300751,-0.3804604411125183
1772025703070978600,10.670978515625,1.7176342010498047,0.2794738709926605,-0.4287014603614807
1772025703080976600,10.6809765625,1.6855369806289673,0.2726132869720459,-0.4603917598724365
1772025703090973700,10.6909736328125,1.650291919708252,0.2720729410648346,-0.4752359390258789
1772025703100970800,10.700970703125,1.6092932224273682,0.2598341405391693,-0.4827870726585388
1772025703110968600,10.710968505859375,1.5647931098937988,0.2344302535057068,-0.480910062789917
1772025703120965600,10.720965576171874,1.5135430097579956,0.2164602279663086,-0.4623909294605255
1772025703130962700,10.730962646484375,1.4601762294769287,0.21002283692359924,-0.44339245557785034
1772025703140960800,10.740960693359375,1.4074702262878418,0.2159769982099533,-0.4318374693393707
1772025703150957600,10.75095751953125,1.3540897369384766,0.22978869080543518,-0.43137434124946594
1772025703160955600,10.76095556640625,1.3026938438415527,0.25789475440979004,-0.4335693120956421
1772025703170952400,10.770952392578126,1.251586675643921,0.2905416488647461,-0.44867584109306335
1772025703180949800,10.78094970703125,1.2015581130981445,0.30869150161743164,-0.4690863788127899
1772025703190947800,10.79094775390625,1.1540344953536987,0.30654606223106384,-0.4986029863357544
1772025703200944600,10.800944580078125,1.1164511442184448,0.2947404384613037,-0.5223246216773987
1772025703210941700,10.810941650390625,1.09005868434906,0.29017019271850586,-0.5299612283706665
1772025703220939500,10.820939453125,1.0830744504928589,0.2731844484806061,-0.5313262939453125
1772025703230936800,10.830936767578125,1.088956356048584,0.24161693453788757,-0.5156397223472595
1772025703240934700,10.8409345703125,1.1049234867095947,0.2093689888715744,-0.4881358742713928
1772025703250931700,10.850931640625,1.1243067979812622,0.1983264535665512,-0.44436922669410706
1772025703260928500,10.860928466796874,1.1498655080795288,0.20085090398788452,-0.3862876892089844
1772025703270926600,10.870926513671876,1.17323637008667,0.20646432042121887,-0.326839804649353
1772025703280923600,10.880923583984375,1.1985042095184326,0.21608342230319977,-0.2734876573085785
1772025703290920700,10.890920654296876,1.219544768333435,0.22014500200748444,-0.23595412075519562
1772025703300918500,10.90091845703125,1.2419625520706177,0.20925436913967133,-0.21491128206253052
1772025703310915600,10.91091552734375,1.2482995986938477,0.17640267312526703,-0.20544295012950897
1772025703320912600,10.92091259765625,1.240348219871521,0.13788121938705444,-0.20035423338413239
1772025703330910700,10.93091064453125,1.219727635383606,0.09067057073116302,-0.1886243373155594
1772025703340907500,10.940907470703126,1.1871256828308105,0.04179460555315018,-0.1710468977689743
1772025703350905600,10.950905517578125,1.1484125852584839,-0.00904141366481781,-0.13512644171714783
1772025703360903000,10.96090283203125,1.1117708683013916,-0.032669052481651306,-0.08920615911483765
1772025703370899700,10.970899658203125,1.083551287651062,-0.04280504211783409,-0.016152985394001007
1772025703380897800,10.980897705078124,1.0557589530944824,-0.04264133423566818,0.06917555630207062
1772025703390894600,10.99089453125,1.030773401260376,-0.06086401268839836,0.14578431844711304
1772025703400892000,11.000891845703125,1.0158711671829224,-0.09442460536956787,0.2052658349275589
1772025703410889700,11.0108896484375,1.0146876573562622,-0.1347118467092514,0.2395889163017273
1772025703420886500,11.020886474609375,1.0136550664901733,-0.17924262583255768,0.2538745701313019
1772025703430883300,11.03088330078125,1.014494776725769,-0.21158911287784576,0.264322429895401
1772025703440881400,11.04088134765625,1.0238258838653564,-0.22792471945285797,0.2831571698188782
1772025703450878500,11.05087841796875,1.0295532941818237,-0.22025828063488007,0.30703774094581604
1772025703460876500,11.06087646484375,1.033352255821228,-0.2079841047525406,0.32602766156196594
1772025703470873300,11.070873291015625,1.016844391822815,-0.20641550421714783,0.3232435882091522
1772025703480870400,11.080870361328126,0.9819322228431702,-0.2087135910987854,0.29071277379989624
1772025703490868200,11.0908681640625,0.9319404363632202,-0.20110785961151123,0.2320992350578308
1772025703500865500,11.100865478515624,0.8761312961578369,-0.2013307362794876,0.15401335060596466
1772025703510862300,11.1108623046875,0.8124503493309021,-0.21581220626831055,0.06471596658229828
1772025703520860400,11.1208603515625,0.749069333076477,-0.22764119505882263,-0.029494483023881912
1772025703530857200,11.130857177734375,0.7058513164520264,-0.22603851556777954,-0.1153036579489708
1772025703540854500,11.1408544921875,0.6944208145141602,-0.21014094352722168,-0.18509039282798767
1772025703550852600,11.1508525390625,0.713182806968689,-0.1943659633398056,-0.24328739941120148
1772025703560849400,11.160849365234375,0.743160605430603,-0.20156414806842804,-0.2863277494907379
1772025703570847500,11.170847412109374,0.7743531465530396,-0.2192145138978958,-0.31177079677581787
1772025703580844300,11.18084423828125,0.8013529777526855,-0.23562537133693695,-0.3190663158893585
1772025703590841600,11.190841552734375,0.8297651410102844,-0.21752838790416718,-0.30617555975914
1772025703600839400,11.20083935546875,0.8712998628616333,-0.1739484965801239,-0.27141743898391724
1772025703610836500,11.21083642578125,0.9102464318275452,-0.11730172485113144,-0.2135016769170761
1772025703620833300,11.220833251953126,0.9477094411849976,-0.06607072800397873,-0.1343143731355667
1772025703630831400,11.230831298828125,0.9708890914916992,-0.015724465250968933,-0.03659819811582565
1772025703640828400,11.240828369140624,0.9817507266998291,0.030093058943748474,0.07163365930318832
1772025703650826500,11.250826416015625,0.9921658039093018,0.05462290346622467,0.1942485272884369
1772025703660823300,11.2608232421875,0.9907701015472412,0.06374593824148178,0.3228350579738617
1772025703670820400,11.2708203125,0.9857844114303589,0.0876520648598671,0.4516516327857971
1772025703680818400,11.280818359375,0.9799148440361023,0.13274352252483368,0.5555422306060791
1772025703690815500,11.2908154296875,0.9720358848571777,0.1659528762102127,0.6232275366783142
1772025703700812300,11.300812255859375,0.9574230909347534,0.1993100345134735,0.6286249756813049
1772025703710810400,11.310810302734374,0.9398792386054993,0.2660225033760071,0.5768746733665466
1772025703720807400,11.320807373046875,0.9399147033691406,0.31858301162719727,0.4891569912433624
1772025703730804500,11.330804443359375,0.9424141049385071,0.36140957474708557,0.38614994287490845
1772025703740802600,11.340802490234376,0.933271050453186,0.3919607996940613,0.2787158787250519
1772025703750799400,11.35079931640625,0.9061344861984253,0.42176955938339233,0.1678607314825058
1772025703760797400,11.36079736328125,0.8694136142730713,0.43502137064933777,0.06912383437156677
1772025703770794500,11.37079443359375,0.8218942880630493,0.43481072783470154,-0.02332114428281784
1772025703780791600,11.38079150390625,0.7826894521713257,0.4315321445465088,-0.1074228584766388
1772025703790789400,11.390789306640626,0.7587777376174927,0.4364643096923828,-0.1766221672296524
1772025703800786400,11.400786376953125,0.7451207041740417,0.439317524433136,-0.23184159398078918
1772025703810783500,11.410783447265626,0.7532617449760437,0.4443144202232361,-0.2602846920490265
1772025703820781600,11.420781494140625,0.7661501169204712,0.43661415576934814,-0.26308512687683105
1772025703830778400,11.4307783203125,0.799500048160553,0.43310943245887756,-0.2352074384689331
1772025703840775400,11.440775390625,0.8451228737831116,0.45300501585006714,-0.19336837530136108
1772025703850773200,11.450773193359375,0.9022173285484314,0.4817296266555786,-0.14529351890087128
1772025703860770600,11.4607705078125,0.956168532371521,0.4957168996334076,-0.10509790480136871
1772025703870768400,11.470768310546875,0.9919872283935547,0.4835662245750427,-0.07151837646961212
1772025703880765400,11.480765380859374,1.0177797079086304,0.4536183774471283,-0.038839176297187805
1772025703890762200,11.49076220703125,1.0253443717956543,0.419306218624115,-0.010672253556549549
1772025703900760300,11.50076025390625,1.0156484842300415,0.3816121220588684,-0.010266454890370369
1772025703910757600,11.510757568359375,0.9870757460594177,0.350042462348938,-0.03691511228680611
1772025703920754400,11.52075439453125,0.9495867490768433,0.32714444398880005,-0.0898592472076416
1772025703930752500,11.53075244140625,0.8953480124473572,0.3265870213508606,-0.15729394555091858
1772025703940749300,11.540749267578125,0.8309561610221863,0.3274672329425812,-0.20476756989955902
1772025703950746600,11.55074658203125,0.7738223075866699,0.3451029360294342,-0.22652719914913177
1772025703960744400,11.560744384765625,0.7310856580734253,0.3657679259777069,-0.21912848949432373
1772025703970741500,11.570741455078124,0.696520209312439,0.38026243448257446,-0.19207370281219482
1772025703980739300,11.5807392578125,0.6558932065963745,0.40149372816085815,-0.17254212498664856
1772025703990736400,11.590736328125,0.6242958307266235,0.4025592505931854,-0.16914339363574982
1772025704000733400,11.6007333984375,0.6113420724868774,0.380116730928421,-0.1831657439470291
1772025704010731500,11.6107314453125,0.6125026345252991,0.35246700048446655,-0.20593604445457458
1772025704020728300,11.620728271484374,0.6228063106536865,0.3383982181549072,-0.2425837218761444
1772025704030725400,11.630725341796875,0.6448620557785034,0.34088775515556335,-0.28514984250068665
1772025704040723200,11.64072314453125,0.6784743070602417,0.3504456877708435,-0.3299483358860016
1772025704050720500,11.650720458984376,0.7072945237159729,0.3680156171321869,-0.36474812030792236
1772025704060717300,11.66071728515625,0.7314897775650024,0.3880055546760559,-0.38255926966667175
1772025704070715400,11.67071533203125,0.7570486664772034,0.42357632517814636,-0.3739146590232849
1772025704080712200,11.680712158203125,0.7825323343276978,0.4557858109474182,-0.33490386605262756
1772025704090710500,11.69071044921875,0.8123142123222351,0.47172242403030396,-0.2776922583580017
1772025704100707600,11.70070751953125,0.8373543620109558,0.4714875817298889,-0.21939271688461304
1772025704110704400,11.710704345703125,0.8591858744621277,0.4435270428657532,-0.14957529306411743
1772025704120702500,11.720702392578126,0.8561899065971375,0.4126352369785309,-0.07698316872119904
1772025704130699500,11.730699462890625,0.8343456387519836,0.36834314465522766,0.0077463616617023945
1772025704140696600,11.740696533203124,0.79889315366745,0.32485076785087585,0.10043381154537201
1772025704150694400,11.7506943359375,0.7574504017829895,0.2859230637550354,0.18986275792121887
1772025704160691500,11.76069140625,0.7086787223815918,0.24453102052211761,0.2644262909889221
1772025704170688500,11.7706884765625,0.6499980688095093,0.21757876873016357,0.30635562539100647
1772025704180686600,11.7806865234375,0.588371753692627,0.19660024344921112,0.32446885108947754
1772025704190683400,11.790683349609376,0.5270034670829773,0.20805929601192474,0.3225255608558655
1772025704200681500,11.800681396484375,0.4909805953502655,0.2612752318382263,0.3170497417449951
1772025704210678300,11.81067822265625,0.4875432550907135,0.32797515392303467,0.3091776967048645
1772025704220675600,11.820675537109375,0.4951152503490448,0.34607040882110596,0.2900935709476471
1772025704230673400,11.83067333984375,0.4847286641597748,0.3346153497695923,0.24739615619182587
1772025704240670500,11.84067041015625,0.48189035058021545,0.3267674446105957,0.20576775074005127
1772025704250667300,11.850667236328125,0.49410760402679443,0.3185071051120758,0.19085991382598877
1772025704260665300,11.860665283203126,0.4974444806575775,0.33443355560302734,0.18782390654087067
1772025704270662400,11.870662353515625,0.48589780926704407,0.35009878873825073,0.19635321199893951
1772025704280659500,11.880659423828124,0.4617355763912201,0.3429669737815857,0.22525444626808167
1772025704290657500,11.890657470703125,0.43647336959838867,0.31674548983573914,0.27068424224853516
1772025704300654300,11.900654296875,0.3911042809486389,0.2738659381866455,0.30406245589256287
1772025704310652400,11.91065234375,0.3312707841396332,0.21050506830215454,0.30621880292892456
1772025704320649500,11.9206494140625,0.27281585335731506,0.12932685017585754,0.27409517765045166
1772025704330646500,11.930646484375,0.21834887564182281,0.06458833068609238,0.22146816551685333
1772025704340644400,11.940644287109375,0.18101496994495392,0.039823293685913086,0.15991513431072235
1772025704350641400,11.950641357421874,0.15579429268836975,0.05621371790766716,0.09860116988420486
1772025704360638500,11.960638427734375,0.14338834583759308,0.1521652489900589,0.04218447208404541
1772025704370636500,11.970636474609375,0.14686723053455353,0.31800082325935364,0.0071870749816298485
1772025704380633300,11.98063330078125,0.16455772519111633,0.4712657034397125,0.009362496435642242
1772025704390630400,11.99063037109375,0.1854105293750763,0.5889542102813721,0.045240338891744614
1772025704400628200,12.000628173828124,0.2027122974395752,0.6644386053085327,0.09143685549497604
1772025704410625500,12.01062548828125,0.21731680631637573,0.7092129588127136,0.13729596138000488
1772025704420622800,12.020622802734374,0.2487146556377411,0.7305760383605957,0.17422336339950562
1772025704430621000,12.030620849609376,0.3193100094795227,0.7535908222198486,0.2154882401227951
1772025704440618000,12.040617919921875,0.41896912455558777,0.777096688747406,0.2747021019458771
1772025704450615800,12.05061572265625,0.5089040994644165,0.7862755060195923,0.3325185179710388
1772025704460613000,12.060613037109375,0.557429850101471,0.7825520038604736,0.3932798504829407
1772025704470610000,12.07060986328125,0.518501341342926,0.7569553256034851,0.5128166675567627
1772025704480608000,12.08060791015625,0.460048109292984,0.6122962832450867,0.5429646968841553
1772025704490604800,12.090604736328125,0.45053982734680176,0.4034815728664398,0.4989253580570221
1772025704500602000,12.10060205078125,0.5046645998954773,0.15669304132461548,0.37040066719055176
1772025704510600000,12.110599853515625,0.5511420965194702,-0.0080319968983531,0.19672659039497375
1772025704520597000,12.120596923828124,0.5226552486419678,-0.08895427733659744,-0.005663877818733454
1772025704530593800,12.13059375,0.4672556221485138,-0.11603409796953201,-0.19389504194259644
1772025704540591900,12.140591796875,0.45896708965301514,-0.06046674773097038,-0.34113073348999023
1772025704550589000,12.1505888671875,0.49885058403015137,0.04064042866230011,-0.4392769932746887
1772025704560587000,12.1605869140625,0.5425503253936768,0.10858983546495438,-0.4811173975467682
