time,seconds_elapsed,z,y,x
1772025787117710600,0.064710693359375,-0.08422965556383133,-0.18984197080135345,0.06393666565418243
1772025787127707400,0.074707275390625,-0.14773966372013092,-0.15195396542549133,0.08598151057958603
1772025787137705500,0.08470556640625,-0.199594184756279,-0.09637155383825302,0.097231425344944
1772025787147702500,0.09470263671875,-0.23499824106693268,-0.03836231678724289,0.09610810875892639
1772025787157699600,0.104699462890625,-0.24888518452644348,0.0188278891146183,0.07911241799592972
1772025787167697700,0.11469775390625,-0.2554991543292999,0.05877423658967018,0.05748941749334335
1772025787177694500,0.124694580078125,-0.2574666738510132,0.10294242203235626,0.04371299967169762
1772025787187691500,0.13469140625,-0.24054256081581116,0.1673528403043747,0.04602062702178955
1772025787197689600,0.144689697265625,-0.18982712924480438,0.23882991075515747,0.07104114443063736
1772025787207686700,0.154686767578125,-0.12459620833396912,0.2671257257461548,0.0866086483001709
1772025787217683500,0.164683349609375,-0.09621613472700119,0.2569328248500824,0.06887076050043106
1772025787227681500,0.174681640625,-0.09472689777612686,0.2343393713235855,0.03932539001107216
1772025787237678600,0.1846787109375,-0.10552972555160522,0.2108176052570343,0.016365723684430122
1772025787247675600,0.194675537109375,-0.13085372745990753,0.20346860587596893,-0.009687716141343117
1772025787257673500,0.204673583984375,-0.16628685593605042,0.19223369657993317,-0.035690788179636
1772025787267670500,0.21467041015625,-0.20600150525569916,0.16191387176513672,-0.07221045345067978
1772025787277667600,0.22466748046875,-0.23563642799854279,0.1213712990283966,-0.11269499361515045
1772025787287665700,0.234665771484375,-0.25722214579582214,0.10169613361358643,-0.13857825100421906
1772025787297662500,0.244662353515625,-0.25183558464050293,0.10350404679775238,-0.14759734272956848
1772025787307659500,0.254659423828125,-0.22751294076442719,0.08448375016450882,-0.15224963426589966
1772025787317657300,0.2646572265625,-0.18626031279563904,0.05373451113700867,-0.1362132728099823
1772025787327654700,0.274654541015625,-0.1314937323331833,0.024064499884843826,-0.11528747528791428
1772025787337651500,0.2846513671875,-0.07640592008829117,0.003147386945784092,-0.08318523317575455
1772025787347649500,0.2946494140625,-0.01342003233730793,0.00154070183634758,-0.046955596655607224
1772025787357646600,0.304646484375,0.030791442841291428,-0.004291735589504242,-0.012348108924925327
1772025787367643600,0.3146435546875,0.07451681792736053,0.020181383937597275,0.027475204318761826
1772025787377641700,0.324641845703125,0.11913268268108368,0.04167545214295387,0.05803673714399338
1772025787387638500,0.334638427734375,0.1642109453678131,0.07036036252975464,0.09402509778738022
1772025787397636600,0.34463671875,0.22321081161499023,0.123716339468956,0.14808039367198944
1772025787407633700,0.354633544921875,0.30042755603790283,0.20612412691116333,0.22534242272377014
1772025787417630700,0.364630615234375,0.38986313343048096,0.26278018951416016,0.3055741488933563
1772025787427628500,0.374628662109375,0.4697936475276947,0.2900344431400299,0.374147891998291
1772025787437625600,0.38462548828125,0.5237285494804382,0.28438177704811096,0.41941243410110474
1772025787447622700,0.39462255859375,0.5592924356460571,0.23553059995174408,0.43851661682128906
1772025787457620700,0.404620849609375,0.564983069896698,0.17379745841026306,0.4436393082141876
1772025787467617500,0.414617431640625,0.5514808297157288,0.13105452060699463,0.43632200360298157
1772025787477614600,0.424614501953125,0.5247318148612976,0.1004921942949295,0.41941145062446594
1772025787487612400,0.4346123046875,0.49191612005233765,0.07150714844465256,0.39430636167526245
1772025787497609700,0.444609619140625,0.4516873061656952,0.028778711333870888,0.35927814245224
1772025787507607300,0.454607177734375,0.40208113193511963,-0.0042034718208014965,0.3152579665184021
1772025787517605400,0.46460546875,0.339531809091568,-0.01750805228948593,0.2564101815223694
1772025787527602200,0.474602294921875,0.25007304549217224,-0.041839223355054855,0.16073240339756012
1772025787537599200,0.48459912109375,0.13424363732337952,-0.09158920496702194,0.036382753401994705
1772025787547597000,0.49459716796875,0.022093934938311577,-0.13574999570846558,-0.10132823884487152
1772025787557594400,0.504594482421875,-0.06104467436671257,-0.15484075248241425,-0.2192274034023285
1772025787567591200,0.514591064453125,-0.09662450850009918,-0.1406133472919464,-0.3023878335952759
1772025787577589200,0.52458935546875,-0.10953274369239807,-0.11404779553413391,-0.3539762496948242
1772025787587586000,0.5345859375,-0.10263382643461227,-0.06846459209918976,-0.3694148659706116
1772025787597583400,0.544583251953125,-0.0738401785492897,-0.013380343094468117,-0.3510204255580902
1772025787607581400,0.55458154296875,-0.02689051441848278,0.05014563351869583,-0.30855897068977356
1772025787617578200,0.564578125,0.050173282623291016,0.11282141506671906,-0.24134115874767303
1772025787627575000,0.574574951171875,0.1566414088010788,0.16847670078277588,-0.16763657331466675
1772025787637573000,0.584572998046875,0.2548043131828308,0.20621083676815033,-0.10175669193267822
1772025787647570400,0.5945703125,0.31632548570632935,0.19303937256336212,-0.06802616268396378
1772025787657567200,0.604567138671875,0.3493669033050537,0.1652866154909134,-0.05844976380467415
1772025787667565300,0.6145654296875,0.36738264560699463,0.1441834568977356,-0.06242692843079567
1772025787677562000,0.62456201171875,0.3818809390068054,0.1313137710094452,-0.07162788510322571
1772025787687559400,0.634559326171875,0.3919953405857086,0.1141667366027832,-0.08712881803512573
1772025787697557200,0.64455712890625,0.38946884870529175,0.07838317006826401,-0.1065966933965683
1772025787707554300,0.65455419921875,0.37801113724708557,0.023266656324267387,-0.11795667558908463
1772025787717552000,0.66455224609375,0.3559471368789673,-0.0026841748040169477,-0.10524088889360428
1772025787727549400,0.674549560546875,0.33176884055137634,-0.015331259928643703,-0.09109604358673096
1772025787737546200,0.684546142578125,0.30214107036590576,-0.05292375758290291,-0.07871002703905106
1772025787747544300,0.69454443359375,0.26469168066978455,-0.10829513520002365,-0.07568147778511047
1772025787757541000,0.704541015625,0.22735990583896637,-0.16851909458637238,-0.07692964375019073
1772025787767538400,0.714538330078125,0.19717751443386078,-0.215582475066185,-0.07774004340171814
1772025787777536500,0.72453662109375,0.1810731291770935,-0.2546622157096863,-0.07274556159973145
1772025787787533300,0.734533203125,0.17926564812660217,-0.2724020481109619,-0.062484126538038254
1772025787797530000,0.744530029296875,0.18191616237163544,-0.28173407912254333,-0.04221608489751816
1772025787807528200,0.754528076171875,0.17689397931098938,-0.28988173604011536,-0.03061455301940441
1772025787817525500,0.764525390625,0.16536195576190948,-0.3044103682041168,-0.027191586792469025
1772025787827522300,0.774522216796875,0.1493198722600937,-0.3252458870410919,-0.027115153148770332
1772025787837520400,0.784520263671875,0.12650613486766815,-0.34436026215553284,-0.022613871842622757
1772025787847517200,0.79451708984375,0.10867414623498917,-0.3555537760257721,-0.006190157029777765
1772025787857514500,0.804514404296875,0.09052715450525284,-0.36183980107307434,0.024516332894563675
1772025787867512300,0.81451220703125,0.07584754377603531,-0.3599518835544586,0.06155770644545555
1772025787877509400,0.82450927734375,0.06344014406204224,-0.3468911945819855,0.10236186534166336
1772025787887506200,0.834506103515625,0.05465703830122948,-0.3221818506717682,0.1457492858171463
1772025787897504300,0.844504150390625,0.05835337936878204,-0.2967419922351837,0.1855558604001999
1772025787907501300,0.854501220703125,0.07075145840644836,-0.26441869139671326,0.2282886803150177
1772025787917498400,0.864498291015625,0.10051435977220535,-0.21474598348140717,0.27462252974510193
1772025787927496200,0.87449609375,0.13851340115070343,-0.16701442003250122,0.3118188977241516
1772025787937493200,0.8844931640625,0.14929157495498657,-0.15101829171180725,0.32071632146835327
1772025787947490300,0.894490234375,0.1325400173664093,-0.13069623708724976,0.2859002947807312
1772025787957488400,0.90448828125,0.11948873847723007,-0.11104876548051834,0.22689196467399597
1772025787967485200,0.914485107421875,0.11694835126399994,-0.10512936115264893,0.14821738004684448
1772025787977482200,0.924482177734375,0.09079879522323608,-0.11299881339073181,0.04735267162322998
1772025787987480000,0.93447998046875,0.0382213369011879,-0.1504596322774887,-0.06649719923734665
1772025787997477400,0.944477294921875,-0.02664174884557724,-0.19155362248420715,-0.18055562674999237
1772025788007474200,0.95447412109375,-0.07454749196767807,-0.24844913184642792,-0.2804529368877411
1772025788017472300,0.96447216796875,-0.09340231120586395,-0.30692243576049805,-0.3505152761936188
1772025788027469000,0.974468994140625,-0.10383018851280212,-0.36869072914123535,-0.38740113377571106
1772025788037466400,0.98446630859375,-0.12658877670764923,-0.42307618260383606,-0.4038398861885071
1772025788047464400,0.99446435546875,-0.13850829005241394,-0.4605548679828644,-0.3902417719364166
1772025788057461200,1.004461181640625,-0.14184236526489258,-0.47948670387268066,-0.3541608452796936
1772025788067459300,1.014459228515625,-0.13112740218639374,-0.46623483300209045,-0.28500282764434814
1772025788077456100,1.0244560546875,-0.1055867001414299,-0.427949994802475,-0.20771437883377075
1772025788087453400,1.034453369140625,-0.07336245477199554,-0.39240050315856934,-0.11675544083118439
1772025788097451300,1.044451171875,-0.03852635249495506,-0.34037742018699646,-0.02280329167842865
1772025788107448300,1.0544482421875,-0.00177899154368788,-0.26338809728622437,0.08803081512451172
1772025788117445000,1.064445068359375,0.03508022427558899,-0.16387693583965302,0.19597406685352325
1772025788127443200,1.074443115234375,0.06102687120437622,-0.0710950717329979,0.29174667596817017
1772025788137440300,1.084440185546875,0.08532313257455826,-0.0074061499908566475,0.3643401861190796
1772025788147437300,1.094437255859375,0.09622638672590256,0.03468617796897888,0.4103478789329529
1772025788157435100,1.10443505859375,0.09248897433280945,0.043143726885318756,0.4284549355506897
1772025788167432200,1.11443212890625,0.06958205997943878,0.026633193716406822,0.4209783971309662
1772025788177429200,1.12442919921875,0.03282376378774643,0.019651146605610847,0.397194504737854
1772025788187427300,1.13442724609375,-0.021044794470071793,0.040398236364126205,0.3550547659397125
1772025788197424000,1.144424072265625,-0.08014369755983353,0.07167360186576843,0.29921993613243103
1772025788207421200,1.154421142578125,-0.12600120902061462,0.09693209081888199,0.23868151009082794
1772025788217419300,1.164419189453125,-0.168519988656044,0.10968079417943954,0.16433420777320862
1772025788227416300,1.174416259765625,-0.21913470327854156,0.1055760607123375,0.07530900835990906
1772025788237413000,1.1844130859375,-0.27669310569763184,0.07304828613996506,-0.04741330072283745
1772025788247411200,1.1944111328125,-0.3438449800014496,0.012070953845977783,-0.19176116585731506
1772025788257408300,1.204408203125,-0.41132453083992004,-0.05765916407108307,-0.32836368680000305
1772025788267405300,1.2144052734375,-0.4540690779685974,-0.10345195233821869,-0.44966933131217957
1772025788277403400,1.2244033203125,-0.4736171066761017,-0.1251804232597351,-0.5325664281845093
1772025788287400200,1.234400146484375,-0.4757566750049591,-0.13407990336418152,-0.5794785022735596
1772025788297397200,1.244397216796875,-0.44715070724487305,-0.10910066217184067,-0.575614869594574
1772025788307395300,1.254395263671875,-0.39281103014945984,-0.06022154539823532,-0.5196911692619324
1772025788317392400,1.264392333984375,-0.30655038356781006,0.003014038549736142,-0.42984917759895325
1772025788327389200,1.27438916015625,-0.19947989284992218,0.05719764903187752,-0.3081184923648834
1772025788337387300,1.28438720703125,-0.10690455883741379,0.09636140614748001,-0.18498077988624573
1772025788347384300,1.29438427734375,-0.04246324673295021,0.11106205731630325,-0.07540661096572876
1772025788357381400,1.30438134765625,-0.010180962271988392,0.09791506081819534,0.006304511334747076
1772025788367379200,1.314379150390625,-0.0012180935591459274,0.08613935858011246,0.06935404986143112
1772025788377376300,1.324376220703125,-0.007651381194591522,0.07828611135482788,0.10886717587709427
1772025788387373300,1.334373291015625,-0.03746786713600159,0.08800399303436279,0.1199006512761116
1772025788397371400,1.344371337890625,-0.08195757120847702,0.10112804919481277,0.10460745543241501
1772025788407368200,1.3543681640625,-0.13310250639915466,0.12117978930473328,0.07283354550600052
1772025788417365200,1.364365234375,-0.1849687546491623,0.12332374602556229,0.033212024718523026
1772025788427363000,1.374363037109375,-0.21675331890583038,0.11506501585245132,-0.008872311562299728
1772025788437360400,1.3843603515625,-0.22927357256412506,0.11333267390727997,-0.062389764934778214
1772025788447357200,1.394357177734375,-0.22507509589195251,0.11696255952119827,-0.1094406321644783
1772025788457355300,1.404355224609375,-0.21790459752082825,0.12403374165296555,-0.141743004322052
1772025788467352300,1.414352294921875,-0.2169426679611206,0.1243586465716362,-0.16131962835788727
1772025788477350100,1.42435009765625,-0.2032986581325531,0.12700237333774567,-0.15738487243652344
1772025788487347500,1.434347412109375,-0.17537593841552734,0.12979735434055328,-0.13201293349266052
1772025788497344300,1.44434423828125,-0.1394677460193634,0.11217335611581802,-0.10202627629041672
1772025788507341800,1.454341796875,-0.10186763107776642,0.08557131141424179,-0.061267390847206116
1772025788517339000,1.4643388671875,-0.060724854469299316,0.06083594262599945,-0.011577671393752098
1772025788527336000,1.4743359375,-0.027431614696979523,0.04709882661700249,0.04808272793889046
1772025788537334000,1.484333984375,0.0024456169921904802,0.03999423235654831,0.11301630735397339
1772025788547330800,1.494330810546875,0.02855764515697956,0.036126259714365005,0.17238563299179077
1772025788557328000,1.504327880859375,0.04254307970404625,0.021460650488734245,0.21862325072288513
1772025788567326000,1.514325927734375,0.03815818578004837,0.0012589761754497886,0.24910472333431244
1772025788577323000,1.524322998046875,0.013427263125777245,-0.014265540055930614,0.25873908400535583
1772025788587319800,1.53431982421875,-0.02818196453154087,-0.018745509907603264,0.2476917803287506
1772025788597318000,1.54431787109375,-0.08488072454929352,-0.00581685546785593,0.21591630578041077
1772025788607315000,1.55431494140625,-0.13929231464862823,0.019644031301140785,0.17249852418899536
1772025788617312000,1.56431201171875,-0.16961632668972015,0.06064625084400177,0.12453416734933853
1772025788627309800,1.574309814453125,-0.17777225375175476,0.06942243129014969,0.06078128516674042
1772025788637307000,1.584306884765625,-0.1926269233226776,0.028561322018504143,-0.015531554818153381
1772025788647304000,1.594303955078125,-0.22796866297721863,0.0004290194483473897,-0.10552562773227692
1772025788657302000,1.604302001953125,-0.2586466073989868,-0.02447240985929966,-0.1833866387605667
1772025788667298800,1.614298828125,-0.28836509585380554,-0.024123534560203552,-0.24227552115917206
1772025788677295900,1.6242958984375,-0.3099963366985321,-0.01487194187939167,-0.27509555220603943
1772025788687294000,1.6342939453125,-0.30819711089134216,0.006800330244004726,-0.27632033824920654
1772025788697291000,1.644291015625,-0.30851608514785767,0.05049530789256096,-0.2554267942905426
1772025788707287800,1.654287841796875,-0.29298293590545654,0.07318757474422455,-0.23349593579769135
1772025788717286000,1.664285888671875,-0.2594417929649353,0.06908028572797775,-0.20742861926555634
1772025788727283000,1.674282958984375,-0.21080659329891205,0.07302576303482056,-0.19348563253879547
1772025788737280000,1.684280029296875,-0.17387771606445312,0.07478436082601547,-0.1893295794725418
1772025788747278000,1.694278076171875,-0.13143092393875122,0.09832164645195007,-0.18739239871501923
1772025788757275000,1.70427490234375,-0.09009508788585663,0.1251136213541031,-0.18241021037101746
1772025788767272000,1.71427197265625,-0.051873400807380676,0.1596636027097702,-0.159542977809906
1772025788777269800,1.724269775390625,-0.0016426841029897332,0.22956234216690063,-0.10536764562129974
1772025788787267000,1.73426708984375,0.04923328012228012,0.31670069694519043,-0.03460186719894409
1772025788797264000,1.744263916015625,0.11406725645065308,0.373130202293396,0.04644818603992462
1772025788807262000,1.754261962890625,0.18785890936851501,0.3994952440261841,0.13289040327072144
1772025788817258800,1.7642587890625,0.2552879750728607,0.43471047282218933,0.2321700006723404
1772025788827256000,1.774256103515625,0.3282809555530548,0.47366824746131897,0.3451801836490631
1772025788837254000,1.78425390625,0.40503138303756714,0.5012967586517334,0.47343045473098755
1772025788847251000,1.7942509765625,0.4836137890815735,0.5054510235786438,0.5901309251785278
1772025788857247700,1.804247802734375,0.5462395548820496,0.4967455565929413,0.6802669763565063
1772025788867245800,1.814245849609375,0.5828790664672852,0.4597124457359314,0.7215877771377563
1772025788877243000,1.824242919921875,0.5879620313644409,0.3930189311504364,0.7147238850593567
1772025788887240000,1.834239990234375,0.5712749361991882,0.30828431248664856,0.672711193561554
1772025788897238000,1.844238037109375,0.5474853515625,0.19819897413253784,0.6165404915809631
1772025788907234800,1.85423486328125,0.5161948204040527,0.08354589343070984,0.5555554628372192
1772025788917231900,1.86423193359375,0.45645609498023987,-0.018535500392317772,0.49339649081230164
1772025788927230000,1.87422998046875,0.3681803047657013,-0.13183383643627167,0.4385542869567871
1772025788937227000,1.88422705078125,0.25909188389778137,-0.22391358017921448,0.3966503441333771
1772025788947223800,1.894223876953125,0.1256970763206482,-0.30121901631355286,0.34349367022514343
1772025788957222000,1.904221923828125,-0.013635220006108284,-0.3962140381336212,0.26097121834754944
1772025788967219000,1.914218994140625,-0.16561463475227356,-0.4625571072101593,0.15676571428775787
1772025788977216000,1.924216064453125,-0.32712456583976746,-0.45976153016090393,0.03674524277448654
1772025788987213800,1.9342138671875,-0.4811287522315979,-0.4074314832687378,-0.08205784112215042
1772025788997211000,1.9442109375,-0.6547460556030273,-0.3374330699443817,-0.20275819301605225
1772025789007208700,1.954208740234375,-0.8097886443138123,-0.2361336052417755,-0.300281822681427
1772025789017206000,1.9642060546875,-0.92386394739151,-0.08573512732982635,-0.37226390838623047
1772025789027202800,1.974202880859375,-0.9817208647727966,0.060494258999824524,-0.41033032536506653
1772025789037201000,1.984200927734375,-0.9592853784561157,0.17047280073165894,-0.42568251490592957
1772025789047197700,1.99419775390625,-0.8575227856636047,0.25344040989875793,-0.40895360708236694
1772025789057195000,2.004195068359375,-0.6872263550758362,0.31218287348747253,-0.3644961416721344
1772025789067192800,2.01419287109375,-0.4874288737773895,0.35521209239959717,-0.3025158643722534
1772025789077190000,2.02418994140625,-0.3105893135070801,0.36623066663742065,-0.24798859655857086
1772025789087186700,2.034186767578125,-0.1888676881790161,0.3586489260196686,-0.20389969646930695
1772025789097185000,2.04418505859375,-0.11850325018167496,0.341073602437973,-0.16760188341140747
1772025789107181800,2.054181884765625,-0.07951217889785767,0.3168486952781677,-0.13244494795799255
1772025789117179000,2.064178955078125,-0.06965600699186325,0.28419649600982666,-0.09947971254587173
1772025789127177000,2.074177001953125,-0.08158563822507858,0.2509442865848541,-0.0570978969335556
1772025789137174000,2.084174072265625,-0.10619143396615982,0.21623332798480988,-0.0059489356353878975
1772025789147170800,2.0941708984375,-0.14729200303554535,0.16077272593975067,0.04210700839757919
1772025789157169000,2.1041689453125,-0.1926541030406952,0.07549668103456497,0.09148266166448593
1772025789167166000,2.114166015625,-0.22725149989128113,-0.021978475153446198,0.13019703328609467
1772025789177163000,2.1241630859375,-0.24781669676303864,-0.10192523896694183,0.1736116260290146
1772025789187161000,2.1341611328125,-0.25455912947654724,-0.17156732082366943,0.2067393958568573
1772025789197158000,2.144157958984375,-0.27308082580566406,-0.21866680681705475,0.238002747297287
1772025789207155000,2.154155029296875,-0.29757553339004517,-0.2422216683626175,0.2600255012512207
1772025789217152800,2.16415283203125,-0.33319956064224243,-0.2488991618156433,0.26888835430145264
1772025789227150000,2.174150146484375,-0.3514435291290283,-0.2594729959964752,0.2637164890766144
1772025789237147000,2.18414697265625,-0.36790457367897034,-0.2683975398540497,0.23786814510822296
1772025789247145000,2.19414501953125,-0.36296361684799194,-0.2762243151664734,0.19016346335411072
1772025789257141800,2.204141845703125,-0.34786102175712585,-0.2727547883987427,0.13475823402404785
1772025789267139000,2.21413916015625,-0.3198924958705902,-0.2583811581134796,0.07428503036499023
1772025789277137000,2.224136962890625,-0.2754747271537781,-0.2294519990682602,0.02221585623919964
1772025789287134000,2.234134033203125,-0.2194111943244934,-0.18995332717895508,-0.011157012544572353
1772025789297130800,2.244130859375,-0.15025551617145538,-0.15990598499774933,-0.029936445876955986
1772025789307128800,2.25412890625,-0.08843902498483658,-0.14087876677513123,-0.03427499905228615
1772025789317126000,2.2641259765625,-0.03524664044380188,-0.132921501994133,-0.030596645548939705
1772025789327123000,2.274123046875,0.012558164075016975,-0.1425269991159439,-0.014534586109220982
1772025789337121000,2.28412109375,0.048136673867702484,-0.1617537885904312,0.0064515178091824055
1772025789347117800,2.294117919921875,0.07838486135005951,-0.19270186126232147,0.03955727443099022
1772025789357115000,2.304114990234375,0.10479554533958435,-0.2353571504354477,0.06835903227329254
1772025789367113000,2.314113037109375,0.12425073236227036,-0.27630695700645447,0.10021496564149857
1772025789377110000,2.324110107421875,0.1416303515434265,-0.3206908106803894,0.12814602255821228
1772025789387106800,2.33410693359375,0.1578141152858734,-0.3439572751522064,0.1525336503982544
1772025789397105000,2.34410498046875,0.18014143407344818,-0.3570637106895447,0.17247197031974792
1772025789407102000,2.35410205078125,0.21756631135940552,-0.34493035078048706,0.19302839040756226
1772025789417099000,2.36409912109375,0.2689814269542694,-0.32840481400489807,0.20463436841964722
1772025789427096800,2.374096923828125,0.3068334758281708,-0.33538174629211426,0.19291779398918152
1772025789437094000,2.384093994140625,0.3185112774372101,-0.35720187425613403,0.14882326126098633
1772025789447091000,2.394091064453125,0.30543115735054016,-0.3728572726249695,0.09295999258756638
1772025789457089000,2.404089111328125,0.29556965827941895,-0.3742294907569885,0.0511406734585762
1772025789467085800,2.4140859375,0.28290900588035583,-0.3502168357372284,0.029901165515184402
1772025789477083000,2.424082763671875,0.2789836823940277,-0.3013059198856354,0.027290768921375275
1772025789487080700,2.434080810546875,0.28468871116638184,-0.2520723044872284,0.03773568570613861
1772025789497078000,2.444078125,0.31332290172576904,-0.22289294004440308,0.046786509454250336
1772025789507074600,2.454074462890625,0.3455146551132202,-0.22126227617263794,0.048045653849840164
1772025789517072400,2.464072265625,0.35701870918273926,-0.23758384585380554,0.03083190694451332
1772025789527069700,2.474069580078125,0.34667232632637024,-0.2584153711795807,0.0031837669666856527
1772025789537066500,2.48406640625,0.31344670057296753,-0.27805379033088684,-0.03203052654862404
1772025789547064600,2.494064697265625,0.2762788236141205,-0.2922106087207794,-0.05777717009186745
1772025789557061400,2.504061279296875,0.23799781501293182,-0.295177698135376,-0.07701294124126434
1772025789567058700,2.51405859375,0.2018139809370041,-0.288264662027359,-0.08908878266811371
1772025789577056500,2.524056396484375,0.16557568311691284,-0.28479599952697754,-0.0996076688170433
1772025789587053600,2.534053466796875,0.12997907400131226,-0.30170920491218567,-0.10805521160364151
1772025789597050400,2.54405029296875,0.0909370556473732,-0.3285577893257141,-0.11234313994646072
1772025789607048400,2.55404833984375,0.0673515722155571,-0.33478185534477234,-0.09935357421636581
1772025789617045800,2.564045654296875,0.06491228193044662,-0.31970709562301636,-0.0517355352640152
1772025789627042600,2.57404248046875,0.08594059944152832,-0.2712128162384033,0.018448077142238617
1772025789637040600,2.58404052734375,0.1218293085694313,-0.20933882892131805,0.10186457633972168
1772025789647037400,2.594037353515625,0.15949971973896027,-0.1332421898841858,0.17350174486637115
1772025789657034800,2.60403466796875,0.17958328127861023,-0.05361614376306534,0.23148441314697266
1772025789667032600,2.614032470703125,0.17145584523677826,0.017033258453011513,0.263470321893692
1772025789677029600,2.624029541015625,0.1384570449590683,0.07925710082054138,0.2635093629360199
1772025789687026400,2.6340263671875,0.09930246323347092,0.13200099766254425,0.2507472336292267
1772025789697024500,2.6440244140625,0.062275584787130356,0.170353502035141,0.2246551364660263
1772025789707021600,2.654021484375,0.018892694264650345,0.20310504734516144,0.1853569895029068
1772025789717018600,2.6640185546875,-0.016984272748231888,0.22006574273109436,0.14408181607723236
1772025789727016400,2.674016357421875,-0.044522423297166824,0.2327282726764679,0.09522585570812225
1772025789737013500,2.684013427734375,-0.06254883855581284,0.24408063292503357,0.040180858224630356
1772025789747011300,2.69401123046875,-0.07996191829442978,0.2518099248409271,-0.023736340925097466
1772025789757008600,2.704008544921875,-0.09976159781217575,0.23942281305789948,-0.10020001977682114
1772025789767005400,2.71400537109375,-0.11690809577703476,0.20144373178482056,-0.18305255472660065
1772025789777002500,2.72400244140625,-0.14619721472263336,0.1544090062379837,-0.26840582489967346
1772025789787000300,2.734000244140625,-0.18036529421806335,0.10095801949501038,-0.3463621437549591
1772025789796997600,2.74399755859375,-0.2055918425321579,0.0527145192027092,-0.4127257168292999
1772025789806995700,2.75399560546875,-0.2206786572933197,0.004911043681204319,-0.45724818110466003
1772025789816992500,2.763992431640625,-0.22460788488388062,-0.03734145313501358,-0.4698551893234253
1772025789826989300,2.7739892578125,-0.21985919773578644,-0.073258176445961,-0.4588102400302887
1772025789836986600,2.783986572265625,-0.20158399641513824,-0.07980680465698242,-0.4201791286468506
1772025789846984700,2.793984619140625,-0.16110233962535858,-0.059210989624261856,-0.3515196442604065
1772025789856981500,2.8039814453125,-0.09554657340049744,-0.03451717272400856,-0.2610305845737457
1772025789866979600,2.8139794921875,-0.01453800406306982,-0.0044532776810228825,-0.16366329789161682
1772025789876976400,2.823976318359375,0.06347203254699707,0.014562412165105343,-0.07116595655679703
1772025789886973700,2.8339736328125,0.11266861110925674,0.019522549584507942,-0.007179248612374067
1772025789896971500,2.843971435546875,0.12589648365974426,0.020009949803352356,0.023943940177559853
1772025789906968600,2.853968505859375,0.11915469169616699,0.022963928058743477,0.029509147629141808
1772025789916965400,2.86396533203125,0.0894792303442955,0.02407819777727127,0.009569584392011166
1772025789926963500,2.87396337890625,0.045079540461301804,0.034213654696941376,-0.014302459545433521
1772025789936960500,2.88396044921875,-0.011511522345244884,0.049637116491794586,-0.04233650863170624
1772025789946957600,2.89395751953125,-0.07447637617588043,0.06826566904783249,-0.0709361881017685
1772025789956955400,2.903955322265625,-0.12142691016197205,0.07529120147228241,-0.10037074238061905
1772025789966952400,2.913952392578125,-0.1564253717660904,0.07941217720508575,-0.13402457535266876
1772025789976949500,2.923949462890625,-0.17164696753025055,0.07427768409252167,-0.16720154881477356
1772025789986947600,2.933947509765625,-0.17462891340255737,0.062276940792798996,-0.19678208231925964
1772025789996944400,2.9439443359375,-0.16565583646297455,0.060187458992004395,-0.2185051441192627
1772025790006941400,2.95394140625,-0.14320218563079834,0.0661446824669838,-0.23283720016479492
1772025790016939500,2.963939453125,-0.11253570765256882,0.07671374082565308,-0.2444714456796646
1772025790026936600,2.9739365234375,-0.08246809244155884,0.09058587998151779,-0.2524894177913666
1772025790036933400,2.983933349609375,-0.05365196242928505,0.09939546883106232,-0.2579158544540405
1772025790046931500,2.993931396484375,-0.023118019104003906,0.09669741988182068,-0.2565549612045288
1772025790056928500,3.003928466796875,-0.0026647397316992283,0.09712919592857361,-0.2451329082250595
1772025790066925600,3.013925537109375,0.010030282661318779,0.09905119985342026,-0.22089414298534393
1772025790076923600,3.023923583984375,0.03289408981800079,0.08349301666021347,-0.176426962018013
1772025790086920400,3.03392041015625,0.05224382132291794,0.07968708872795105,-0.1161913126707077
1772025790096917500,3.04391748046875,0.07463083416223526,0.07154664397239685,-0.04443522170186043
1772025790106915600,3.05391552734375,0.09493983536958694,0.06520459055900574,0.031874995678663254
1772025790116912600,3.06391259765625,0.10639756172895432,0.06134023144841194,0.09963633120059967
1772025790126909400,3.073909423828125,0.11039496958255768,0.051802121102809906,0.1522049903869629
1772025790136907500,3.083907470703125,0.09270472824573517,0.048503145575523376,0.18647797405719757
1772025790146904600,3.093904541015625,0.061814453452825546,0.04417764022946358,0.19326157867908478
1772025790156901600,3.103901611328125,0.031203728169202805,0.043930310755968094,0.18583035469055176
1772025790166899500,3.1138994140625,-0.0049737198278307915,0.05762029066681862,0.16368670761585236
1772025790176896500,3.123896484375,-0.035221654921770096,0.08244278281927109,0.1350819617509842
1772025790186893600,3.1338935546875,-0.049832288175821304,0.13215306401252747,0.1058012992143631
1772025790196891600,3.1438916015625,-0.03431139513850212,0.21438227593898773,0.08715824037790298
1772025790206888400,3.153888427734375,0.02773573063313961,0.26963862776756287,0.07616764307022095
1772025790216885500,3.163885498046875,0.10175958275794983,0.273029088973999,0.07716622203588486
1772025790226883300,3.17388330078125,0.13997195661067963,0.2642797827720642,0.06896208971738815
1772025790236880600,3.183880615234375,0.14465495944023132,0.24557119607925415,0.055151551961898804
1772025790246877400,3.19387744140625,0.1477183848619461,0.20606108009815216,0.03998085483908653
1772025790256875500,3.20387548828125,0.14378312230110168,0.16028951108455658,0.025304393842816353
1772025790266872300,3.213872314453125,0.12160218507051468,0.10416792333126068,0.0036241309717297554
1772025790276869600,3.22386962890625,0.07558903098106384,0.0550849623978138,-0.027587926015257835
1772025790286867700,3.23386767578125,0.02040434256196022,0.02814335934817791,-0.058886460959911346
1772025790296864500,3.243864501953125,-0.018445411697030067,0.025487272068858147,-0.08089704066514969
1772025790306861600,3.253861572265625,-0.03734773024916649,0.04026435688138008,-0.09407329559326172
1772025790316859400,3.263859375,-0.04063916578888893,0.06806614995002747,-0.10642168670892715
1772025790326856700,3.273856689453125,-0.03778452426195145,0.08542650192975998,-0.11479173600673676
1772025790336853500,3.283853515625,0.0020203469321131706,0.09760940819978714,-0.10964074730873108
1772025790346851600,3.2938515625,0.06223175302147865,0.11458652466535568,-0.0875607430934906
1772025790356848400,3.303848388671875,0.128387451171875,0.13303986191749573,-0.047131091356277466
1772025790366845700,3.313845703125,0.1978517472743988,0.14083386957645416,0.0024311323650181293
1772025790376843500,3.323843505859375,0.2588590085506439,0.15520934760570526,0.055530253797769547
1772025790386840600,3.333840576171875,0.3100217878818512,0.1534508615732193,0.10945446789264679
1772025790396837400,3.34383740234375,0.3548285663127899,0.1484532505273819,0.16502045094966888
1772025790406835500,3.35383544921875,0.3913554251194,0.15666323900222778,0.21832042932510376
1772025790416832500,3.36383251953125,0.43616023659706116,0.18679718673229218,0.275357186794281
1772025790426829600,3.37382958984375,0.483541339635849,0.19945013523101807,0.3350442051887512
1772025790436827400,3.383827392578125,0.5279639959335327,0.2075156271457672,0.3860768675804138
1772025790446824400,3.393824462890625,0.5529013276100159,0.20186999440193176,0.4250335693359375
1772025790456821500,3.403821533203125,0.5675718784332275,0.18198378384113312,0.4405522346496582
1772025790466819600,3.413819580078125,0.5739322900772095,0.15262776613235474,0.44464072585105896
1772025790476816400,3.42381640625,0.5819290280342102,0.10609046369791031,0.4379681348800659
1772025790486813400,3.4338134765625,0.5836052298545837,0.058470748364925385,0.43573641777038574
1772025790496811500,3.4438115234375,0.5866411924362183,0.041657835245132446,0.44624048471450806
1772025790506809600,3.4538095703125,0.586288571357727,0.04082107171416283,0.4566233456134796
1772025790516806400,3.463806396484375,0.5808374285697937,0.0304731298238039,0.45383918285369873
1772025790526804500,3.473804443359375,0.5724990963935852,0.009786493144929409,0.4242938160896301
1772025790536801300,3.48380126953125,0.5464565753936768,-0.019983695819973946,0.3570723235607147
1772025790546798600,3.493798583984375,0.483986496925354,-0.08361353725194931,0.24053692817687988
1772025790556796400,3.50379638671875,0.37620800733566284,-0.165749192237854,0.07644819468259811
1772025790566793500,3.51379345703125,0.22083039581775665,-0.25941202044487,-0.1345953494310379
1772025790576790300,3.523790283203125,0.04030228033661842,-0.3273977041244507,-0.35097405314445496
1772025790586788400,3.533788330078125,-0.09322302043437958,-0.35008758306503296,-0.5215638875961304
1772025790596785400,3.543785400390625,-0.16346955299377441,-0.27476415038108826,-0.6185860633850098
1772025790606782500,3.553782470703125,-0.18479028344154358,-0.13759779930114746,-0.6447222828865051
1772025790616780300,3.5637802734375,-0.14920805394649506,0.008370336145162582,-0.611619770526886
1772025790626777300,3.57377734375,-0.06498265266418457,0.13059957325458527,-0.5342802405357361
1772025790636774400,3.5837744140625,0.04859721288084984,0.2510092854499817,-0.4226776361465454
1772025790646772500,3.5937724609375,0.17765399813652039,0.32175883650779724,-0.2996254861354828
1772025790656769500,3.60376953125,0.28082969784736633,0.36045005917549133,-0.18584048748016357
1772025790666766300,3.613766357421875,0.3495453894138336,0.36862677335739136,-0.09020184725522995
1772025790676764400,3.623764404296875,0.39719530940055847,0.3669169247150421,-0.01608201302587986
1772025790686761500,3.633761474609375,0.42757558822631836,0.3544301688671112,0.02327684499323368
1772025790696758500,3.643758544921875,0.45357054471969604,0.34338104724884033,0.038859084248542786
1772025790706756400,3.65375634765625,0.4627121090888977,0.34363192319869995,0.03732909634709358
1772025790716753400,3.66375341796875,0.450184166431427,0.335097998380661,0.019722215831279755
1772025790726750500,3.67375048828125,0.418993204832077,0.29070577025413513,-0.004964753519743681
1772025790736748500,3.68374853515625,0.3785317838191986,0.23334436118602753,-0.026714768260717392
1772025790746745300,3.693745361328125,0.33378374576568604,0.17327997088432312,-0.04130436107516289
1772025790756742400,3.703742431640625,0.29203882813453674,0.11402121186256409,-0.047940220683813095
1772025790766740200,3.713740234375,0.24793821573257446,0.05403883382678032,-0.04459609091281891
1772025790776737500,3.723737548828125,0.2073832005262375,-0.015490634366869926,-0.028618525713682175
1772025790786734300,3.733734375,0.16881370544433594,-0.07506395131349564,-0.0016004896024242043
1772025790796732400,3.743732421875,0.1282031387090683,-0.12530258297920227,0.029416952282190323
1772025790806729200,3.753729248046875,0.09160731732845306,-0.17565923929214478,0.049349915236234665
1772025790816726500,3.7637265625,0.05097930505871773,-0.2171218991279602,0.06315435469150543
1772025790826724400,3.773724365234375,0.014666303060948849,-0.24428269267082214,0.06216365844011307
1772025790836721400,3.783721435546875,0.00004188460297882557,-0.2411886304616928,0.06712976098060608
1772025790846718200,3.79371826171875,-0.003993337042629719,-0.2232634276151657,0.06827252358198166
1772025790856716300,3.80371630859375,0.0012316842330619693,-0.1984608769416809,0.05179239809513092
1772025790866713300,3.81371337890625,0.01085661444813013,-0.17936360836029053,0.019019274041056633
1772025790876710400,3.82371044921875,0.02910461276769638,-0.18625403940677643,-0.01673194393515587
1772025790886708500,3.83370849609375,0.043081946671009064,-0.21594375371932983,-0.04501205310225487
1772025790896705300,3.843705322265625,0.04227626696228981,-0.2102404087781906,-0.05679263919591904
1772025790906702300,3.853702392578125,0.037129443138837814,-0.21272674202919006,-0.04460415244102478
1772025790916700400,3.863700439453125,0.04526272788643837,-0.21645984053611755,-0.012802406214177608
1772025790926697500,3.873697509765625,0.06632007658481598,-0.19600516557693481,0.03157331421971321
1772025790936694300,3.8836943359375,0.09935864061117172,-0.1859227865934372,0.08548597991466522
1772025790946692400,3.8936923828125,0.14764095842838287,-0.1711060255765915,0.14549338817596436
1772025790956689400,3.903689453125,0.21462447941303253,-0.15761198103427887,0.22091878950595856
1772025790966686500,3.9136865234375,0.27889108657836914,-0.15241216123104095,0.28420668840408325
1772025790976684300,3.923684326171875,0.3192359507083893,-0.17625932395458221,0.31244614720344543
1772025790986681300,3.933681396484375,0.33475232124328613,-0.20440679788589478,0.30705270171165466
1772025790996678400,3.943678466796875,0.3458252251148224,-0.22413751482963562,0.27946433424949646
1772025791006676500,3.953676513671875,0.3640204668045044,-0.23993058502674103,0.23617307841777802
1772025791016673300,3.96367333984375,0.3659171164035797,-0.2589672803878784,0.1894407421350479
1772025791026670300,3.97367041015625,0.34438225626945496,-0.28098949790000916,0.13430212438106537
1772025791036668400,3.98366845703125,0.31178295612335205,-0.3027873933315277,0.08000723272562027
1772025791046665500,3.99366552734375,0.28187379240989685,-0.3162834942340851,0.029616499319672585
1772025791056662300,4.003662353515625,0.2590491771697998,-0.33446645736694336,-0.02145068719983101
1772025791066660400,4.013660400390625,0.24493148922920227,-0.3620767891407013,-0.06499577313661575
1772025791076657400,4.023657470703125,0.2208077758550644,-0.38764914870262146,-0.0972643494606018
1772025791086654500,4.033654541015625,0.19202806055545807,-0.38564351201057434,-0.1176292821764946
1772025791096652500,4.043652587890625,0.15819671750068665,-0.3610447645187378,-0.12242422997951508
1772025791106649300,4.0536494140625,0.13547728955745697,-0.32317274808883667,-0.10645166039466858
1772025791116646400,4.063646484375,0.10442434251308441,-0.2761285901069641,-0.07473675906658173
1772025791126644500,4.07364453125,0.06930071115493774,-0.19406619668006897,-0.03551425412297249
1772025791136641500,4.0836416015625,0.042498376220464706,-0.1250581443309784,-0.0026923855766654015
1772025791146638300,4.093638427734375,0.022676466032862663,-0.07192115485668182,0.037150900810956955
1772025791156636400,4.103636474609375,0.02066044509410858,-0.00833726953715086,0.088912233710289
1772025791166633500,4.113633544921875,0.019844984635710716,0.062193360179662704,0.15166722238063812
1772025791176630500,4.123630615234375,0.018095416948199272,0.12821917235851288,0.21112076938152313
1772025791186628400,4.13362841796875,0.011724868789315224,0.17272938787937164,0.26153600215911865
1772025791196625400,4.14362548828125,0.006070547737181187,0.1926776021718979,0.29643040895462036
1772025791206622500,4.15362255859375,-0.007731817662715912,0.19139555096626282,0.3119710087776184
1772025791216620500,4.16362060546875,-0.02960745431482792,0.1976529061794281,0.3185191750526428
1772025791226617300,4.173617431640625,-0.05752271041274071,0.21286915242671967,0.31236299872398376
1772025791236614400,4.183614501953125,-0.08327698707580566,0.23130126297473907,0.29551488161087036
1772025791246612200,4.1936123046875,-0.11025267839431763,0.267857164144516,0.2590402364730835
1772025791256609500,4.203609619140625,-0.12628962099552155,0.28911590576171875,0.19117045402526855
1772025791266606300,4.2136064453125,-0.13707861304283142,0.2786065340042114,0.10904441773891449
1772025791276604400,4.2236044921875,-0.1585826873779297,0.24772650003433228,0.0025194978807121515
1772025791286601200,4.233601318359375,-0.1866593360900879,0.1975458860397339,-0.12093879282474518
1772025791296598500,4.2435986328125,-0.21896019577980042,0.13928167521953583,-0.23968705534934998
1772025791306596600,4.2535966796875,-0.2409089058637619,0.08885151892900467,-0.3469216227531433
1772025791316593400,4.263593505859375,-0.2409280240535736,0.05233657732605934,-0.4182213842868805
1772025791326590200,4.273590087890625,-0.22035138309001923,0.04715060442686081,-0.45132821798324585
1772025791336588300,4.28358837890625,-0.190731480717659,0.06999290734529495,-0.45244458317756653
1772025791346585600,4.293585693359375,-0.14226435124874115,0.11638517677783966,-0.41704267263412476
1772025791356582400,4.30358251953125,-0.07832866907119751,0.17005415260791779,-0.3466041088104248
1772025791366580500,4.31358056640625,-0.011203423142433167,0.20910754799842834,-0.266414999961853
1772025791376577300,4.323577392578125,0.04371369630098343,0.2155924290418625,-0.18907377123832703
1772025791386574600,4.33357470703125,0.0773446261882782,0.1914982795715332,-0.12390809506177902
1772025791396572400,4.343572509765625,0.09054732322692871,0.15871623158454895,-0.07150563597679138
1772025791406569500,4.353569580078125,0.08231522142887115,0.128580704331398,-0.0249788798391819
1772025791416566300,4.363566162109375,0.06471137702465057,0.10401647537946701,0.0021961901802569628
1772025791426564400,4.373564453125,0.028425009921193123,0.08203660696744919,0.008608016185462475
1772025791436561400,4.3835615234375,-0.012965764850378036,0.07480281591415405,0.0004051781725138426
1772025791446558500,4.393558349609375,-0.04458148404955864,0.07544330507516861,-0.017561038956046104
1772025791456556300,4.403556396484375,-0.07104726880788803,0.08450265973806381,-0.05082893744111061
1772025791466553300,4.41355322265625,-0.08916608989238739,0.09746186435222626,-0.09240008145570755
1772025791476550400,4.42355029296875,-0.08685731887817383,0.1252443790435791,-0.13258454203605652
1772025791486548500,4.433548583984375,-0.06906447559595108,0.15337854623794556,-0.1622612178325653
1772025791496545300,4.443545166015625,-0.034339919686317444,0.16659119725227356,-0.19063153862953186
1772025791506541800,4.453541748046875,0.0037946824450045824,0.15932796895503998,-0.20955996215343475
1772025791516540000,4.463539794921875,0.03992919996380806,0.14755435287952423,-0.2128022015094757
1772025791526536700,4.47353662109375,0.07820547372102737,0.14326293766498566,-0.19796493649482727
1772025791536533800,4.48353369140625,0.11040590703487396,0.1338227242231369,-0.17047399282455444
1772025791546531600,4.493531494140625,0.14336943626403809,0.13354656100273132,-0.12709136307239532
1772025791556529000,4.50352880859375,0.18050047755241394,0.13354149460792542,-0.08102288097143173
1772025791566525700,4.513525634765625,0.2190246880054474,0.13141335546970367,-0.02717430144548416
1772025791576523800,4.523523681640625,0.25122368335723877,0.11907447874546051,0.0185092780739069
1772025791586520600,4.5335205078125,0.2764161229133606,0.10159748792648315,0.05378764122724533
1772025791596518000,4.543517822265625,0.2942303419113159,0.08230147510766983,0.08266399055719376
1772025791606516000,4.553515869140625,0.3089171350002289,0.06853719800710678,0.10967910289764404
1772025791616512800,4.5635126953125,0.31349578499794006,0.04584948718547821,0.12983009219169617
1772025791626509600,4.573509521484375,0.3044082820415497,0.02087409794330597,0.1539175808429718
1772025791636507600,4.583507568359375,0.28090283274650574,-0.00036243489012122154,0.1726764291524887
1772025791646505000,4.5935048828125,0.24547827243804932,-0.011921086348593235,0.19497613608837128
1772025791656501800,4.603501708984375,0.2089821994304657,-0.009175024926662445,0.21736206114292145
1772025791666499800,4.613499755859375,0.1730652004480362,0.003211869392544031,0.22900967299938202
1772025791676496600,4.62349658203125,0.13892172276973724,0.02824387326836586,0.22996927797794342
1772025791686494000,4.633493896484375,0.11891339719295502,0.0662359967827797,0.21956484019756317
1772025791696491800,4.64349169921875,0.12068105489015579,0.12700910866260529,0.20733635127544403
1772025791706488800,4.65348876953125,0.15113456547260284,0.1904221624135971,0.19556890428066254
1772025791716485600,4.663485595703125,0.1937963217496872,0.22185233235359192,0.1728702336549759
1772025791726483700,4.673483642578125,0.2139362096786499,0.20305387675762177,0.13022050261497498
1772025791736480800,4.683480712890625,0.20101295411586761,0.18393796682357788,0.08516141772270203
1772025791746477800,4.693477783203125,0.17737224698066711,0.1870749443769455,0.05809202790260315
1772025791756475600,4.7034755859375,0.15924857556819916,0.2144947350025177,0.0521385595202446
1772025791766472700,4.71347265625,0.1342116743326187,0.24304941296577454,0.05455537885427475
1772025791776469800,4.7234697265625,0.1254551112651825,0.2645401656627655,0.06508875638246536
1772025791786467800,4.7334677734375,0.1377197653055191,0.2689972221851349,0.08266934752464294
1772025791796464600,4.743464599609375,0.15811078250408173,0.2630167305469513,0.09896577149629593
1772025791806461700,4.753461669921875,0.18147681653499603,0.2366945892572403,0.09295821189880371
1772025791816459800,4.763459716796875,0.18746472895145416,0.20348553359508514,0.07389408349990845
1772025791826456800,4.773456787109375,0.181910440325737,0.16814245283603668,0.036201827228069305
1772025791836453600,4.78345361328125,0.16578775644302368,0.14940857887268066,-0.005955129396170378
1772025791846451700,4.79345166015625,0.15326663851737976,0.13982625305652618,-0.04708312451839447
1772025791856448800,4.80344873046875,0.15082325041294098,0.13974103331565857,-0.07414393126964569
1772025791866445800,4.81344580078125,0.15721085667610168,0.1458500623703003,-0.09611687064170837
1772025791876444000,4.82344384765625,0.16795684397220612,0.14185859262943268,-0.10887216031551361
1772025791886440700,4.833440673828125,0.18502184748649597,0.12892360985279083,-0.11343415081501007
1772025791896437800,4.843437744140625,0.20469629764556885,0.13161766529083252,-0.1081845760345459
1772025791906435800,4.853435791015625,0.2311987578868866,0.13945774734020233,-0.09261680394411087
1772025791916433000,4.863432861328125,0.25117725133895874,0.14887267351150513,-0.0677371546626091
1772025791926429700,4.8734296875,0.28933846950531006,0.1661406010389328,-0.02728532999753952
1772025791936427800,4.883427734375,0.33854660391807556,0.18310634791851044,0.016981815919280052
1772025791946424800,4.8934248046875,0.3972509205341339,0.20625346899032593,0.07581131160259247
1772025791956422000,4.903421875,0.4602278172969818,0.21652011573314667,0.14537891745567322
1772025791966419700,4.913419677734375,0.5206067562103271,0.22762256860733032,0.23375697433948517
1772025791976416800,4.923416748046875,0.5636911988258362,0.23954272270202637,0.30303823947906494
1772025791986413800,4.933413818359375,0.5938968062400818,0.22944428026676178,0.349995881319046
1772025791996412000,4.943411865234375,0.6289026141166687,0.19321997463703156,0.3632749915122986
1772025792006408700,4.95340869140625,0.6552039980888367,0.14403484761714935,0.34948301315307617
1772025792016405800,4.96340576171875,0.6685658097267151,0.08033306151628494,0.31975048780441284
1772025792026403600,4.973403564453125,0.6622964143753052,0.022496920078992844,0.2741489112377167
1772025792036401000,4.98340087890625,0.6363880038261414,-0.02581666223704815,0.23245693743228912
1772025792046397700,4.993397705078125,0.5953447222709656,-0.05375055968761444,0.18213757872581482
1772025792056395800,5.003395751953125,0.5405828952789307,-0.0772906169295311,0.12916477024555206
1772025792066392600,5.013392578125,0.47134286165237427,-0.10603491961956024,0.06688781082630157
1772025792076390000,5.023389892578125,0.39015525579452515,-0.13712990283966064,-0.0038863494992256165
1772025792086388000,5.033387939453125,0.30738475918769836,-0.17993862926959991,-0.08291777968406677
1772025792096384800,5.043384765625,0.21429604291915894,-0.2187955230474472,-0.170942023396492
1772025792106381800,5.0533818359375,0.10662631690502167,-0.2579959034919739,-0.2709181606769562
1772025792116379600,5.063379638671875,0.006752912886440754,-0.2617456614971161,-0.3699367046356201
1772025792126377000,5.073376953125,-0.07415418326854706,-0.2476564645767212,-0.45695018768310547
1772025792136373800,5.083373779296875,-0.12837451696395874,-0.19563327729701996,-0.5366664528846741
1772025792146371800,5.093371826171875,-0.16263529658317566,-0.09564649313688278,-0.581725001335144
1772025792156368600,5.10336865234375,-0.16310183703899384,0.032529234886169434,-0.5993576645851135
1772025792166366000,5.113365966796875,-0.12363752722740173,0.16908255219459534,-0.5874956846237183
1772025792176363800,5.12336376953125,-0.032526399940252304,0.3155265152454376,-0.5426669120788574
1772025792186360800,5.13336083984375,0.08218633383512497,0.45665913820266724,-0.4841732382774353
1772025792196357600,5.143357666015625,0.18241818249225616,0.5424663424491882,-0.4371300935745239
1772025792206355700,5.153355712890625,0.25814089179039,0.572223961353302,-0.40174227952957153
1772025792216352800,5.163352783203125,0.29841840267181396,0.5752508640289307,-0.3680726885795593
1772025792226349800,5.173349853515625,0.323778361082077,0.5646184682846069,-0.3273678719997406
1772025792236347600,5.18334765625,0.33852046728134155,0.5491522550582886,-0.2940770983695984
1772025792246344700,5.1933447265625,0.33993566036224365,0.5195062160491943,-0.26253995299339294
1772025792256341800,5.203341796875,0.339364230632782,0.4717710614204407,-0.23970603942871094
1772025792266339800,5.21333984375,0.33378514647483826,0.40888264775276184,-0.21995683014392853
1772025792276336600,5.223336669921875,0.31852439045906067,0.33682551980018616,-0.2060491144657135
1772025792286333700,5.233333740234375,0.3003022372722626,0.26058080792427063,-0.19486543536186218
1772025792296331800,5.243331787109375,0.2877591848373413,0.1915629506111145,-0.18474122881889343
1772025792306328800,5.253328857421875,0.2818189859390259,0.12834669649600983,-0.17487262189388275
1772025792316325600,5.26332568359375,0.2791130542755127,0.0761110708117485,-0.156778484582901
1772025792326323700,5.27332373046875,0.27171239256858826,0.027306515723466873,-0.13937313854694366
1772025792336320800,5.28332080078125,0.25998654961586,-0.030025409534573555,-0.12194916605949402
1772025792346317800,5.29331787109375,0.24590933322906494,-0.09439374506473541,-0.10759472846984863
1772025792356316000,5.30331591796875,0.22673508524894714,-0.15803198516368866,-0.09406919032335281
1772025792366312700,5.313312744140625,0.2025352120399475,-0.20999665558338165,-0.08087748289108276
1772025792376307700,5.3233076171875,0.17761628329753876,-0.2556946575641632,-0.06796354800462723
1772025792386305800,5.333305908203125,0.14944161474704742,-0.3026518225669861,-0.05862116813659668
1772025792396302600,5.343302490234375,0.11103252321481705,-0.3309836983680725,-0.05887288227677345
1772025792406300000,5.3532998046875,0.07699066400527954,-0.34274527430534363,-0.06376989930868149
1772025792416297700,5.363297607421875,0.0601392462849617,-0.3395153880119324,-0.07091516256332397
1772025792426294800,5.373294677734375,0.05699565261602402,-0.31326860189437866,-0.07992729544639587
1772025792436291600,5.38329150390625,0.07077071815729141,-0.27864527702331543,-0.07661759108304977
1772025792446289700,5.39328955078125,0.10679955780506134,-0.23063112795352936,-0.060859132558107376
1772025792456286700,5.40328662109375,0.16801758110523224,-0.1679813712835312,-0.028430456295609474
1772025792466283800,5.41328369140625,0.2714630365371704,-0.08202039450407028,0.019389797002077103
1772025792476280600,5.423280517578125,0.4042845368385315,-0.025680307298898697,0.08376248180866241
1772025792486278700,5.433278564453125,0.5031882524490356,-0.03142927214503288,0.12166405469179153
1772025792496275700,5.443275634765625,0.5241681933403015,-0.06195731461048126,0.12279877066612244
1772025792506272800,5.453272705078125,0.5023773908615112,-0.07678872346878052,0.09777358174324036
1772025792516275200,5.463275146484375,0.5017142295837402,-0.05579286813735962,0.09293635934591293
1772025792526272000,5.47327197265625,0.5298497080802917,-0.011911161243915558,0.10899335145950317
1772025792536269000,5.48326904296875,0.5616142749786377,0.03046122007071972,0.13008268177509308
1772025792546267100,5.49326708984375,0.5935556888580322,0.05904892086982727,0.15290836989879608
1772025792556264200,5.50326416015625,0.6431982517242432,0.06369263678789139,0.1818665862083435
1772025792566261000,5.513260986328125,0.7059125304222107,0.050732895731925964,0.21664533019065857
1772025792576259000,5.523259033203125,0.7634950876235962,0.017683979123830795,0.2478340119123459
1772025792586256100,5.533256103515625,0.7941040992736816,-0.026977231726050377,0.26477333903312683
1772025792596253200,5.543253173828125,0.7969766855239868,-0.0789775401353836,0.26130157709121704
1772025792606251000,5.5532509765625,0.7779191136360168,-0.1320442259311676,0.2459321916103363
1772025792616248000,5.563248046875,0.7264594435691833,-0.15566907823085785,0.22379332780838013
1772025792626245000,5.5732451171875,0.6457374095916748,-0.1505289226770401,0.19150063395500183
1772025792636243200,5.5832431640625,0.5532443523406982,-0.13377657532691956,0.14918604493141174
1772025792646240000,5.593239990234375,0.47518518567085266,-0.1113777905702591,0.10348911583423615
1772025792656237000,5.603237060546875,0.4252302050590515,-0.08196941018104553,0.06286018341779709
1772025792666235000,5.61323486328125,0.3997293710708618,-0.06741869449615479,0.02542625553905964
1772025792676232200,5.623232177734375,0.3806576728820801,-0.06507565081119537,0.003966238349676132
1772025792686229000,5.63322900390625,0.3810664415359497,-0.04704916849732399,0.0034044580534100533
1772025792696227000,5.64322705078125,0.39827537536621094,0.008188208565115929,0.03781616687774658
1772025792706223900,5.653223876953125,0.41717344522476196,0.09588157385587692,0.0862545445561409
1772025792716221200,5.66322119140625,0.45080655813217163,0.20006722211837769,0.14466440677642822
1772025792726219300,5.67321923828125,0.4762554466724396,0.2981642484664917,0.19252167642116547
1772025792736216000,5.683216064453125,0.4776579439640045,0.3729109764099121,0.2123022973537445
1772025792746212900,5.693212890625,0.4563230872154236,0.40701356530189514,0.2085735946893692
1772025792756211000,5.7032109375,0.42517510056495667,0.42485877871513367,0.18584252893924713
1772025792766208300,5.713208251953125,0.39013615250587463,0.420388400554657,0.14319492876529694
1772025792776205000,5.723205078125,0.3562154471874237,0.39954981207847595,0.09015864878892899
1772025792786203100,5.733203125,0.30819785594940186,0.3586133122444153,0.023823032155632973
1772025792796200000,5.743199951171875,0.2586764991283417,0.30546411871910095,-0.058768849819898605
1772025792806197200,5.753197265625,0.20205743610858917,0.23236888647079468,-0.1469184160232544
1772025792816195000,5.763195068359375,0.14834998548030853,0.17771105468273163,-0.2225496470928192
1772025792826192100,5.773192138671875,0.1165185421705246,0.14308463037014008,-0.27497583627700806
1772025792836189000,5.78318896484375,0.11802967637777328,0.13389816880226135,-0.28548282384872437
1772025792846187000,5.79318701171875,0.14330227673053741,0.17128175497055054,-0.2624978721141815
1772025792856184000,5.80318408203125,0.1867886483669281,0.21664786338806152,-0.22085319459438324
1772025792866181000,5.81318115234375,0.24311263859272003,0.26253387331962585,-0.16895990073680878
1772025792876179000,5.823178955078125,0.3058166801929474,0.30833396315574646,-0.12149646133184433
1772025792886176000,5.833176025390625,0.35603031516075134,0.3339945673942566,-0.08904078602790833
1772025792896173000,5.843173095703125,0.3860931992530823,0.3455052673816681,-0.07994704693555832
1772025792906171100,5.853171142578125,0.39835307002067566,0.35951587557792664,-0.07589264959096909
1772025792916168000,5.86316796875,0.4060058295726776,0.36123377084732056,-0.07629594206809998
1772025792926165000,5.8731650390625,0.394169420003891,0.3395867943763733,-0.08325424790382385
1772025792936163000,5.8831630859375,0.3729509115219116,0.31013256311416626,-0.09860802441835403
1772025792946160000,5.89316015625,0.35070738196372986,0.29351070523262024,-0.11040502786636353
1772025792956157000,5.903156982421875,0.3117143213748932,0.2783026397228241,-0.12749232351779938
1772025792966155000,5.913155029296875,0.2762061059474945,0.23929771780967712,-0.13912446796894073
1772025792976152000,5.923152099609375,0.2526777982711792,0.21452714502811432,-0.14499244093894958
1772025792986151000,5.93315087890625,0.252169132232666,0.19450177252292633,-0.14337670803070068
1772025792996149000,5.94314892578125,0.2690828740596771,0.193203404545784,-0.12956543266773224
1772025793006146000,5.95314599609375,0.29431766271591187,0.19213175773620605,-0.11774180084466934
1772025793016143000,5.96314306640625,0.3229789733886719,0.19147327542304993,-0.10972133278846741
1772025793026141200,5.97314111328125,0.35491853952407837,0.19748908281326294,-0.09800795465707779
1772025793036138000,5.983137939453125,0.38965192437171936,0.20241285860538483,-0.0943690836429596
1772025793046135000,5.993135009765625,0.4255521297454834,0.20015662908554077,-0.09217038005590439
1772025793056133000,6.003133056640625,0.45527124404907227,0.19243904948234558,-0.08732081949710846
1772025793066130200,6.013130126953125,0.4788764417171478,0.19273093342781067,-0.07295626401901245
1772025793076127000,6.023126953125,0.49663063883781433,0.19666586816310883,-0.0478515662252903
1772025793086125000,6.033125,0.5090705752372742,0.20484469830989838,-0.011981982737779617
1772025793096122000,6.0431220703125,0.5332084894180298,0.2234383523464203,0.03344776853919029
1772025793106119200,6.053119140625,0.5610914826393127,0.23121638596057892,0.08418844640254974
1772025793116117000,6.063116943359375,0.5865633487701416,0.24147047102451324,0.13209080696105957
1772025793126114000,6.073114013671875,0.6045639514923096,0.2398158460855484,0.1732451617717743
1772025793136111000,6.083111083984375,0.6144482493400574,0.23960477113723755,0.2043333351612091
1772025793146109200,6.093109130859375,0.6011316180229187,0.24086950719356537,0.22425830364227295
1772025793156106000,6.10310595703125,0.5695778131484985,0.2443162053823471,0.2248404175043106
1772025793166103000,6.11310302734375,0.5232364535331726,0.24549199640750885,0.20268557965755463
1772025793176100900,6.123100830078125,0.47507670521736145,0.23991775512695312,0.17123612761497498
1772025793186098200,6.13309814453125,0.4320669174194336,0.25130757689476013,0.13744646310806274
1772025793196095000,6.143094970703125,0.40587666630744934,0.29024919867515564,0.11446642875671387
1772025793206093000,6.153093017578125,0.4081856310367584,0.3351120054721832,0.09730954468250275
1772025793216089900,6.16308984375,0.4228140115737915,0.355862021446228,0.07564371079206467
1772025793226087200,6.173087158203125,0.4296945631504059,0.32886555790901184,0.043537437915802
1772025793236085200,6.183085205078125,0.41586488485336304,0.30223163962364197,0.003799276426434517
1772025793246082000,6.19308203125,0.39933890104293823,0.2959042191505432,-0.016183486208319664
1772025793256078800,6.203078857421875,0.3838250935077667,0.31465965509414673,-0.0218968465924263
1772025793266076200,6.213076171875,0.370991051197052,0.33736205101013184,-0.011804531328380108
1772025793276074200,6.22307421875,0.3692995607852936,0.3602636754512787,0.002168604638427496
1772025793286071000,6.233071044921875,0.3958451449871063,0.3820720314979553,0.019866641610860825
1772025793296069000,6.243069091796875,0.4355952739715576,0.3772743046283722,0.0431654155254364
1772025793306066000,6.25306591796875,0.49972498416900635,0.35567420721054077,0.07131556421518326
1772025793316063200,6.263063232421875,0.5662520527839661,0.34539124369621277,0.10870756953954697
1772025793326060000,6.27306005859375,0.6143519282341003,0.34680405259132385,0.13129836320877075
1772025793336058000,6.28305810546875,0.6398912668228149,0.33876338601112366,0.1241355836391449
1772025793346055000,6.293054931640625,0.6569032669067383,0.31361594796180725,0.0908023938536644
1772025793356052200,6.30305224609375,0.6752853393554688,0.2854354977607727,0.04537200182676315
1772025793366050000,6.313050048828125,0.6860839128494263,0.2587311863899231,-0.00977274402976036
1772025793376047000,6.323047119140625,0.6863997578620911,0.2171606719493866,-0.08246119320392609
1772025793386044000,6.3330439453125,0.6679317951202393,0.16474221646785736,-0.16575394570827484
1772025793396042000,6.3430419921875,0.6548178791999817,0.1283947080373764,-0.2502976059913635
1772025793406039000,6.3530390625,0.6491538882255554,0.10973739624023438,-0.3104166090488434
1772025793416036000,6.3630361328125,0.6650282144546509,0.1091887429356575,-0.35248830914497375
1772025793426034000,6.373033935546875,0.680034339427948,0.1170186996459961,-0.3744146525859833
1772025793436031000,6.383031005859375,0.6905043125152588,0.13050444424152374,-0.3882588744163513
1772025793446028000,6.393028076171875,0.7169929146766663,0.135323166847229,-0.3898402452468872
1772025793456026000,6.403026123046875,0.7608687877655029,0.13929714262485504,-0.3701874613761902
1772025793466023000,6.41302294921875,0.7961341142654419,0.15671394765377045,-0.33996084332466125
1772025793476020200,6.423020263671875,0.8319885730743408,0.18160896003246307,-0.2924509048461914
1772025793486018300,6.433018310546875,0.8908452391624451,0.2309008687734604,-0.21662724018096924
1772025793496015000,6.44301513671875,0.9781553745269775,0.3082740008831024,-0.1104913204908371
1772025793506011400,6.453011474609375,1.0874083042144775,0.38693633675575256,0.012342452071607113
1772025793516009200,6.46300927734375,1.1901956796646118,0.44790440797805786,0.12418045103549957
1772025793526006500,6.473006591796875,1.253981590270996,0.48018670082092285,0.21109724044799805
1772025793536003300,6.48300341796875,1.2872216701507568,0.46623480319976807,0.2728423774242401
1772025793546001400,6.49300146484375,1.2950570583343506,0.40853527188301086,0.30393290519714355
1772025793555998200,6.502998291015625,1.2800313234329224,0.35177844762802124,0.3151610493659973
1772025793565995500,6.51299560546875,1.2431697845458984,0.2998500168323517,0.3110957443714142
1772025793575993300,6.522993408203125,1.179054856300354,0.24512414634227753,0.288398414850235
1772025793585990400,6.532990478515625,1.0860991477966309,0.1797507256269455,0.24567599594593048
1772025793595987200,6.5429873046875,0.9670335054397583,0.11679359525442123,0.18989363312721252
1772025793605985300,6.5529853515625,0.8256532549858093,0.06965085119009018,0.13364873826503754
1772025793615982300,6.562982421875,0.6824049949645996,0.0545121505856514,0.07458274811506271
1772025793625979400,6.5729794921875,0.5509825348854065,0.039099905639886856,0.003896325593814254
1772025793635977500,6.5829775390625,0.4404727816581726,0.021252313628792763,-0.09082498401403427
1772025793645974300,6.592974365234375,0.36271247267723083,-0.001164845423772931,-0.19112496078014374
1772025793655971300,6.602971435546875,0.30715060234069824,-0.002456595189869404,-0.2776801884174347
1772025793665969400,6.612969482421875,0.2850356996059418,0.0628206804394722,-0.337812215089798
1772025793675966500,6.622966552734375,0.2958720028400421,0.17010852694511414,-0.3642975687980652
1772025793685963500,6.632963623046875,0.3674306273460388,0.29774582386016846,-0.37351611256599426
1772025793695961600,6.642961669921875,0.47918593883514404,0.4365510642528534,-0.3619570732116699
1772025793705958400,6.65295849609375,0.6133306622505188,0.5758830904960632,-0.34589314460754395
1772025793715955500,6.66295556640625,0.7316180467605591,0.6788986921310425,-0.3384000062942505
1772025793725953300,6.672953369140625,0.8047907948493958,0.735637366771698,-0.3350297808647156
1772025793735950600,6.68295068359375,0.8344653248786926,0.7585628032684326,-0.3453297019004822
1772025793745947400,6.692947509765625,0.855815052986145,0.7615841627120972,-0.35521748661994934
1772025793755945500,6.702945556640625,0.8656963109970093,0.7386002540588379,-0.35585546493530273
1772025793765942300,6.7129423828125,0.8689365983009338,0.6860741972923279,-0.35020264983177185
1772025793775939600,6.722939697265625,0.8592700362205505,0.6122177839279175,-0.34179583191871643
1772025793785937400,6.7329375,0.8439339995384216,0.5215219259262085,-0.3238522708415985
1772025793795934500,6.7429345703125,0.8273582458496094,0.4307631850242615,-0.29247021675109863
1772025793805931300,6.75293115234375,0.8111912608146667,0.3352523744106293,-0.2501800060272217
1772025793815928600,6.762928466796875,0.8006211519241333,0.2609215974807739,-0.1968088448047638
1772025793825926400,6.772926513671875,0.797505259513855,0.21169358491897583,-0.1426910161972046
1772025793835923500,6.78292333984375,0.7953749895095825,0.150102436542511,-0.09987910091876984
1772025793845921500,6.792921630859375,0.7814144492149353,0.10436024516820908,-0.06885620206594467
1772025793855918300,6.80291845703125,0.7612945437431335,0.06532971560955048,-0.05229198932647705
1772025793865915400,6.812915283203125,0.7389812469482422,0.05133586376905441,-0.047860488295555115
1772025793875912400,6.822912353515625,0.7104306817054749,0.052656110376119614,-0.038074128329753876
1772025793885910500,6.83291064453125,0.6813734769821167,0.07796173542737961,-0.030783191323280334
1772025793895907300,6.8429072265625,0.6495311260223389,0.10097403079271317,-0.023981627076864243
1772025793905904400,6.852904296875,0.6219988465309143,0.10772008448839188,-0.018267547711730003
1772025793915902500,6.86290234375,0.6012647151947021,0.10164549201726913,-0.018973087891936302
1772025793925899500,6.8728994140625,0.5822023153305054,0.07925549149513245,-0.01134765986353159
1772025793935896300,6.882896240234375,0.5673947930335999,0.06512502580881119,0.0028811232186853886
1772025793945894400,6.892894287109375,0.5554108619689941,0.0659780353307724,0.02309158444404602
1772025793955891500,6.902891357421875,0.5519589781761169,0.07438769936561584,0.05487580597400665
1772025793965888500,6.912888427734375,0.5661006569862366,0.08736927807331085,0.08711656928062439
1772025793975886300,6.92288623046875,0.5978420376777649,0.10982272773981094,0.1288169026374817
1772025793985883400,6.93288330078125,0.647379994392395,0.14436285197734833,0.16314691305160522
1772025793995880400,6.94288037109375,0.7072014808654785,0.17963731288909912,0.20020894706249237
1772025794005878500,6.95287841796875,0.7556992769241333,0.20539700984954834,0.22903607785701752
1772025794015875300,6.962875244140625,0.7917574048042297,0.22218237817287445,0.2524288296699524
1772025794025872400,6.972872314453125,0.8252761960029602,0.23026001453399658,0.273525595664978
1772025794035870200,6.9828701171875,0.8558365106582642,0.2127494513988495,0.2953892648220062
1772025794045867500,6.992867431640625,0.8601337671279907,0.1691569685935974,0.2952161431312561
1772025794055864300,7.0028642578125,0.8457056283950806,0.10603240132331848,0.2764831781387329
1772025794065862400,7.0128623046875,0.8199254274368286,0.04547957330942154,0.2504449188709259
1772025794075859200,7.022859130859375,0.7908887267112732,0.0026253978721797466,0.2327161431312561
1772025794085856500,7.0328564453125,0.7703474760055542,-0.008963347412645817,0.21619708836078644
1772025794095854300,7.042854248046875,0.7546237707138062,-0.0011220830492675304,0.20458416640758514
1772025794105851400,7.052851318359375,0.7541090250015259,0.009716715663671494,0.19739362597465515
1772025794115848200,7.06284814453125,0.7625303268432617,0.020135337486863136,0.1936548799276352
1772025794125846300,7.07284619140625,0.7689248323440552,0.022361740469932556,0.18806889653205872
1772025794135843600,7.082843505859375,0.7683639526367188,0.01825481280684471,0.1841917484998703
1772025794145840400,7.09284033203125,0.7543943524360657,0.003771476913243532,0.1763167828321457
1772025794155838500,7.10283837890625,0.726810097694397,-0.014304468408226967,0.16898871958255768
1772025794165835300,7.112835205078125,0.685792863368988,-0.03786066174507141,0.16656337678432465
1772025794175832600,7.12283251953125,0.6432173848152161,-0.05234426632523537,0.17207589745521545
1772025794185830400,7.132830322265625,0.595705509185791,-0.053596749901771545,0.18693898618221283
1772025794195827500,7.142827392578125,0.5476552248001099,-0.03345460817217827,0.20114029943943024
1772025794205824300,7.15282421875,0.5020467042922974,-0.008466167375445366,0.2110597789287567
1772025794215822300,7.162822265625,0.4665336012840271,0.032081104815006256,0.21937008202075958
1772025794225819400,7.1728193359375,0.4464181959629059,0.08861628919839859,0.2309766709804535
1772025794235816400,7.18281640625,0.4341486990451813,0.14615114033222198,0.23828774690628052
1772025794245814300,7.192814208984375,0.42494213581085205,0.21676857769489288,0.23194383084774017
1772025794255811300,7.202811279296875,0.4080105125904083,0.28853243589401245,0.20764516294002533
1772025794265808400,7.212808349609375,0.3993717432022095,0.34156450629234314,0.17896825075149536
1772025794275806500,7.222806396484375,0.37871506810188293,0.3760441541671753,0.13873594999313354
1772025794285803300,7.23280322265625,0.34200555086135864,0.3948255479335785,0.09967029094696045
1772025794295800300,7.24280029296875,0.2895023822784424,0.4037229120731354,0.07372817397117615
1772025794305797400,7.25279736328125,0.23590686917304993,0.42533403635025024,0.06151062622666359
1772025794315795500,7.26279541015625,0.20258472859859467,0.44802749156951904,0.050815045833587646
1772025794325792300,7.272792236328125,0.19086681306362152,0.47209662199020386,0.039426568895578384
1772025794335789600,7.28278955078125,0.19588682055473328,0.48231685161590576,0.013017356395721436
1772025794345787400,7.292787353515625,0.20831526815891266,0.47484055161476135,-0.045779380947351456
1772025794355784400,7.302784423828125,0.22196874022483826,0.4484728276729584,-0.12059342116117477
1772025794365781200,7.31278125,0.23278889060020447,0.41685473918914795,-0.20995473861694336
1772025794375779300,7.322779296875,0.24742063879966736,0.38456591963768005,-0.29918795824050903
1772025794385776400,7.3327763671875,0.2642480731010437,0.3698626160621643,-0.3646620512008667
1772025794395773400,7.3427734375,0.2932494282722473,0.37473392486572266,-0.4076281785964966
1772025794405771500,7.352771484375,0.3328050971031189,0.38579216599464417,-0.4199894964694977
1772025794415768300,7.362768310546875,0.3875304162502289,0.39337706565856934,-0.40888214111328125
1772025794425765600,7.372765625,0.4379824101924896,0.3980410695075989,-0.37886378169059753
1772025794435763500,7.382763427734375,0.4914008378982544,0.39162692427635193,-0.33365607261657715
1772025794445760500,7.392760498046875,0.5325698852539062,0.3721424639225006,-0.2856174409389496
1772025794455757300,7.40275732421875,0.5572081208229065,0.3447473347187042,-0.2394583523273468
1772025794465755400,7.41275537109375,0.562096357345581,0.3118032217025757,-0.1912013441324234
1772025794475752400,7.42275244140625,0.5565462112426758,0.2964553236961365,-0.14641426503658295
1772025794485749500,7.43274951171875,0.5466536283493042,0.2908285856246948,-0.11093855649232864
1772025794495747300,7.442747314453125,0.5350313186645508,0.29712820053100586,-0.08802097290754318
1772025794505744400,7.452744384765625,0.523737907409668,0.3172835409641266,-0.07428545504808426
1772025794515737600,7.462737548828125,0.5122151374816895,0.3443986177444458,-0.07110863924026489
1772025794525735700,7.472735595703125,0.5017845630645752,0.38179391622543335,-0.0800752341747284
1772025794535732500,7.482732421875,0.4977838695049286,0.4191664159297943,-0.09968629479408264
1772025794545729500,7.4927294921875,0.49773937463760376,0.4521650969982147,-0.12396527081727982
1772025794555727400,7.502727294921875,0.5079958438873291,0.47924405336380005,-0.15007668733596802
1772025794565724700,7.512724609375,0.5198871493339539,0.49936342239379883,-0.16265612840652466
1772025794575721500,7.522721435546875,0.5350169539451599,0.5035980939865112,-0.17833811044692993
1772025794585719600,7.532719482421875,0.5585321187973022,0.49612343311309814,-0.19736851751804352
1772025794595716400,7.54271630859375,0.5885778665542603,0.48897552490234375,-0.20613256096839905
1772025794605713700,7.552713623046875,0.6255766749382019,0.48852598667144775,-0.21086367964744568
1772025794615711500,7.56271142578125,0.6744511723518372,0.4921663999557495,-0.20574729144573212
1772025794625708500,7.57270849609375,0.7246277928352356,0.5010679960250854,-0.1942477524280548
1772025794635705300,7.582705322265625,0.7799444198608398,0.5102440118789673,-0.17422521114349365
1772025794645703700,7.59270361328125,0.8307252526283264,0.5180321931838989,-0.14913077652454376
1772025794655700700,7.60270068359375,0.8746470212936401,0.515106737613678,-0.11999517679214478
1772025794665697500,7.612697509765625,0.9143843054771423,0.49872300028800964,-0.07985920459032059
1772025794675695600,7.622695556640625,0.9289528131484985,0.482410728931427,-0.03739321604371071
1772025794685692700,7.632692626953125,0.9309251308441162,0.4692017138004303,0.00017386744730174541
1772025794695689700,7.642689697265625,0.9185481071472168,0.4455423653125763,0.030924174934625626
1772025794705686500,7.6526865234375,0.891335666179657,0.4225608706474304,0.050475504249334335
1772025794715684600,7.6626845703125,0.848200798034668,0.4058879613876343,0.04884026572108269
1772025794725681700,7.672681640625,0.7940952181816101,0.3799349069595337,0.02894059382379055
1772025794735678700,7.6826787109375,0.7376447319984436,0.349267840385437,-0.007091285195201635
1772025794745676500,7.692676513671875,0.6996435523033142,0.3452818989753723,-0.04335847869515419
1772025794755673600,7.702673583984375,0.6813157200813293,0.39146938920021057,-0.0729740783572197
1772025794765670700,7.712670654296875,0.690893828868866,0.43206343054771423,-0.09471319615840912
1772025794775668700,7.722668701171875,0.7287837862968445,0.46467238664627075,-0.1024666354060173
1772025794785665500,7.73266552734375,0.7790371179580688,0.48730817437171936,-0.09366115927696228
1772025794795662600,7.74266259765625,0.8180748224258423,0.4776483178138733,-0.07909408956766129
1772025794805660400,7.752660400390625,0.8256269693374634,0.459701269865036,-0.05452775955200195
1772025794815657700,7.76265771484375,0.822787880897522,0.4559129476547241,-0.012286088429391384
1772025794825654500,7.772654541015625,0.8221383690834045,0.47825339436531067,0.051395948976278305
1772025794835652600,7.782652587890625,0.8291860222816467,0.5187588334083557,0.13636817038059235
1772025794845649400,7.7926494140625,0.8578565716743469,0.5679415464401245,0.2133694738149643
1772025794855646700,7.802646728515625,0.9240072965621948,0.6208691596984863,0.28558894991874695
1772025794865644500,7.81264453125,1.0006989240646362,0.6469367146492004,0.3325663208961487
1772025794875641600,7.8226416015625,1.0645835399627686,0.6374457478523254,0.32995474338531494
1772025794885638400,7.832638427734375,1.1029562950134277,0.5927027463912964,0.2901442050933838
1772025794895636500,7.842636474609375,1.1210482120513916,0.5174572467803955,0.21826864778995514
1772025794905633500,7.852633544921875,1.126994252204895,0.42570817470550537,0.13130632042884827
1772025794915630600,7.862630615234375,1.1093086004257202,0.3385871946811676,0.037087470293045044
1772025794925628700,7.872628662109375,1.0774600505828857,0.2579442858695984,-0.056599609553813934
1772025794935625500,7.88262548828125,1.045636534690857,0.1888413280248642,-0.14480145275592804
1772025794945622800,7.892622802734375,1.0135821104049683,0.14859484136104584,-0.2146521657705307
1772025794955620600,7.90262060546875,0.9866811633110046,0.12669840455055237,-0.2732485234737396
1772025794965617700,7.91261767578125,0.9694153666496277,0.11006324738264084,-0.31220176815986633
1772025794975614500,7.922614501953125,0.9623175859451294,0.11399994045495987,-0.33633819222450256
1772025794985612500,7.932612548828125,0.9803045988082886,0.14273545145988464,-0.33232027292251587
1772025794995609600,7.942609619140625,1.0032798051834106,0.18956945836544037,-0.2962739169597626
1772025795005606700,7.952606689453125,1.0509521961212158,0.25507280230522156,-0.23836375772953033
1772025795015604500,7.9626044921875,1.1328158378601074,0.33231574296951294,-0.1604222059249878
1772025795025601500,7.9726015625,1.2355352640151978,0.4280010163784027,-0.07571717351675034
1772025795035598600,7.9825986328125,1.3358694314956665,0.5030732154846191,0.002007325878366828
1772025795045596700,7.9925966796875,1.4040632247924805,0.5535324215888977,0.057201873511075974
1772025795055593500,8.002593505859375,1.4407920837402344,0.5824276208877563,0.10896586626768112
1772025795065590500,8.012590576171876,1.4657371044158936,0.5779510736465454,0.1550380289554596
1772025795075588400,8.02258837890625,1.4779468774795532,0.5424940586090088,0.19827863574028015
1772025795085585700,8.032585693359374,1.460351586341858,0.45544758439064026,0.23036973178386688
1772025795095582500,8.04258251953125,1.418001651763916,0.38766977190971375,0.25906887650489807
1772025795105580500,8.05258056640625,1.3677752017974854,0.3573361039161682,0.2799898684024811
1772025795115577300,8.062577392578126,1.3099534511566162,0.36572253704071045,0.2705172002315521
1772025795125574700,8.07257470703125,1.2460397481918335,0.363957941532135,0.1986089050769806
1772025795135571500,8.082571533203126,1.1703922748565674,0.3225246071815491,0.07390975952148438
1772025795145569500,8.092569580078125,1.0787025690078735,0.287869930267334,-0.07103598117828369
1772025795155566300,8.10256640625,0.9677512645721436,0.22987642884254456,-0.21751223504543304
1772025795165563600,8.112563720703125,0.8150834441184998,0.15142956376075745,-0.3841129243373871
1772025795175561700,8.122561767578125,0.6543311476707458,0.0835082158446312,-0.5414156913757324
1772025795185558500,8.13255859375,0.5293649435043335,0.05353647470474243,-0.6659629344940186
1772025795195555300,8.142555419921875,0.4570276737213135,0.05896434932947159,-0.7515462636947632
1772025795205553400,8.152553466796874,0.4211868643760681,0.10946507006883621,-0.8102084994316101
1772025795215550700,8.16255078125,0.4188534617424011,0.1843348890542984,-0.8264061808586121
1772025795225547500,8.172547607421874,0.4564482271671295,0.2837373912334442,-0.8042712807655334
1772025795235545600,8.182545654296876,0.5354471206665039,0.40085121989250183,-0.7576076984405518
1772025795245542400,8.19254248046875,0.6313289403915405,0.5190420746803284,-0.7096540331840515
1772025795255539700,8.202539794921876,0.738426148891449,0.5997931361198425,-0.6694200038909912
1772025795265537500,8.21253759765625,0.8343974351882935,0.63995361328125,-0.6328912973403931
1772025795275534600,8.22253466796875,0.902572751045227,0.64833664894104,-0.6045746803283691
1772025795285531600,8.23253173828125,0.950691819190979,0.6362371444702148,-0.5631702542304993
1772025795295529700,8.24252978515625,0.9921907782554626,0.6122490763664246,-0.5221768617630005
1772025795305526500,8.252526611328125,1.0320228338241577,0.5847138166427612,-0.4743182957172394
1772025795315523600,8.262523681640625,1.053041934967041,0.5295253396034241,-0.42538806796073914
1772025795325521400,8.272521484375,1.0474330186843872,0.4510861933231354,-0.37382686138153076
1772025795335518700,8.282518798828125,1.0175801515579224,0.3585829734802246,-0.3230578601360321
1772025795345515500,8.292515625,0.9673028588294983,0.2690427005290985,-0.274048775434494
1772025795355513600,8.302513671875,0.9098125100135803,0.17855896055698395,-0.2321329116821289
1772025795365510400,8.312510498046874,0.8407160043716431,0.10955006629228592,-0.19083315134048462
1772025795375507700,8.3225078125,0.7747815847396851,0.0683177039027214,-0.1548367589712143
1772025795385505800,8.332505859375,0.7169316411018372,0.0481482557952404,-0.1300685554742813
1772025795395502600,8.342502685546876,0.6681466102600098,0.03752612695097923,-0.10725744813680649
1772025795405499400,8.35249951171875,0.6277664303779602,0.027053510770201683,-0.08958284556865692
1772025795415497500,8.36249755859375,0.598720371723175,0.01457853615283966,-0.07385552674531937
1772025795425494800,8.372494873046875,0.5803477764129639,0.003767966292798519,-0.06706792861223221
1772025795435491600,8.38249169921875,0.5779775381088257,-0.010746988467872143,-0.06497284024953842
1772025795445489700,8.39248974609375,0.5938299894332886,-0.018058694899082184,-0.06147424504160881
1772025795455486500,8.402486572265625,0.6186683177947998,-0.005630894564092159,-0.05097873881459236
1772025795465483800,8.41248388671875,0.6455683708190918,0.01906273327767849,-0.037457071244716644
1772025795475480600,8.42248046875,0.673128068447113,0.05589732155203819,-0.022853363305330276
1772025795485478700,8.432478759765624,0.6901710033416748,0.08696655929088593,-0.01417997945100069
1772025795495475500,8.442475341796875,0.7011973857879639,0.10916827619075775,-0.004142038058489561
1772025795505472800,8.45247265625,0.7114478945732117,0.13724172115325928,0.004588336683809757
1772025795515470800,8.462470947265626,0.7317594289779663,0.16130377352237701,0.016223199665546417
1772025795525467600,8.472467529296875,0.7588576078414917,0.18382026255130768,0.03338727355003357
1772025795535464700,8.482464599609376,0.7798461318016052,0.2019517868757248,0.04608476161956787
1772025795545462500,8.492462646484375,0.7993454933166504,0.19980502128601074,0.048951655626297
1772025795555459800,8.5024599609375,0.8111360669136047,0.18170174956321716,0.04731613025069237
1772025795565456600,8.51245654296875,0.8248971700668335,0.15030254423618317,0.04509079083800316
1772025795575454700,8.522454833984375,0.8403134346008301,0.11340456455945969,0.05183533579111099
1772025795585451500,8.532451416015626,0.8590376377105713,0.07778079062700272,0.06646780669689178
1772025795595448800,8.54244873046875,0.8753893971443176,0.0617281012237072,0.0832112655043602
1772025795605446700,8.55244677734375,0.8853565454483032,0.036258161067962646,0.09525514394044876
1772025795615443700,8.562443603515625,0.8620104789733887,0.009066675789654255,0.10111954063177109
1772025795625440500,8.5724404296875,0.7950801849365234,-0.00832509808242321,0.09544353932142258
1772025795635438600,8.5824384765625,0.6991744637489319,-0.014564581215381622,0.07745414972305298
1772025795645435600,8.592435546875,0.6102962493896484,-0.0012178830802440643,0.07218721508979797
1772025795655432700,8.6024326171875,0.5468806624412537,0.020684057846665382,0.08091125637292862
1772025795665430800,8.6124306640625,0.5092131495475769,0.043387506157159805,0.09789343923330307
1772025795675427600,8.622427490234376,0.49916505813598633,0.07433215528726578,0.13601474463939667
1772025795685425000,8.6324248046875,0.5158116817474365,0.11928179115056992,0.1706334501504898
1772025795695422700,8.642422607421874,0.5610546469688416,0.16990984976291656,0.21951553225517273
1772025795705419800,8.652419677734375,0.6141471862792969,0.2126850038766861,0.2529083788394928
1772025795715416600,8.66241650390625,0.6595410704612732,0.23503005504608154,0.2638973593711853
1772025795725414700,8.67241455078125,0.6617051959037781,0.24227412045001984,0.24166715145111084
1772025795735411700,8.68241162109375,0.6275869011878967,0.23340344429016113,0.2019711285829544
1772025795745408800,8.69240869140625,0.5621407628059387,0.23364925384521484,0.1524011790752411
1772025795755406600,8.702406494140625,0.48210763931274414,0.25413984060287476,0.10599790513515472
1772025795765403600,8.712403564453124,0.3982175290584564,0.28804001212120056,0.06466564536094666
1772025795775400700,8.722400634765625,0.3327912986278534,0.33638665080070496,0.02376686967909336
1772025795785398800,8.732398681640625,0.30933815240859985,0.3526649475097656,-0.011214816011488438
1772025795795395600,8.7423955078125,0.31455618143081665,0.3801792562007904,-0.029687345027923584
1772025795805392600,8.752392578125,0.33985406160354614,0.41931572556495667,-0.03506186977028847
1772025795815390500,8.762390380859374,0.3825500011444092,0.43191492557525635,-0.03446738421916962
1772025795825387800,8.7723876953125,0.43287336826324463,0.43014979362487793,-0.01885274052619934
1772025795835384600,8.782384521484374,0.47453373670578003,0.43268057703971863,0.008506178855895996
1772025795845382700,8.792382568359375,0.5012614727020264,0.450023353099823,0.04278931766748428
1772025795855379500,8.80237939453125,0.497204452753067,0.45169150829315186,0.06485585123300552
1772025795865376800,8.812376708984376,0.45712894201278687,0.4285939037799835,0.07134384661912918
1772025795875373600,8.82237353515625,0.3997189402580261,0.41387346386909485,0.05731470137834549
1772025795885371600,8.83237158203125,0.34667035937309265,0.41125717759132385,0.04023212194442749
1772025795895368700,8.84236865234375,0.30618712306022644,0.421283096075058,0.02161061391234398
1772025795905365800,8.85236572265625,0.2830493152141571,0.4361134469509125,-0.0012558195739984512
1772025795915363800,8.86236376953125,0.2810209393501282,0.4286842346191406,-0.03258331120014191
1772025795925360600,8.872360595703125,0.28716087341308594,0.404748797416687,-0.07868369668722153
1772025795935357700,8.882357666015626,0.28935250639915466,0.3554500341415405,-0.12963908910751343
1772025795945355800,8.892355712890625,0.2820173501968384,0.2985297441482544,-0.18981453776359558
1772025795955352800,8.902352783203124,0.2616979777812958,0.24359163641929626,-0.244381383061409
1772025795965349600,8.912349609375,0.22614474594593048,0.20453184843063354,-0.29204076528549194
1772025795975347700,8.92234765625,0.18478384613990784,0.18102946877479553,-0.33010512590408325
1772025795985344800,8.9323447265625,0.14997099339962006,0.15970046818256378,-0.3512764573097229
1772025795995341800,8.942341796875,0.12733414769172668,0.13795313239097595,-0.36365005373954773
1772025796005339600,8.952339599609376,0.12269411236047745,0.13580583035945892,-0.35012251138687134
1772025796015336700,8.962336669921875,0.1341319978237152,0.14710929989814758,-0.32694897055625916
1772025796025333800,8.972333740234374,0.17057549953460693,0.18166089057922363,-0.2931656837463379
1772025796035331800,8.982331787109375,0.22105151414871216,0.1983032077550888,-0.26906636357307434
1772025796045328600,8.99232861328125,0.2833263576030731,0.16633862257003784,-0.2412978559732437
1772025796055325700,9.00232568359375,0.3286403715610504,0.15698754787445068,-0.20093436539173126
1772025796065323500,9.012323486328125,0.3577854633331299,0.15307775139808655,-0.1493033915758133
1772025796075320800,9.02232080078125,0.3624644875526428,0.13285896182060242,-0.09607631713151932
1772025796085317600,9.032317626953125,0.34823575615882874,0.10092899203300476,-0.061993442475795746
1772025796095315700,9.042315673828124,0.3072488009929657,0.06820589303970337,-0.07288305461406708
1772025796105312500,9.0523125,0.24863022565841675,0.027377501130104065,-0.12314169853925705
1772025796115309800,9.062309814453124,0.17021417617797852,0.013688972219824791,-0.19979462027549744
1772025796125308000,9.072307861328126,0.10145854204893112,0.009030038490891457,-0.26344096660614014
1772025796135304700,9.0823046875,0.05483822524547577,0.04103780537843704,-0.3039066195487976
1772025796145301500,9.092301513671876,0.03666134923696518,0.08120626211166382,-0.31852710247039795
1772025796155299600,9.102299560546875,0.03818964213132858,0.13093572854995728,-0.32077449560165405
1772025796165297000,9.112296875,0.06502790749073029,0.14410319924354553,-0.31974464654922485
1772025796175293700,9.122293701171875,0.09532533586025238,0.13620860874652863,-0.3093475103378296
1772025796185291800,9.132291748046875,0.1293157935142517,0.1215236708521843,-0.3089347183704376
1772025796195288600,9.14228857421875,0.16266921162605286,0.12751366198062897,-0.28836551308631897
1772025796205286000,9.152285888671875,0.19105824828147888,0.14752066135406494,-0.25978928804397583
1772025796215282700,9.16228271484375,0.2073597013950348,0.15225988626480103,-0.23483173549175262
1772025796225280800,9.17228076171875,0.20244990289211273,0.14727896451950073,-0.205792635679245
1772025796235277600,9.182277587890624,0.1695256382226944,0.14492912590503693,-0.18939532339572906
1772025796245275000,9.19227490234375,0.12491980940103531,0.13579688966274261,-0.156579852104187
1772025796255272700,9.202272705078125,0.0881459191441536,0.15749453008174896,-0.10576800256967545
1772025796265269800,9.212269775390626,0.060653846710920334,0.2153700739145279,-0.04507002979516983
1772025796275266600,9.2222666015625,0.05196536332368851,0.2720860540866852,0.017866555601358414
1772025796285264600,9.2322646484375,0.051167216151952744,0.30135607719421387,0.06503273546695709
1772025796295261700,9.24226171875,0.035709526389837265,0.3259631395339966,0.09045416116714478
1772025796305258800,9.2522587890625,0.019002186134457588,0.3506210744380951,0.09503399580717087
1772025796315256600,9.262256591796875,0.006824901793152094,0.367056280374527,0.08115865290164948
1772025796325253600,9.272253662109375,-0.0009294241317547858,0.36868399381637573,0.058830708265304565
1772025796335250700,9.282250732421875,0.0012252398300915956,0.3857775032520294,0.039275433868169785
1772025796345248800,9.292248779296875,0.004940349608659744,0.3994019627571106,0.01763245277106762
1772025796355245600,9.30224560546875,0.006545859854668379,0.38315919041633606,-0.02047879248857498
1772025796365242600,9.31224267578125,-0.026259491220116615,0.3314714729785919,-0.09146029502153397
1772025796375238700,9.32223876953125,-0.07274603098630905,0.26633936166763306,-0.14791958034038544
1772025796385235700,9.332235595703125,-0.11576167494058609,0.25004321336746216,-0.17011170089244843
1772025796395232800,9.342232666015626,-0.1434950977563858,0.2739109992980957,-0.16531065106391907
1772025796405230800,9.35223095703125,-0.14292651414871216,0.2900708019733429,-0.14619474112987518
1772025796415227600,9.3622275390625,-0.09341632574796677,0.30209124088287354,-0.10690774023532867
1772025796425224700,9.372224609375,-0.004109347704797983,0.31572291254997253,-0.052215997129678726
1772025796435222500,9.382222412109375,0.10038085281848907,0.30997487902641296,0.0019328526686877012
1772025796445219800,9.3922197265625,0.19761019945144653,0.2907561957836151,0.04497513175010681
1772025796455216600,9.402216552734375,0.2757505178451538,0.26630061864852905,0.07190422713756561
1772025796465214700,9.412214599609374,0.31865164637565613,0.23910918831825256,0.07068689167499542
1772025796475211500,9.42221142578125,0.33342114090919495,0.21402311325073242,0.05008034035563469
1772025796485208800,9.432208740234374,0.33111804723739624,0.20664243400096893,0.03059239126741886
1772025796495206700,9.44220654296875,0.3188745677471161,0.21251140534877777,0.004120650701224804
1772025796505203700,9.45220361328125,0.2963769733905792,0.22598886489868164,-0.01746480166912079
1772025796515201000,9.462200927734376,0.27259787917137146,0.22950145602226257,-0.04164457693696022
1772025796525198000,9.472197998046875,0.2708820104598999,0.2402036339044571,-0.03870391473174095
1772025796535196200,9.482196044921874,0.30175286531448364,0.26873376965522766,-0.016379866749048233
1772025796545193000,9.49219287109375,0.3470713496208191,0.3157617449760437,0.02889839932322502
1772025796555190000,9.50218994140625,0.3806213140487671,0.3499371409416199,0.07183990627527237
1772025796565187800,9.512187744140626,0.4067210853099823,0.3595444858074188,0.1077616885304451
1772025796575185200,9.52218505859375,0.4460301399230957,0.36330628395080566,0.14994335174560547
1772025796585182000,9.532181884765626,0.4959436357021332,0.3841782808303833,0.2067967802286148
1772025796595180000,9.542179931640625,0.543842613697052,0.39015546441078186,0.25872406363487244
1772025796605176800,9.5521767578125,0.5814776420593262,0.3702787160873413,0.3005106747150421
1772025796615174100,9.562174072265625,0.5992870926856995,0.3451072573661804,0.33035117387771606
1772025796625172200,9.572172119140625,0.5957089066505432,0.3187009394168854,0.34460973739624023
1772025796635169000,9.5821689453125,0.5839243531227112,0.29866331815719604,0.3529075086116791
1772025796645165800,9.592165771484375,0.5604016780853271,0.2699054181575775,0.3456472158432007
1772025796655164000,9.602163818359376,0.5369381904602051,0.2440643012523651,0.33190250396728516
1772025796665161200,9.6121611328125,0.5251681208610535,0.20842881500720978,0.31142863631248474
1772025796675158000,9.622157958984374,0.5154109001159668,0.16051197052001953,0.2814119756221771
1772025796685156000,9.632156005859375,0.4943130612373352,0.06816180050373077,0.23016773164272308
1772025796695153000,9.64215283203125,0.4626888632774353,-0.01647293195128441,0.1579146683216095
1772025796705150200,9.652150146484376,0.4098259210586548,-0.09828177839517593,0.05189475044608116
1772025796715148000,9.66214794921875,0.35304155945777893,-0.17801257967948914,-0.09129093587398529
1772025796725145000,9.67214501953125,0.29213133454322815,-0.23987461626529694,-0.2555563151836395
1772025796735142000,9.682141845703125,0.2400187999010086,-0.2676510810852051,-0.4165305197238922
1772025796745140000,9.692139892578124,0.19572323560714722,-0.24765604734420776,-0.5599619746208191
1772025796755137000,9.702136962890625,0.17678770422935486,-0.16764143109321594,-0.6570286750793457
1772025796765134000,9.712134033203125,0.1760271042585373,-0.04990309476852417,-0.7108317017555237
1772025796775132000,9.7221318359375,0.19717176258563995,0.07013056427240372,-0.7187087535858154
1772025796785129000,9.73212890625,0.2554726004600525,0.16761663556098938,-0.6793789267539978
1772025796795126000,9.7421259765625,0.32878679037094116,0.24880564212799072,-0.6183546185493469
1772025796805123000,9.752123046875,0.40146926045417786,0.2889706492424011,-0.548492968082428
1772025796815121000,9.762120849609374,0.48127180337905884,0.28497114777565,-0.47806867957115173
1772025796825118000,9.772117919921875,0.5504229068756104,0.2541663646697998,-0.41233518719673157
1772025796835115000,9.782114990234374,0.5987236499786377,0.21256287395954132,-0.36046990752220154
1772025796845113000,9.792113037109376,0.6287198662757874,0.16551227867603302,-0.32230040431022644
1772025796855110000,9.80210986328125,0.6550295948982239,0.13207530975341797,-0.2978869676589966
1772025796865107000,9.81210693359375,0.6879907250404358,0.1125817596912384,-0.29240456223487854
1772025796875105000,9.82210498046875,0.720511794090271,0.09881214797496796,-0.3071456849575043
1772025796885102000,9.83210205078125,0.7533382177352905,0.1015607938170433,-0.32983821630477905
1772025796895099000,9.842098876953125,0.7670539021492004,0.1037549078464508,-0.34349125623703003
1772025796905097000,9.852096923828125,0.7566806077957153,0.12119461596012115,-0.3458731770515442
1772025796915094000,9.862093994140626,0.7300121784210205,0.12931957840919495,-0.3381919264793396
1772025796925091000,9.872091064453125,0.6890663504600525,0.13241630792617798,-0.3139965534210205
1772025796935089200,9.882089111328124,0.6311309933662415,0.13445338606834412,-0.2763722836971283
1772025796945086000,9.8920859375,0.5652284622192383,0.11021143943071365,-0.2317134588956833
1772025796955083000,9.9020830078125,0.5001218318939209,0.08711817860603333,-0.17030560970306396
1772025796965081000,9.9120810546875,0.4475789964199066,0.04254484921693802,-0.10441181063652039
1772025796975078100,9.922078125,0.41260743141174316,0.002258033026009798,-0.03444245457649231
1772025796985075000,9.932074951171876,0.3928087055683136,-0.029503092169761658,0.037978481501340866
1772025796995073000,9.942072998046875,0.39021459221839905,-0.058872438967227936,0.10491446405649185
1772025797005070800,9.95207080078125,0.401423841714859,-0.08599327504634857,0.15407349169254303
1772025797015068200,9.962068115234375,0.42404744029045105,-0.11668550968170166,0.18593552708625793
1772025797025065000,9.97206494140625,0.4523666799068451,-0.14230884611606598,0.20450815558433533
1772025797035063000,9.98206298828125,0.4828544557094574,-0.1521182507276535,0.21582983434200287
1772025797045059800,9.992059814453125,0.5174768567085266,-0.14506247639656067,0.22522786259651184
1772025797055057200,10.00205712890625,0.5474269390106201,-0.1318303346633911,0.2292289435863495
1772025797065055200,10.01205517578125,0.5841074585914612,-0.11050587147474289,0.2323341816663742
1772025797075052000,10.022052001953124,0.624595046043396,-0.07325943559408188,0.24817514419555664
1772025797085048800,10.032048828125,0.6606894135475159,-0.04722677171230316,0.26766470074653625
1772025797095047000,10.042046875,0.6804658770561218,-0.05038798227906227,0.27031540870666504
1772025797105044200,10.052044189453126,0.6595797538757324,-0.08180822432041168,0.23508577048778534
1772025797115041000,10.062041015625,0.6197787523269653,-0.10938715189695358,0.18901899456977844
1772025797125037800,10.072037841796876,0.5911681056022644,-0.09969910979270935,0.16141267120838165
1772025797135036000,10.082035888671875,0.5849832892417908,-0.05530163645744324,0.1585233509540558
1772025797145033200,10.092033203125,0.6008195281028748,0.007344699930399656,0.17418992519378662
1772025797155030000,10.102030029296875,0.6223113536834717,0.0586477592587471,0.19448702037334442
1772025797165028000,10.112028076171875,0.6434293985366821,0.08276135474443436,0.2164919227361679
1772025797175025000,10.12202490234375,0.6520014405250549,0.08355113118886948,0.2291601151227951
1772025797185022200,10.132022216796875,0.6416444182395935,0.07524234056472778,0.22857849299907684
1772025797195020000,10.14202001953125,0.609411895275116,0.06297087669372559,0.21481327712535858
1772025797205017000,10.15201708984375,0.5557004809379578,0.031369537115097046,0.18272671103477478
1772025797215014000,10.162013916015624,0.48534464836120605,0.010406050831079483,0.1505981683731079
1772025797225012000,10.172011962890625,0.4186526834964752,0.006386008579283953,0.126344233751297
1772025797235009000,10.182009033203125,0.3654347360134125,0.01763189025223255,0.12287372350692749
1772025797245006000,10.192006103515626,0.3359562158584595,0.031055554747581482,0.13774961233139038
1772025797255004000,10.20200390625,0.3236539363861084,0.04894670099020004,0.16128534078598022
1772025797265001000,10.2120009765625,0.32625052332878113,0.07676608115434647,0.19595490396022797
1772025797274998000,10.221998046875,0.330264151096344,0.11159034073352814,0.23522107303142548
1772025797284996000,10.23199609375,0.3372349739074707,0.14549584686756134,0.27796506881713867
1772025797294993000,10.241992919921875,0.3388853371143341,0.20236220955848694,0.3176862597465515
1772025797304990000,10.251989990234375,0.342558354139328,0.263441264629364,0.3564286231994629
1772025797314988000,10.261988037109376,0.3391127288341522,0.3124745190143585,0.3817736506462097
1772025797324985000,10.271985107421875,0.3180932104587555,0.33347567915916443,0.38165754079818726
1772025797334982000,10.28198193359375,0.281912237405777,0.34483736753463745,0.3544701635837555
1772025797344980000,10.29197998046875,0.24482104182243347,0.3452586829662323,0.3032456040382385
1772025797354977000,10.30197705078125,0.20961666107177734,0.3534924387931824,0.24737118184566498
1772025797364974000,10.31197412109375,0.1851552575826645,0.3686189353466034,0.19385628402233124
1772025797374972200,10.32197216796875,0.16265200078487396,0.3646298944950104,0.13736775517463684
1772025797384969000,10.331968994140626,0.1442013531923294,0.3364565968513489,0.0775478333234787
1772025797394966000,10.341966064453125,0.12860944867134094,0.2973862290382385,0.020610585808753967
1772025797404964000,10.351964111328124,0.10978037118911743,0.2419690489768982,-0.035481978207826614
1772025797414961200,10.361961181640625,0.08178479969501495,0.1873762607574463,-0.09525921195745468
1772025797424958000,10.3719580078125,0.05624401569366455,0.13863614201545715,-0.16184116899967194
1772025797434955000,10.381955078125,0.0378400944173336,0.09130355715751648,-0.21935832500457764
1772025797444953000,10.391953125,0.02800796926021576,0.07011491805315018,-0.2616344094276428
1772025797454950100,10.4019501953125,0.019732611253857613,0.07193595170974731,-0.29070061445236206
1772025797464947000,10.411947021484375,0.0178484246134758,0.0970306545495987,-0.31096407771110535
1772025797474945000,10.421945068359374,0.03185512498021126,0.1285824328660965,-0.3295310139656067
1772025797484942000,10.431942138671875,0.061740852892398834,0.15316341817378998,-0.3440053164958954
1772025797494939100,10.441939208984374,0.09120942652225494,0.1773359626531601,-0.36454567313194275
1772025797504937000,10.45193701171875,0.11758910119533539,0.17927101254463196,-0.3737295866012573
1772025797514934000,10.46193408203125,0.13006027042865753,0.17016491293907166,-0.36598676443099976
1772025797524931000,10.47193115234375,0.1412053406238556,0.17454101145267487,-0.3411639630794525
1772025797534929200,10.48192919921875,0.15165868401527405,0.17031750082969666,-0.3006729483604431
1772025797544926200,10.49192626953125,0.15958930552005768,0.14127066731452942,-0.2512531876564026
1772025797554923000,10.501923095703125,0.15191930532455444,0.12446041405200958,-0.20136642456054688
1772025797564921000,10.511921142578124,0.13870257139205933,0.1303851455450058,-0.17457900941371918
1772025797574918100,10.521918212890625,0.13828317821025848,0.14803290367126465,-0.15680018067359924
1772025797584915200,10.531915283203125,0.15005196630954742,0.174813911318779,-0.159286767244339
1772025797594913000,10.5419130859375,0.16676633059978485,0.2085779458284378,-0.18249575793743134
1772025797604910000,10.55191015625,0.19389063119888306,0.23297622799873352,-0.21938718855381012
1772025797614907100,10.5619072265625,0.22276273369789124,0.25492623448371887,-0.2542428970336914
1772025797624905200,10.5719052734375,0.25640806555747986,0.2707501947879791,-0.2785002887248993
1772025797634902000,10.581902099609374,0.29900825023651123,0.28873753547668457,-0.2825174033641815
1772025797644899000,10.591899169921875,0.34158846735954285,0.28813910484313965,-0.2767447233200073
1772025797654897000,10.60189697265625,0.37954938411712646,0.2679981589317322,-0.2552078664302826
1772025797664894200,10.611894287109376,0.41938307881355286,0.2342766523361206,-0.213632732629776
1772025797674891000,10.62189111328125,0.45801639556884766,0.18854200839996338,-0.15772466361522675
1772025797684889000,10.63188916015625,0.4880762994289398,0.1425532102584839,-0.09348682314157486
1772025797694886000,10.641885986328125,0.4977268874645233,0.10916747897863388,-0.020610539242625237
1772025797704883200,10.65188330078125,0.5005663633346558,0.09019618481397629,0.039823777973651886
1772025797714880000,10.6618798828125,0.4968138337135315,0.09797511994838715,0.08840587735176086
1772025797724878000,10.671878173828125,0.4902946949005127,0.1271876096725464,0.13327081501483917
1772025797734875000,10.681875,0.47804489731788635,0.17698688805103302,0.17258350551128387
1772025797744872200,10.6918720703125,0.463315486907959,0.22301404178142548,0.1899033784866333
1772025797754870300,10.701870361328124,0.45072564482688904,0.25837641954421997,0.19930313527584076
1772025797764867000,10.7118671875,0.4488143026828766,0.2783852815628052,0.2067839503288269
1772025797774864000,10.72186376953125,0.46381208300590515,0.3021135628223419,0.2205011248588562
1772025797784862000,10.731862060546876,0.4829764664173126,0.2965661883354187,0.21265704929828644
1772025797794859300,10.741859375,0.48773953318595886,0.25483447313308716,0.16898253560066223
1772025797804856000,10.75185595703125,0.472438246011734,0.21593551337718964,0.1137586161494255
1772025797814854100,10.761854248046875,0.453421026468277,0.2123003751039505,0.07292456924915314
1772025797824851000,10.771850830078124,0.4299367666244507,0.26676762104034424,0.04416029155254364
1772025797834848300,10.78184814453125,0.4236404299736023,0.3402172327041626,0.03519252687692642
1772025797844846000,10.79184619140625,0.44748932123184204,0.41504114866256714,0.053619470447301865
1772025797854843100,10.801843017578125,0.48918038606643677,0.4600925147533417,0.09399348497390747
1772025797864840000,10.81183984375,0.5290747880935669,0.4538050591945648,0.121984101831913
1772025797874838000,10.821838134765626,0.5511592030525208,0.4084632396697998,0.15532147884368896
1772025797884835000,10.8318349609375,0.5347660779953003,0.3085467517375946,0.22613920271396637
1772025797894832000,10.84183203125,0.515497088432312,0.15841464698314667,0.23985539376735687
1772025797904830000,10.851829833984375,0.5173724889755249,0.07404384762048721,0.19584186375141144
1772025797914827000,10.861826904296874,0.5283545255661011,0.043045829981565475,0.12904967367649078
1772025797924824000,10.871823974609375,0.5317402482032776,0.1012319028377533,0.03240514546632767
1772025797934822100,10.881822265625,0.5434637069702148,0.2154528647661209,-0.10157888382673264
1772025797944819000,10.89181884765625,0.5432384014129639,0.2989856004714966,-0.22283047437667847
1772025797954816000,10.90181591796875,0.574042558670044,0.3527749180793762,-0.2902548611164093
1772025797964813800,10.911813720703124,0.6464435458183289,0.40397632122039795,-0.3252258896827698
1772025797974811100,10.92181103515625,0.7300903797149658,0.3840482234954834,-0.35531678795814514
