time,seconds_elapsed,z,y,x
1772459216616483300,0.0764833984375,-0.3737093939960003,-0.1797302519455552,-0.09230769681930541
1772459216626480400,0.08648046875,-0.33714930336177346,-0.1353214936375618,-0.22367621504738924
1772459216636477400,0.0964775390625,-0.3411135308176279,-0.04749620292931795,-0.27834084830135103
1772459216646475500,0.1064755859375,-0.3285521554082632,0.007055471469461917,-0.24533231266885994
1772459216656472300,0.116472412109375,-0.1411024151265621,-0.010777706862986087,-0.2673302094653249
1772459216666469400,0.126469482421875,0.10789631109535694,0.011834814700484276,-0.2764588339470327
1772459216676466400,0.136466552734375,0.20332535480558872,0.05022533563226461,-0.23373539837747812
1772459216686463200,0.146463134765625,0.1575514456242323,0.04128156619817018,-0.1954104900278151
1772459216696460500,0.15646044921875,0.1277823303043842,-0.03383797219395637,-0.1073378004297614
1772459216706458400,0.166458251953125,0.09798398889005183,-0.133909288752079,0.00010433715730905532
1772459216716455400,0.176455322265625,0.07414075648784638,-0.2281874088615179,0.15090543173849583
1772459216726452200,0.1864521484375,0.061196519240736956,-0.27583295713365075,0.14937734538838265
1772459216736449500,0.196449462890625,0.0016775778234004973,-0.2568260588467121,0.07907865128144621
1772459216746446300,0.2064462890625,0.029213819524645804,-0.23435469931960104,0.006091010351479053
1772459216756443400,0.216443359375,0.15058920539617537,-0.19019582411944866,0.03483516653776168
1772459216766440400,0.2264404296875,0.1858709466576576,-0.1662912169188261,0.11814926343187689
1772459216776438500,0.2364384765625,0.10528174468278884,-0.19838965196907518,0.2130425928302109
1772459216786435300,0.246435302734375,0.15303016880750656,-0.2587871297866106,0.30525077479779716
1772459216796432400,0.256432373046875,0.21312661785185336,-0.28545827909111976,0.2992386749014258
1772459216806429400,0.266429443359375,0.2259083580136299,-0.2615758837223053,0.17697510801851749
1772459216816426500,0.276426513671875,0.34681437280774113,-0.1881201868891716,0.083939243055135
1772459216826423300,0.28642333984375,0.34990474003851413,-0.14017565567046403,0.07397899005487561
1772459216836421400,0.29642138671875,0.10114917492270468,-0.20389760173559188,0.14925298835635184
1772459216846418400,0.30641845703125,-0.16580957088172435,-0.31125907530188557,0.1791146042652428
1772459216856415500,0.31641552734375,-0.16243337244689462,-0.3099450700938701,0.07259586513340473
1772459216866412300,0.326412353515625,-0.05910977609455585,-0.21056582745313643,-0.07603270771428942
1772459216876409600,0.33640966796875,0.013783026158809662,-0.10701543660759925,-0.19772534284144638
1772459216886406400,0.346406494140625,0.08878653695583343,-0.01220189444720745,-0.24800182413905858
1772459216896403500,0.356403564453125,0.15973346583843231,0.01929419079571962,-0.26863369327932596
1772459216906401300,0.3664013671875,0.2261135251969099,0.012060147888958454,-0.27990283692106604
1772459216916398600,0.376398681640625,0.3384469419568777,0.05272679705917835,-0.2229230585925281
1772459216926395400,0.3863955078125,0.357180283999443,0.10199556261897086,-0.10301613783836364
1772459216936392400,0.396392333984375,0.3403711880177259,0.10612141037732362,-0.00556874004304409
1772459216946389500,0.406389404296875,0.40538054354488845,0.0851584095865488,0.031236119132488964
1772459216956386300,0.41638623046875,0.45972179006338115,0.05303250200748443,0.002563420747220516
1772459216966384400,0.42638427734375,0.4133329638540745,0.03153291012197733,0.007060878296941519
1772459216976381400,0.43638134765625,0.29760113682746886,-0.010551204630732535,0.0934086437985301
1772459216986378500,0.44637841796875,0.20571897194385527,-0.1187096737936139,0.14160554234310985
1772459216996375300,0.456375244140625,0.2017225957840681,-0.2401379588961601,0.16437091638073323
1772459217006372400,0.466372314453125,0.2504693832963705,-0.31379326995462176,0.20375512452498076
1772459217016369400,0.476369384765625,0.39091947199404237,-0.34285365248322486,0.056790685497224325
1772459217026366500,0.486366455078125,0.5728349590241909,-0.30720073982179164,-0.019542466468364
1772459217036364300,0.4963642578125,0.6708236240893602,-0.29639468364715577,-0.02679536020606756
1772459217046361300,0.506361328125,0.5858920089960098,-0.2434761634081602,0.10201178310140967
1772459217056358400,0.5163583984375,0.6531868451118469,-0.412878790345788,0.32980770842731
1772459217066355500,0.52635546875,1.0726917755991219,-0.8495905839607119,0.5916382975630462
1772459217076352300,0.536352294921875,0.8180255251348019,-1.0722177283465861,0.7144339254960417
1772459217086349600,0.546349609375,0.46910278187096116,-0.4919578800186515,0.6194307059824466
1772459217096347400,0.556347412109375,0.8258791612446308,0.20226181722730396,0.2622078980155289
1772459217106344400,0.566344482421875,1.2612152825921774,0.4728279398739338,-0.2936864476017654
1772459217116341200,0.57634130859375,1.066050437888503,0.6001768471971154,-0.5481767569772898
1772459217126338600,0.586338623046875,1.0038006102025507,0.529252276276797,-0.4777817628890276
1772459217136335400,0.59633544921875,1.3631582382410763,0.3415317562296986,-0.7432248434334993
1772459217146332400,0.60633251953125,0.8808581211447716,0.1879791709832847,-1.291820264214277
1772459217156329500,0.61632958984375,-0.3157493724584579,-0.007406622994691133,-1.0673515836149454
1772459217166327600,0.62632763671875,-0.7898322808295488,0.337445802090317,-0.014654256035387515
1772459217176324400,0.636324462890625,-0.7650508907943964,0.4340833448074758,0.4848274436168372
1772459217186321400,0.6463212890625,-0.7560732190907001,0.5313480795122683,0.7165808743968606
1772459217196318500,0.656318359375,-0.7074269693434238,0.6205857212364674,0.6951153309114277
1772459217206315500,0.6663154296875,-0.46075405572056766,0.481794505661726,0.531100534491986
1772459217216312300,0.676312255859375,-0.6474509318083524,0.18722776809409258,0.5372890138685703
1772459217226310400,0.686310302734375,-0.9225988292872905,-0.06415960683003068,0.5952399753168225
1772459217236307500,0.696307373046875,-1.0698083291172982,-0.12936740753874182,0.5034253227114677
1772459217246304500,0.706304443359375,-1.1005693780839443,-0.09186872088015079,0.332938992190361
1772459217256301300,0.71630126953125,-1.0603086793661116,-0.05904489416480064,0.26045184812843797
1772459217266298600,0.726298583984375,-0.8783703959822654,-0.10131035683378577,0.2500502811014652
1772459217276295400,0.73629541015625,-0.7190478490322828,-0.1632620783559978,0.41411052409783006
1772459217286292500,0.74629248046875,-0.7015010864257812,-0.2583126441426575,0.6921035818748176
1772459217296290300,0.756290283203125,-0.6811369283109903,-0.3721599725969136,0.7871382194399833
1772459217306287600,0.76628759765625,-0.4607569783300161,-0.42239261475279927,0.7289587099328637
1772459217316284400,0.776284423828125,-0.30925007356703277,-0.3770836927346885,0.7493981252409517
1772459217326281500,0.786281494140625,-0.30727731218934057,-0.3598099018506706,0.6580405687533318
1772459217336278500,0.796278564453125,-0.2392360416203737,-0.3525882800340652,0.5678557093068957
1772459217346275300,0.806275390625,-0.1259194590419531,-0.3161342801228165,0.6365124814257025
1772459217356273400,0.8162734375,-0.0432481900960207,-0.32897184212505814,0.775517193620652
1772459217366270500,0.8262705078125,0.07559621599316596,-0.3784323308646679,0.8208033192850649
1772459217376267500,0.836267578125,0.10867197164297103,-0.3994210506185889,0.8511806296311318
1772459217386264300,0.846264404296875,0.02829202850461006,-0.3298158917337656,0.8857149135261774
1772459217396261400,0.856261474609375,-0.012211246797442435,-0.2558706578180194,0.8478247433319688
1772459217406258400,0.866258544921875,0.1431897427946329,-0.19190847325623034,0.9265108881644905
1772459217416256500,0.876256591796875,0.3795060975760221,-0.08321604334712028,0.9777531457543372
1772459217426253300,0.88625341796875,0.30979601701200005,0.05449059186130762,0.9682675245285034
1772459217436250400,0.89625048828125,0.07788987988829613,0.12595891426950692,0.8608779939115047
1772459217446247400,0.906247314453125,-0.05527998867332935,0.12756401137858628,0.8481067751437426
1772459217456244500,0.916244384765625,-0.07393792739212512,0.09239391379803419,0.8391497078366578
1772459217466241300,0.9262412109375,-0.04233633594810962,0.042677404470741746,0.8141530676156282
1772459217476238600,0.936238525390625,-0.08439794660806656,0.05140723889321089,0.8140981956232338
1772459217486236400,0.946236328125,-0.14235095388293265,0.08504179746955633,0.8764180198054761
1772459217496233500,0.9562333984375,-0.07702537201344967,0.0897267404153943,1.010099198890105
1772459217506230300,0.966230224609375,-0.035633038917183876,0.08389467326104641,1.0759351414345204
1772459217516231200,0.976231201171875,-0.07159983983337878,0.12734861506223677,1.141144841839373
1772459217526228000,0.98622802734375,0.009165303230285644,0.09671440734565258,1.1765454602401704
1772459217536225000,0.99622509765625,0.10081132127046584,0.014001052823662758,1.1586438197813926
1772459217546223000,1.00622314453125,-0.02280161439478397,-0.00708762017339468,1.1843274924185125
1772459217556220200,1.01622021484375,-0.2032078659057617,0.02069032132923603,1.2489768555268645
1772459217566217000,1.026217041015625,-0.3470820838332176,0.05075900411754846,1.2873602160654962
1772459217576214000,1.036214111328125,-0.2806114235818386,0.06517419070005416,1.2502725944258273
1772459217586211000,1.046211181640625,-0.023005028012394905,0.07610153516680002,1.1480721568845211
1772459217596208000,1.0562080078125,0.04954641345739364,0.1827621669873595,1.0276775256786495
1772459217606205000,1.066204833984375,-0.03451134141087532,0.31739918549209833,0.9482983570806681
1772459217616203000,1.076203125,-0.13947919783890247,0.382734704233706,0.8774287312179804
1772459217626200000,1.086199951171875,-0.25908465142846104,0.36573330055028197,0.7605210653450339
1772459217636197000,1.096197021484375,-0.32144670731723307,0.36010435475260016,0.6923490810684859
1772459217646194000,1.10619384765625,-0.12857026581168174,0.309001651763916,0.6069519673552364
1772459217656191200,1.116191162109375,0.01806347995698452,0.24314181688725947,0.5005432644691318
1772459217666188000,1.12618798828125,-0.04577040205001831,0.23341975655704736,0.41733971527740354
1772459217676186000,1.13618603515625,-0.026657120779156683,0.21844021409004927,0.31424758959338067
1772459217686183000,1.146182861328125,0.10510521907210349,0.19640198528319597,0.23129596933610735
1772459217696180200,1.15618017578125,0.1736415796816349,0.20293138705193994,0.20333214987255632
1772459217706177000,1.166177001953125,0.1447977625131607,0.19081775541007517,0.16129267797917127
1772459217716174000,1.176174072265625,0.1444014566719532,0.13000234444141387,0.06861570945605636
1772459217726171100,1.186171142578125,0.22849369833171365,0.10686433769911527,0.037434535381197925
1772459217736168200,1.196168212890625,0.38747722258567807,0.0740937024757266,0.049153030225634574
1772459217746166000,1.206166015625,0.46073009032309054,0.049267596516013146,-0.009715922850370406
1772459217756163000,1.2161630859375,0.4684054472565651,0.0690744130089879,-0.09184892020113766
1772459217766160100,1.22616015625,0.4454278917729854,0.11159253526479006,-0.11687332521192728
1772459217776157200,1.2361572265625,0.30310850207209583,0.05866875432878732,-0.1369006525877863
1772459217786154000,1.246154052734375,0.2643611305266619,-0.01895224549025297,-0.2262478921663016
1772459217796151000,1.256151123046875,0.3417594275057316,0.021590777300298212,-0.29344847412742675
1772459217806149000,1.266149169921875,0.39816695890426634,0.01664426080882549,-0.38757838140521195
1772459217816146200,1.276146240234375,0.4522656288385391,-0.02690525032132864,-0.5267036512399093
1772459217826143000,1.28614306640625,0.4373398623853922,-0.060497431060671805,-0.6028954585060476
1772459217836140000,1.29614013671875,0.36596973965466023,-0.07747896099984646,-0.64836015560776
1772459217846137000,1.30613720703125,0.3220505184292793,-0.11509148329645394,-0.7372264798015356
1772459217856134100,1.316134033203125,0.3337415407449007,-0.09632745385468006,-0.7677638760801404
1772459217866132000,1.326132080078125,0.3310749518841505,-0.043942309840023515,-0.760578275424987
1772459217876129000,1.33612890625,0.3773819450289011,-0.018920681308209893,-0.8957822070974856
1772459217886126000,1.3461259765625,0.4007821098387241,0.10383651431053877,-0.9664695351958275
1772459217896123100,1.356123046875,0.46942426891028877,0.22085136688500642,-0.9629341276112944
1772459217906120000,1.366119873046875,0.5714145708322524,0.24544015695750712,-0.9276642959833145
1772459217916117000,1.376116943359375,0.5759370166927575,0.22924422443807124,-0.8438114891026168
1772459217926114000,1.386114013671875,0.4973305129677057,0.1931105425223708,-0.7482773045174778
1772459217936112000,1.396112060546875,0.43781040250658987,0.29241145922988654,-0.7935691292703151
1772459217946109200,1.406109130859375,0.4057499613791704,0.0861953514188528,-0.9606844489883631
1772459217956106000,1.41610595703125,0.37029520163834095,-0.094604283323884,-0.7036686397232115
1772459217966103000,1.42610302734375,0.1543044265270233,0.130641811388731,-0.5953914395514875
1772459217976099800,1.436099853515625,0.1992787097632885,0.1322863637253642,-0.7566570833932608
1772459217986097200,1.44609716796875,0.31308278359770775,-0.010477262611687183,-0.6754604901097715
1772459217996095000,1.456094970703125,0.2840238623738289,0.040187341220676895,-0.622356603366509
1772459218006092000,1.466092041015625,0.21470774956345556,0.11659954977184533,-0.6626718818157911
1772459218016089000,1.476089111328125,-0.024982465565204618,0.14875965188145637,-0.6304653832811862
1772459218026086100,1.486086181640625,-0.25233751525580883,0.1005754666879773,-0.6540875933438539
1772459218036083000,1.4960830078125,0.0787315914094448,-0.014844517910480498,-0.5780894454862923
1772459218046080000,1.506080078125,0.2915910827577114,0.08910743947327136,-0.276457226511836
1772459218056077000,1.5160771484375,0.22108722146749496,0.14471037649065255,-0.24135201086103913
1772459218066075100,1.5260751953125,0.17656711173951625,0.03323474560379982,-0.2544952412789687
1772459218076072000,1.536072021484375,0.16336919199228286,-0.059627077966928475,-0.3217808346424252
1772459218086069000,1.546069091796875,0.09400690195262432,-0.08080839768350125,-0.2793973533506505
1772459218096066000,1.556066162109375,-0.007766542348265648,-0.12977876481860876,-0.29434030840061604
1772459218106063000,1.56606298828125,-0.12939035002291202,-0.19322335524708031,-0.3250266116306186
1772459218116060000,1.576059814453125,-0.2087590702921152,-0.251745979103446,-0.3634063919726759
1772459218126058000,1.58605810546875,-0.18949381332993506,-0.22781536067873237,-0.4169280657365918
1772459218136055000,1.596054931640625,0.07900865478515624,-0.01939706664830446,-0.3315540406379848
1772459218146052000,1.606052001953125,-0.06546411355733871,0.36180209858119483,-0.3696746585872024
1772459218156049000,1.616048828125,-0.0823830996543169,0.4237155339196324,-0.14285219966964796
1772459218166046200,1.626046142578125,0.2213514253616333,0.05529343267679214,-0.21507402559258043
1772459218176043000,1.63604296875,-0.07536357628107071,0.05534282477647066,-0.2706794468279928
1772459218186041000,1.646041015625,0.07217325580716133,0.16313275288790463,-0.276331408175081
1772459218196038000,1.656037841796875,0.20099778864085674,0.21078765351027248,-0.36034525083638724
1772459218206035200,1.66603515625,-0.05070785845220089,0.2467538699045777,-0.4334041669042781
1772459218216032000,1.676031982421875,-0.08727496334910392,-0.012330781523883342,-0.5254378325551748
1772459218226029000,1.686029052734375,-0.09143792824745178,-0.16772563363611698,-0.5077445010848343
1772459218236026000,1.696026123046875,-0.1747264523088932,-0.05514408733397722,-0.4880244130272418
1772459218246023200,1.706023193359375,-0.07876607820093631,0.02176204221397638,-0.5196272465802729
1772459218256021000,1.71602099609375,-0.030785014364123342,0.03589636602848768,-0.5190548169871791
1772459218266018000,1.72601806640625,-0.06619008974432945,0.05038607915192842,-0.5133975584104656
1772459218276015000,1.73601513671875,-0.06529986290633678,0.09026654638051985,-0.46337998377736656
1772459218286012200,1.74601220703125,-0.13906710990667343,0.11966069090813397,-0.40844931999836115
1772459218296009000,1.756009033203125,-0.169849786183238,0.08130670259445905,-0.35602640125658364
1772459218306006000,1.766006103515625,-0.26096739643514155,0.07828647799044847,-0.33575452453512694
1772459218316004000,1.776004150390625,-0.29571313112378117,0.09500380403548478,-0.3481155915994197
1772459218326001200,1.786001220703125,-0.2373936286240816,0.09436872100234031,-0.3909070143712684
1772459218335998000,1.795998046875,-0.21092823102474212,0.0504351789906621,-0.4325295760268345
1772459218345995000,1.8059951171875,-0.2534749948531389,-0.006723170775175094,-0.5037402338795364
1772459218355992000,1.815991943359375,-0.2153735199958086,-0.03802081083655357,-0.5392985270600765
1772459218365988900,1.82598876953125,-0.18355214832127092,-0.03337473859637975,-0.5392545417878777
1772459218375986200,1.835986083984375,-0.14290332706868647,-0.08703121772110461,-0.5032441209256648
1772459218385984000,1.84598388671875,-0.13705810817182063,-0.18516981265097857,-0.4709940024450421
1772459218395981000,1.85598095703125,-0.06926642844974994,-0.2647448691472411,-0.47242885755375025
1772459218405977900,1.865977783203125,-0.08351356498897075,-0.3067708239719272,-0.4787797244178131
1772459218415975200,1.87597509765625,-0.16370120042562483,-0.2900713258445263,-0.45426169802658256
1772459218425972000,1.885971923828125,-0.1270955170840025,-0.2652078104838729,-0.41046836820319293
1772459218435969000,1.895968994140625,-0.11636720232069492,-0.2798895390480757,-0.3554412583123892
1772459218445966800,1.905966796875,-0.2241091996371746,-0.2952557427451014,-0.3149071129480377
1772459218455964200,1.915964111328125,-0.23210370552241802,-0.289696939574182,-0.27082046273387966
1772459218465961000,1.9259609375,-0.20188918452262877,-0.2178524773299694,-0.15930307506453245
1772459218475958000,1.9359580078125,-0.16932605457007885,-0.15309095908403395,-0.10865385146439074
1772459218485955000,1.945955078125,-0.15107435856461524,-0.13965747701525688,-0.11856445663664489
1772459218495952100,1.9559521484375,-0.2169943991959095,-0.14239128589332103,-0.11852054442968218
1772459218505950000,1.965949951171875,-0.19638707997500895,-0.18378917194753885,-0.12793971282318234
1772459218515944200,1.975944091796875,0.0029740473747253415,-0.22783815703243016,-0.1287347356583923
1772459218525941200,1.985941162109375,0.13805004181861877,-0.24829876125901937,-0.1332841060584411
1772459218535938300,1.995938232421875,0.06341711789965629,-0.22747283085137604,-0.10825670537296682
1772459218545935400,2.005935302734375,-0.05114040465056896,-0.22618980530351399,-0.11290964574534446
1772459218555932200,2.01593212890625,-0.09738602299690247,-0.24223083952218294,-0.19019849100057035
1772459218565929500,2.025929443359375,-0.08854454489350318,-0.199548174354434,-0.23522026664037257
1772459218575927300,2.03592724609375,-0.09889584303796291,-0.14867255811989308,-0.2695719239775091
1772459218585924400,2.04592431640625,-0.15317103858292103,-0.11249036088734865,-0.31643812190759923
1772459218595921200,2.055921142578125,-0.21082184804081916,-0.11493132429867982,-0.393253833225742
1772459218605918500,2.06591845703125,-0.25347207224369045,-0.06660480802506208,-0.4993415605291724
1772459218615915300,2.075915283203125,-0.28979192438125606,0.023417115944623947,-0.5654289936166257
1772459218625912300,2.085912353515625,-0.2853781995922327,0.10313479578197002,-0.6227390998780727
1772459218635910400,2.095910400390625,-0.2471276716530323,0.1617223015680909,-0.6410214832827449
1772459218645907500,2.105907470703125,-0.33414310728311536,0.12541384760737417,-0.5716337300082668
1772459218655904300,2.115904296875,-0.38892157617509365,0.09421294591873884,-0.6131334324691444
1772459218665901300,2.1259013671875,-0.2910164977401495,0.07122486904114485,-0.6737314743600785
1772459218675898400,2.1358984375,-0.2059258926928043,0.04520136999040842,-0.67670347590819
1772459218685895400,2.1458955078125,-0.20806758089661598,0.011789221993088721,-0.6856899154402315
1772459218695892200,2.155892333984375,-0.2415583470880985,-0.02543517776876688,-0.7221241146724671
1772459218705890300,2.165890380859375,-0.17648820128440856,-0.023779227255284786,-0.7167045738417654
1772459218715887400,2.175887451171875,-0.09626257192492485,-0.0010033318236470222,-0.6848438930701464
1772459218725884400,2.185884521484375,-0.042086745101213456,0.026729309232532975,-0.6673739220269024
1772459218735881200,2.195881103515625,0.04417115015983581,0.057020694860816,-0.6269427621129899
1772459218745878500,2.20587841796875,0.07986731744110584,0.1499628901913762,-0.6340683762092143
1772459218755875300,2.215875244140625,0.10471885010302066,0.2762380308032036,-0.6576482084348797
1772459218765873400,2.225873291015625,0.20445406657457352,0.31392946355491874,-0.687693948739022
1772459218775870200,2.2358701171875,0.2572901692271232,0.21648966454416513,-0.6810265267390757
1772459218785867500,2.245867431640625,0.20996084729731082,0.06671060648709536,-0.6093279757715762
1772459218795864300,2.2558642578125,0.15008943918049333,-0.0028057050704956054,-0.5668195711921901
1772459218805861000,2.265861083984375,0.11993337036967276,0.025743805326521395,-0.5926219748381525
1772459218815858400,2.2758583984375,0.05830898110568523,0.05251432335227728,-0.5889075208922848
1772459218825856500,2.2858564453125,0.040458267116546626,0.0023833880051970483,-0.5336766320576891
1772459218835853300,2.295853271484375,0.11449965488314628,-0.12233604759722948,-0.4734748960079625
1772459218845850400,2.305850341796875,0.18573826018869877,-0.23743366837352514,-0.41029896645303815
1772459218855847400,2.315847412109375,0.2453635845899582,-0.2905184850901365,-0.37148528820574284
1772459218865844200,2.32584423828125,0.2969412116140127,-0.3031201925098896,-0.34978451119232923
1772459218875841300,2.33584130859375,0.2706669526726007,-0.307030351690948,-0.3226411047335714
1772459218885839400,2.34583935546875,0.25224165366590023,-0.3426765423506498,-0.2958205370210111
1772459218895836400,2.35583642578125,0.24621406393945217,-0.35366643065959213,-0.25342366652470083
1772459218905833200,2.365833251953125,0.21127426798343657,-0.3495949434369802,-0.22372314119534567
1772459218915830300,2.375830322265625,0.1569967343509197,-0.3216507054567337,-0.22950563358692452
1772459218925827300,2.385827392578125,0.07230828036367892,-0.27411329373419285,-0.23616131035014987
1772459218935824400,2.395824462890625,0.002153378641605377,-0.248366565798223,-0.2975482741290703
1772459218945822200,2.405822265625,-0.037494741135835646,-0.2619359492063522,-0.3302195040985942
1772459218955819300,2.4158193359375,-0.10773381401002406,-0.28908465289473534,-0.32986236122399565
1772459218965816300,2.42581640625,-0.14579787946641445,-0.28157208530753847,-0.3567218361748382
1772459218975813400,2.4358134765625,-0.18138123402297496,-0.2787275095313787,-0.4992348122190684
1772459218985810200,2.44581005859375,-0.44627720207870003,-0.3864768133714795,-1.0099297606073319
1772459218995807500,2.455807373046875,-0.4738251342177391,-0.343610608330369,-1.0058826771736145
1772459219005804300,2.46580419921875,-0.39524259589016436,-0.33259207844883204,-1.0493025705747305
1772459219015802400,2.47580224609375,-0.4662994148880243,-0.31830402537733316,-1.0302999100714922
1772459219025799200,2.485799072265625,-0.4250999740153551,-0.3200818487048149,-1.0098420092586426
1772459219035796500,2.49579638671875,-0.3424854036927223,-0.2793938644856214,-0.9841077754780649
1772459219045793300,2.505793212890625,-0.23183774806261062,-0.31513299412578344,-1.065261917859316
1772459219055790300,2.515790283203125,-0.24101181912124156,-0.30846418388634916,-1.2090521838303654
1772459219065787400,2.525787353515625,-0.16742518938481807,-0.19517273574918506,-1.2235337867125868
1772459219075785500,2.535785400390625,-0.09684650929272175,-0.1213283318594098,-1.181195989459753
1772459219085782300,2.5457822265625,0.04635667750537395,-0.1409052851192653,-1.0812186347953974
1772459219095779300,2.555779296875,0.16631518231630324,-0.1533592546314001,-0.9875772051542997
1772459219105776400,2.5657763671875,0.2645984464138746,-0.21618118311688303,-0.9357299674086272
1772459219115773400,2.5757734375,0.3681044135957956,-0.36234058937206864,-0.9438920849457383
1772459219125770200,2.585770263671875,0.4641261625021696,-0.48601855309754605,-0.9178257696665822
1772459219135768300,2.595768310546875,0.42991643438637256,-0.578793575167656,-0.8524347944106906
1772459219145765400,2.605765380859375,0.36202363237738605,-0.5803355439126491,-0.7863450232356787
1772459219155762400,2.615762451171875,0.3694564127266407,-0.5606988232895732,-0.7311831810493021
1772459219165759200,2.62575927734375,0.37452421751022336,-0.5810166580446064,-0.7022261858299375
1772459219175756500,2.635756591796875,0.3363081763625145,-0.5641683990962802,-0.7096815433371811
1772459219185753300,2.64575341796875,0.35694764428734777,-0.5398265695221722,-0.7337713709115982
1772459219195751400,2.65575146484375,0.3856628666400909,-0.5278785037055611,-0.7268822689849883
1772459219205748200,2.665748291015625,0.33165012142360206,-0.564189441884309,-0.6275909238234162
1772459219215745500,2.67574560546875,0.23293372660577297,-0.6441565664380788,-0.520624367858842
1772459219225742300,2.685742431640625,0.18831424815654754,-0.7015697677478194,-0.5250248678401113
1772459219235739400,2.695739501953125,0.18542378741204738,-0.6875467953532933,-0.5909083758533
1772459219245736400,2.705736328125,0.16420914994776248,-0.6190598268434405,-0.6012509792346507
1772459219255733200,2.715733154296875,0.0462543861746788,-0.5290390719175339,-0.5672515328686684
1772459219265731300,2.7257314453125,-0.06343991425335407,-0.4456836200997233,-0.5238610847577453
1772459219275728400,2.735728271484375,-0.028998130947351455,-0.4011190867081284,-0.49358818463422355
1772459219285725400,2.745725341796875,-0.0030149639070034023,-0.32696284039020534,-0.4777979833714664
1772459219295722200,2.75572216796875,0.0241337397813797,-0.25269758073985576,-0.46287207078784703
1772459219305719300,2.76571923828125,0.1013496659308672,-0.17883242632299662,-0.447026486076042
1772459219315716400,2.77571630859375,0.1431762987911701,-0.13800664106830954,-0.43252011407874524
1772459219325714400,2.78571435546875,0.0969528922766447,-0.1266324296168983,-0.364934112996608
1772459219335711200,2.795711181640625,0.1266466042727232,-0.17534253838062286,-0.26032873320542277
1772459219345708300,2.805708251953125,0.3108265291035175,-0.2619543616458773,-0.22849296767935157
1772459219355705300,2.815705322265625,0.4125158022522926,-0.2875309937119484,-0.17213314788006245
1772459219365702400,2.825702392578125,0.41242110970616336,-0.29072189870774745,-0.04528948666527867
1772459219375699200,2.83569921875,0.47068099097311494,-0.3165728176705539,0.10581095618866383
1772459219385697300,2.845697265625,0.5292828175455332,-0.3714088619686663,0.2708550956558436
1772459219395694300,2.8556943359375,0.5067360546946525,-0.3998829690419137,0.4497839680906385
1772459219405691400,2.86569140625,0.4707622395157814,-0.4031846409358084,0.6115762661550194
1772459219415688200,2.875688232421875,0.5402297434955835,-0.38378435941711064,0.7144622017424553
1772459219425685500,2.885685546875,0.5864321072220802,-0.3359802595824003,0.7621746777709573
1772459219435682300,2.895682373046875,0.5999415771365165,-0.2640400818787515,0.7827526247669011
1772459219445680400,2.905680419921875,0.6201268715530633,-0.175498897986114,0.7942960553053766
1772459219455677200,2.91567724609375,0.6316589039146899,-0.08576835817843675,0.8204933034878223
1772459219465674500,2.925674560546875,0.6876847425192594,-0.03815641991496086,0.8243884112302213
1772459219475671300,2.93567138671875,0.7018541376471519,-0.021433687042444943,0.8186623617336154
1772459219485668400,2.94566845703125,0.6858423295229673,-0.008223638466000556,0.7984680802930146
1772459219495665400,2.95566552734375,0.6388099447131157,-0.02115180136114359,0.8628987591493874
1772459219505663500,2.96566357421875,0.5718289968520402,-0.07496449396088718,0.9431431662745773
1772459219515659500,2.975659423828125,0.6198486391335726,-0.09617796238139271,1.0103649371542036
1772459219525656600,2.985656494140625,0.6834966431796551,-0.10255305037125945,1.100960277097672
1772459219535653600,2.995653564453125,0.6706424223035573,-0.116567547198385,1.2156553814876825
1772459219545650700,3.005650634765625,0.5111269831299782,-0.16527750983163714,1.3513213777139783
1772459219555647500,3.0156474609375,0.3925993879050016,-0.2707192673817277,1.4215247947528957
1772459219565644500,3.02564453125,0.3492734563976526,-0.3616504151508212,1.4142980583697558
1772459219575642600,3.035642578125,0.27109774530529973,-0.3487878648377955,1.4129951590776442
1772459219585639700,3.0456396484375,0.21012217533886432,-0.3025602205395698,1.4693267026305197
1772459219595636500,3.055636474609375,0.14333528874516485,-0.27792978328242895,1.5396972929298878
1772459219605633500,3.065633544921875,0.021311083576083183,-0.3043373132146895,1.5393931954167783
1772459219615630600,3.075630615234375,-0.07052958025336264,-0.32644568464830515,1.4873084956534206
1772459219625627400,3.08562744140625,-0.0845528449088335,-0.3002935907818377,1.4428613050311803
1772459219635625700,3.095625732421875,-0.14542086284756658,-0.29552433055341243,1.4507231244474648
1772459219645622500,3.10562255859375,-0.24901158570349216,-0.3505677339918911,1.4541013687089084
1772459219655619600,3.11561962890625,-0.30977965039908884,-0.3963046721637249,1.4624118086755276
1772459219665616600,3.12561669921875,-0.26910978635847566,-0.4086060814626515,1.4349416179478167
1772459219675613700,3.13561376953125,-0.275664614829421,-0.4048296316638589,1.4133654536947606
1772459219685610500,3.145610595703125,-0.2949310408353805,-0.4754980358660221,1.429445066358149
1772459219695608600,3.155608642578125,-0.21238076792061328,-0.5933079843409359,1.3820735127218067
1772459219705605600,3.165605712890625,-0.055924131795763964,-0.6338757031813264,1.274401511901617
1772459219715602700,3.175602783203125,0.05150689987540245,-0.6090630412250757,1.2415896678850054
1772459219725599500,3.185599609375,0.11170856285989283,-0.6397748442225157,1.3038064700841903
1772459219735596500,3.195596435546875,0.172656660297513,-0.7670240905635058,1.3861651659496128
1772459219745593600,3.205593505859375,0.25065000056028364,-0.8897742719195783,1.42684131360054
1772459219755591700,3.215591796875,0.27629531394839285,-0.9400887471400201,1.4396683542087674
1772459219765588500,3.22558837890625,0.2693371653735637,-0.9739663206920027,1.4605372469753026
1772459219775585500,3.23558544921875,0.2491881113141775,-0.9830006910189986,1.4342743862107394
1772459219785582600,3.24558251953125,0.13306290105581284,-0.984101199606806,1.4050772255599497
1772459219795579600,3.25557958984375,0.05221417136192322,-0.9645293609134852,1.3246753628507255
1772459219805576400,3.265576416015625,0.05468786799907684,-0.879467835830152,1.1644374546214937
1772459219815574500,3.275574462890625,0.03063128510713577,-0.727335492645204,0.9901826384123414
1772459219825571600,3.285571533203125,0.017528057906031607,-0.5680091463029384,0.8318924301847815
1772459219835568600,3.295568603515625,0.04641279160678386,-0.4433050544001162,0.6572982259534299
1772459219845565400,3.3055654296875,0.07299743167161941,-0.3268549961015582,0.5003452942116186
1772459219855562800,3.315562744140625,0.1230564708262682,-0.240794669239223,0.3899649477481842
1772459219865559600,3.3255595703125,0.15527882451713085,-0.20787045088931916,0.3415780795894563
1772459219875557600,3.3355576171875,0.20881869152486324,-0.2248113565571606,0.34142091626636684
1772459219885554400,3.345554443359375,0.2787625808447599,-0.2477170158483088,0.3736347213245928
1772459219895551700,3.3555517578125,0.3059761664628982,-0.2728045492231846,0.4167046322442591
1772459219905548500,3.365548583984375,0.3317582579731941,-0.3296767755240202,0.4415093300897628
1772459219915545600,3.375545654296875,0.37629414979219433,-0.4304007107719779,0.4523691257456317
1772459219925542700,3.385542724609375,0.33031799603700635,-0.5865671317785978,0.4638860701359808
1772459219935540700,3.395540771484375,0.2512690092414617,-0.8028497294433414,0.47753261043354867
1772459219945537500,3.40553759765625,0.20154197852015493,-1.0058185258962213,0.5234959047071636
1772459219955534600,3.41553466796875,0.2228407871365547,-1.1408743543349207,0.5306635678468272
1772459219965531600,3.42553173828125,0.2493617143154144,-1.1857428391091525,0.5209423112342134
1772459219975528700,3.43552880859375,0.19498890361487864,-1.1833861929804086,0.5167624682663008
1772459219985525500,3.445525390625,0.094565120357275,-1.2074682025745511,0.535834358080849
1772459219995523600,3.455523681640625,0.03274783886969089,-1.2553012362428009,0.5415647184263914
1772459220005520600,3.465520751953125,0.07776654576957226,-1.2762328189820051,0.5006298102414235
1772459220015517700,3.475517578125,0.08740355816483497,-1.2080980249106883,0.43146786507945506
1772459220025514500,3.485514404296875,-0.004825228199362755,-1.1101119901940226,0.4012415440440178
1772459220035511600,3.495511474609375,-0.15183657510876655,-1.0731230066232382,0.43602826833017166
1772459220045508600,3.505508544921875,-0.35293197890520095,-1.0666605326108634,0.4604731929525733
1772459220055506700,3.515506591796875,-0.47324295041561126,-1.030216615702212,0.41161351965032517
1772459220065503500,3.52550341796875,-0.5222855060040951,-0.9509459489800035,0.31009430583883074
1772459220075500500,3.53550048828125,-0.6969926690906286,-0.8272289684183896,0.23400597721347585
1772459220085497600,3.54549755859375,-0.8610188636869192,-0.7406120305866003,0.2866167101449333
1772459220095494400,3.555494384765625,-0.9824357506126165,-0.8678536781430244,0.4722684062950313
1772459220105491700,3.56549169921875,-1.0633400098860264,-1.0380359111510216,0.5346541718529537
1772459220115489500,3.575489501953125,-1.1484662707686424,-0.7421963771685958,0.3876758504303172
1772459220125486600,3.585486572265625,-1.3243670275539159,-0.22860680331736802,0.23085007046582176
1772459220135483400,3.5954833984375,-1.5738509069442748,0.10337035810351371,0.09339261511233635
1772459220145480700,3.605480712890625,-1.8329735522955655,0.11344050121903419,-0.0010781049597542733
1772459220155477500,3.6154775390625,-2.065385885375738,0.10172098346129059,-0.09589271569922565
1772459220165474600,3.625474609375,-2.2218886987298725,0.3979128380127251,-0.26554537187516686
1772459220175472400,3.635472412109375,-2.279303361344337,0.9021895168565213,-0.5180905385322868
1772459220185469700,3.6454697265625,-2.1817314603865143,1.2480495115488768,-0.784130562056601
1772459220195466500,3.655466552734375,-1.9121517184287309,1.3185621406674384,-1.0103389259301125
1772459220205463600,3.665463623046875,-1.5401310081720352,1.3179241350248456,-1.2223436270799488
1772459220215460600,3.675460693359375,-1.190636602500081,1.4874657320417464,-1.3287516723789274
1772459220225457700,3.685457763671875,-0.79947221583426,1.7465771253466604,-1.3499924671977757
1772459220235455500,3.69545556640625,-0.4002864352762699,1.9123747135296463,-1.3376554020635782
1772459220245452500,3.70545263671875,-0.09719196172952652,1.9436437120184302,-1.2323344944141805
1772459220255449600,3.71544970703125,0.22705343639552591,1.8888468306869268,-1.1097845118053258
1772459220265446700,3.72544677734375,0.6086047760635614,1.754171379867941,-0.9991384636104106
1772459220275443500,3.735443359375,0.9641787939101457,1.5853379311203957,-0.8647008401352911
1772459220285440800,3.745440673828125,1.2239216169863938,1.3764132950030266,-0.6447058708839118
1772459220295438600,3.7554384765625,1.3592507094085216,1.173688536439091,-0.4119540401836857
1772459220305435600,3.765435546875,1.3501140477508307,1.0113917959839105,-0.2164025342499837
1772459220315432400,3.775432373046875,1.195888531678915,0.8705968393713235,-0.03368680022023618
1772459220325429800,3.7854296875,0.9884966580867767,0.7553324837259948,0.08761592227388172
1772459220335426600,3.795426513671875,0.7811001083195209,0.6422527786433696,0.09812051128391176
1772459220345423600,3.805423583984375,0.6336497854709625,0.5030971136704087,0.05590699799787253
1772459220355421400,3.81542138671875,0.5492138449400663,0.37369229673072696,-0.0042983547810465095
1772459220365418800,3.825418701171875,0.5293430233001709,0.23703970061987636,-0.16546799090243874
1772459220375415600,3.83541552734375,0.6849743145167827,0.14237111988812684,-0.38587230813968926
1772459220385412600,3.84541259765625,0.825074859124422,0.14297624617442486,-0.5542377740493044
1772459220395409700,3.85540966796875,0.8846183504611254,0.1488873699143529,-0.6435672953080386
1772459220405406700,3.86540673828125,0.9525982462316751,0.05933934706673026,-0.6857483676292002
1772459220415404500,3.875404541015625,1.014136126255989,-0.0920928850248456,-0.7211075580410659
1772459220425401600,3.885401611328125,0.9958400065869092,-0.19813406977280973,-0.7613395421210676
1772459220435398700,3.895398681640625,0.895348418790102,-0.24439006338268518,-0.7375486974932253
1772459220445395700,3.905395751953125,0.8523100720524788,-0.31594401824772356,-0.6834265736181289
1772459220455392500,3.915392578125,0.7648322796076535,-0.4195924626402557,-0.6422006100647151
1772459220465389600,3.9253896484375,0.7196306173563003,-0.4913756962165236,-0.6137311791665852
1772459220475387600,3.9353876953125,0.7913958768844604,-0.5265358569249511,-0.6104478831795975
1772459220485384700,3.945384765625,0.7831734074622392,-0.5170104882106185,-0.6359171458810567
1772459220495381500,3.955381591796875,0.7112894899904727,-0.5452865884937346,-0.6080396164614706
1772459220505378600,3.965378662109375,0.6835480811059474,-0.6497955952383577,-0.5531746017972007
1772459220515375600,3.975375732421875,0.6104769996762275,-0.7495080153562128,-0.5248746091818437
1772459220525372400,3.985372314453125,0.48312370843887326,-0.7966431298881769,-0.5004139024684205
1772459220535370500,3.99537060546875,0.4724158519417047,-0.8505126672416925,-0.553637360470742
1772459220545367600,4.005367431640625,0.5326467410206794,-0.8664217456437647,-0.6814552004799246
1772459220555364600,4.015364501953125,0.5472089348584414,-0.8308179328210651,-0.8033641087062656
1772459220565361400,4.025361328125,0.4826216041356325,-0.7832775984890759,-0.8686492124348878
1772459220575358700,4.035358642578125,0.40288112794458864,-0.7467192614205181,-0.8397244389846921
1772459220585355500,4.04535546875,0.39672845053374767,-0.7320574066005647,-0.8189768345102667
1772459220595353600,4.055353515625,0.4175876986891031,-0.6948996423341334,-0.7987778038293123
1772459220605350400,4.065350341796875,0.4969499892175197,-0.6238496914684772,-0.7505456878408789
1772459220615347700,4.07534765625,0.5121083953827619,-0.49557080981880425,-0.665899465560168
1772459220625344500,4.085344482421875,0.39756840848922725,-0.349066681779176,-0.5060882948430254
1772459220635341600,4.095341552734375,0.27780688755512234,-0.288751475417614,-0.3598670388653874
1772459220645338600,4.105338623046875,0.3844698574632406,-0.2341531853981316,-0.32692163159698245
1772459220655336700,4.115336669921875,0.4504179551452398,-0.14502192665785552,-0.3274688902162015
1772459220665333500,4.12533349609375,0.41011283276379107,-0.13210355450436473,-0.3280669657072052
1772459220675330600,4.13533056640625,0.2586164493948221,-0.18286548123136162,-0.2765418360553682
1772459220685327600,4.14532763671875,0.059899465167522425,-0.22166560587733983,-0.14499270056337119
1772459220695324700,4.15532470703125,-0.06632803691029548,-0.21194968302696943,-0.07662179618123918
1772459220705321500,4.165321533203125,-0.08632277719080447,-0.17272709518522023,-0.075580981891416
1772459220715319600,4.175319580078125,-0.07366612471342086,-0.14618059517368673,-0.1173635198816657
1772459220725316600,4.185316650390625,-0.03166530432999134,-0.15935834891572595,-0.16319617351293564
1772459220735313700,4.195313720703125,-0.04991349320411682,-0.21269655587151645,-0.198081828128919
1772459220745310500,4.205310546875,-0.08788520420193671,-0.24755115776211023,-0.285388355660066
1772459220755307800,4.215307861328125,-0.13899112206101416,-0.23423852559402583,-0.36865773662962015
1772459220765304600,4.2253046875,-0.18423603893220425,-0.2532648592337966,-0.3927566973585635
1772459220775302700,4.235302734375,-0.25186346800327297,-0.31834479577913877,-0.37572383909095075
1772459220785299500,4.245299560546875,-0.38222763149440286,-0.3831136205486953,-0.2758157868031412
1772459220795296800,4.255296875,-0.43253216984272,-0.4033871777705848,-0.2312664509806782
1772459220805293600,4.26529345703125,-0.3177595432370901,-0.32743045790195463,-0.2821281117551029
1772459220815290400,4.275290283203125,-0.21855215003192424,-0.20836495640799402,-0.35838184180893
1772459220825287700,4.28528759765625,-0.15998481025099753,-0.15464242630973457,-0.37986788009312
1772459220835285800,4.29528564453125,-0.19028876309990883,-0.29251375056058165,-0.23098626406611875
1772459220845282600,4.305282470703125,-0.3060404638707638,-0.5224810285761952,-0.07824358869679272
1772459220855279400,4.315279296875,-0.515965070810914,-0.5108827991105616,0.009193469878844916
1772459220865276700,4.325276611328125,-0.5971364565879106,-0.3319957199908793,0.0353220002066344
1772459220875273500,4.3352734375,-0.5794003088891506,-0.24486674098372457,-0.03849447449659928
1772459220885271600,4.345271484375,-0.694569241335988,-0.21128420485556124,-0.013847542762383818
1772459220895268600,4.3552685546875,-0.7691548189818859,-0.14247735674157738,0.08424091114914044
1772459220905265700,4.365265625,-0.7749836712658404,-0.015205460177361964,0.16364985383087768
1772459220915262500,4.375262451171875,-0.7519090851485729,0.1322080377921462,0.20893174171159043
1772459220925259500,4.385259521484375,-0.7569915029793978,0.25822204324975606,0.2559160861286335
1772459220935256600,4.395256591796875,-0.8198731988281011,0.35451705613955853,0.30058378763375804
1772459220945254700,4.405254638671875,-0.892054637941718,0.4345322576187551,0.354305459215492
1772459220955251500,4.41525146484375,-1.0159411298513412,0.5103399244055151,0.39902847110442813
1772459220965248500,4.42524853515625,-1.1169283922106028,0.5848962759569287,0.3756517602354288
1772459220975245600,4.43524560546875,-1.081004261392355,0.7178735445559025,0.30862189519871025
1772459220985242600,4.44524267578125,-0.9046703738868236,0.8807815487772226,0.21070587524464351
1772459220995239400,4.455239501953125,-0.6309224063336849,1.021367392683774,0.14734359280476345
1772459221005237500,4.465237548828125,-0.26868016276955603,1.0477525646537542,0.10815640506995841
1772459221015234600,4.475234619140625,0.033679566761851305,0.9977778427816927,0.09956969631207176
1772459221025231600,4.485231689453125,0.2424292847037315,1.0052204138725995,0.2455776291994378
1772459221035228400,4.495228515625,0.3464782727211714,1.0053625988222659,0.468384623664245
1772459221045225700,4.505225830078125,0.4247732262790203,0.9342748001642525,0.6362750924732535
1772459221055222500,4.515222412109375,0.49493514226377006,0.7839308017008007,0.7618664155393838
1772459221065220600,4.525220703125,0.42256607162356374,0.6572837590366601,0.92163451429978
1772459221075217400,4.535217529296875,0.30398002420961856,0.609630465849489,1.1284683156177402
1772459221085214700,4.545214599609375,0.1810012947946787,0.5470024525009095,1.3005467376358806
1772459221095211500,4.55521142578125,0.08263912024199963,0.446992510741204,1.3741501723766325
1772459221105208600,4.56520849609375,-0.0100385789334774,0.40504546637162564,1.3262868897005915
1772459221115205600,4.57520556640625,-0.06678747111558914,0.38071766532287,1.1596953746609389
1772459221125203700,4.58520361328125,-0.17458792062103748,0.3782980369605124,0.8591768890820443
1772459221135200500,4.595200439453125,-0.41662206852734085,0.4016704369805753,0.5675772576916962
1772459221145197600,4.605197509765625,-0.8045552181869745,0.4317755062565207,0.3535338537884876
1772459221155194600,4.615194580078125,-1.1377116525202988,0.4605456736668944,0.11034741230821236
1772459221165191700,4.625191650390625,-1.4646476049035786,0.5310628328301013,-0.09182285417811945
1772459221175188500,4.6351884765625,-1.6501520563364027,0.5904959956601262,-0.23215591063369065
1772459221185186600,4.6451865234375,-1.5428133791238068,0.642750206771493,-0.4975951187206432
1772459221195183600,4.65518359375,-1.3161843056201934,0.7942055274777113,-0.7136737547785044
1772459221205180700,4.6651806640625,-1.032780620971322,0.9713276427514851,-0.8482926531046628
1772459221215177500,4.675177490234375,-0.7850573215126991,1.0568874727457762,-0.8957784807704389
1772459221225174800,4.6851748046875,-0.595427314582467,1.0685706040158867,-0.8777328287310898
1772459221235172600,4.695172607421875,-0.4145540300816297,1.051963021955639,-0.8194915060341358
1772459221245169700,4.705169677734375,-0.19866963795423506,1.0019396386362611,-0.689076416073367
1772459221255166500,4.71516650390625,-0.07543547247350216,0.9135355251267552,-0.5415899989981204
1772459221265163800,4.725163818359375,0.1506353826254606,0.7857637162163853,-0.461532565812394
1772459221275160600,4.73516064453125,0.5545213036984205,0.7039943645462393,-0.44517888544797896
1772459221285157400,4.745157470703125,0.8818483012259006,0.6356899129964411,-0.38982232440710063
1772459221295155500,4.755155517578125,1.0088725066393613,0.5370584199830889,-0.2647144374763593
1772459221305152800,4.76515283203125,0.9535019170731306,0.4033561981104314,-0.08199808239210396
1772459221315149600,4.775149658203125,0.9345183996617793,0.23074819926023482,0.05742639871803112
1772459221325146600,4.785146728515625,1.0642372509866953,0.08649594180062413,0.17185988389663398
1772459221335143700,4.795143798828125,1.0709195052295923,0.03689253745898604,0.2544780344158411
1772459221345140500,4.805140380859375,1.0269967768728732,-0.022884616503119466,0.3373926105983555
1772459221355138600,4.815138671875,0.9585498481124639,-0.14254852228164672,0.4186577390734106
1772459221365135600,4.825135498046875,0.8338432719916105,-0.26527663793638345,0.4196634455172345
1772459221375132700,4.835132568359375,0.7734130609482527,-0.3211518160238862,0.41789709343183784
1772459221385129500,4.84512939453125,0.7210130116254091,-0.328920842590183,0.45546088121589273
1772459221395126500,4.85512646484375,0.6772615481823683,-0.3746750241577625,0.47191436869297176
1772459221405123600,4.86512353515625,0.6150894619077444,-0.42126711785420773,0.46469581561628726
1772459221415121700,4.87512158203125,0.5351654458433389,-0.47585021030455826,0.5019498433314263
1772459221425118500,4.885118408203125,0.471387677937746,-0.5505041770115494,0.5507182581536472
1772459221435115500,4.895115478515625,0.3625537937313318,-0.5927835220754146,0.6221705062098801
1772459221445112600,4.905112548828125,0.22988895208239554,-0.5969007481358946,0.7000286757856607
1772459221455109600,4.915109619140625,0.15463760400414467,-0.5745458545953035,0.7578748616851866
1772459221465106400,4.9251064453125,0.1483522401243448,-0.5323471735522151,0.7608869029827415
1772459221475104500,4.9351044921875,0.08729717518091201,-0.5203624289870262,0.7574478684447705
1772459221485101600,4.9451015625,-0.060331426844000814,-0.5593019621036946,0.8202215738743543
1772459221495098600,4.9550986328125,-0.14329787934422492,-0.6005147008493542,0.8402585458613931
1772459221505095400,4.965095458984375,-0.13904372903108597,-0.5978484042495489,0.8442869976598769
1772459221515092700,4.9750927734375,-0.14580664729475973,-0.5671960763543844,0.8612322141766547
1772459221525090800,4.9850908203125,-0.15873802506029605,-0.5908781268455088,0.884463671356067
1772459221535087900,4.995087890625,-0.16356208421587942,-0.6544042580775916,0.9189929868150502
1772459221545085000,5.0050849609375,-0.16831307813525198,-0.7241416650399565,0.9544402939017862
1772459221555081700,5.015081787109375,-0.18246201499700546,-0.8039334330268204,0.9469498650811612
1772459221565079000,5.0250791015625,-0.16961013220846652,-0.8791738213196396,0.911693769717589
1772459221575075800,5.035075927734375,-0.1784913578003645,-0.9286980229452252,0.8600777103792876
1772459221585074000,5.045073974609375,-0.2127373262733221,-1.0001489558272063,0.7908321055218577
1772459221595070700,5.05507080078125,-0.1897416506111622,-1.1090728564046322,0.6857843157254159
1772459221605068000,5.065068115234375,-0.1564654039531946,-1.128860675936192,0.5491053430642933
1772459221615064800,5.07506494140625,-0.1826467239141464,-1.0625319083735345,0.40392362273484467
1772459221625062000,5.085061767578125,-0.13674655800461769,-1.0138003184303641,0.2057559246870689
1772459221635059000,5.095058837890625,-0.04304360743463039,-0.9821845523305237,-0.002835387822706252
1772459221645057000,5.10505712890625,-0.004958499190211295,-1.0338440124191344,-0.09041980071347207
1772459221655053800,5.1150537109375,0.0021978023052215577,-1.2998473571948705,-0.04611813777545467
1772459221665051000,5.12505078125,-0.07722294041216372,-1.5169130680613219,-0.02955112518761307
1772459221675048000,5.1350478515625,-0.19189619829654692,-1.4070850582510233,-0.06354330156259239
1772459221685045000,5.145044921875,-0.3004138561606407,-1.2250782396756112,-0.12294405996035784
1772459221695041800,5.155041748046875,-0.470477577355504,-1.2204026490800082,-0.21835260887183247
1772459221705040000,5.165039794921875,-0.6149398243039846,-1.2742413529038428,-0.31526275798529385
1772459221715037000,5.175036865234375,-0.773423582342267,-1.1372380436591802,-0.4263443480532616
1772459221725034000,5.185033935546875,-0.9347089537978172,-0.767489954509586,-0.5731557154111564
1772459221735030800,5.19503076171875,-0.9538830253452062,-0.3953441565684974,-0.7625573204129934
1772459221745028000,5.205028076171875,-0.8832213431447744,-0.11430647039860486,-0.9618173254758119
1772459221755025000,5.21502490234375,-0.8350503096938132,0.14258388585597276,-1.092559674629569
1772459221765023000,5.22502294921875,-0.8672937061727046,0.42943040443509817,-1.1040426802176981
1772459221775019800,5.235019775390625,-0.9006798429459333,0.633204964312911,-1.1393333354379982
1772459221785017000,5.24501708984375,-0.7398790401369333,0.788986039263755,-1.2446565081097185
1772459221795014000,5.255013916015625,-0.5325929650068283,0.9930671808727085,-1.2954738182857632
1772459221805011000,5.265010986328125,-0.3530892152935266,1.1659295928753912,-1.2896854441426693
1772459221815008800,5.2750087890625,-0.16561667865812776,1.244049482127279,-1.2437456768751143
1772459221825006000,5.285006103515625,0.022767712125182152,1.2635561466298997,-1.1912588260516523
1772459221835003000,5.2950029296875,0.19401801275610922,1.279611940026283,-1.1030430016558617
1772459221845000000,5.305,0.36320845824778075,1.2609474254362285,-0.9660624156996607
1772459221854997000,5.3149970703125,0.5088286430597305,1.190005172728747,-0.8035111159615218
1772459221864994000,5.324994140625,0.5529647219061851,1.0658002625197172,-0.6534046525809913
1772459221874991900,5.334991943359375,0.537642065089941,0.9437857019618153,-0.5188584541648626
1772459221884989000,5.344989013671875,0.541213493835926,0.8586755154311656,-0.40829358144737776
1772459221894986000,5.354986083984375,0.4748357725650072,0.8026065683372319,-0.34094365414343775
1772459221904983000,5.364983154296875,0.3554220421552658,0.7299097270473838,-0.2726435865078121
1772459221914979800,5.374979736328125,0.3051420537263155,0.6720096190035343,-0.2624450677722692
1772459221924977000,5.384976806640625,0.2741068639934063,0.637694823078066,-0.26788988917469975
1772459221934975000,5.39497509765625,0.31170565002560613,0.6457908896416426,-0.28308592393659054
1772459221944972000,5.404971923828125,0.3290922536343336,0.6573134235225617,-0.33094007345810533
1772459221954968800,5.41496875,0.3506032436966896,0.6489473078459501,-0.3327812443453818
1772459221964966000,5.4249658203125,0.37547874175608154,0.6326220498584211,-0.29840627919789403
1772459221974963000,5.434962890625,0.32823066836893555,0.6665573449470102,-0.25137992227002975
1772459221984961000,5.4449609375,0.25670623185932634,0.7475071969278156,-0.20585659031625836
1772459221994957800,5.454957763671875,0.17462474550008772,0.8282626953803003,-0.18373302131351082
1772459222004955100,5.464955078125,0.1411421626150608,0.8475529406532645,-0.15890596550572664
1772459222014952000,5.474951904296875,0.21452420969009398,0.8106890447668731,-0.1559718482825905
1772459222024948700,5.48494873046875,0.27465280743837356,0.7913222271263599,-0.2003974481275305
1772459222034946000,5.494946044921875,0.3067699471890926,0.8233920206040144,-0.2018745714753866
1772459222044944100,5.504944091796875,0.33752515093684193,0.8404607904352247,-0.19458141879253088
1772459222054941000,5.51494091796875,0.3933943376749754,0.7844926733672618,-0.19589944258853792
1772459222064937700,5.524937744140625,0.49105450143814083,0.6913496947675943,-0.2011156063342467
1772459222074935000,5.53493505859375,0.528024341917038,0.6060432550124824,-0.17905206042304633
1772459222084931800,5.544931884765625,0.5702414353996514,0.5078795256413519,-0.16524320570323614
1772459222094929000,5.554928955078125,0.7199059271663427,0.38981004944741726,-0.16356126223197207
1772459222104926700,5.5649267578125,0.8161720062226057,0.23816812012791633,-0.1233501565432176
1772459222114924000,5.574924072265625,0.7799322335839272,0.025581308241188525,-0.07113667930103838
1772459222124920800,5.5849208984375,0.7732318591624497,-0.19651202152892946,-0.06905811946131289
1772459222134918000,5.59491796875,0.8485597796082496,-0.3678999770648777,-0.07524353009797632
1772459222144915000,5.6049150390625,0.9056915336281061,-0.4844559799559414,-0.05711677564643323
1772459222154912000,5.614912109375,0.8229062829136848,-0.5898847318939864,0.0010425313228741287
1772459222164909800,5.624909912109375,0.7351420747429132,-0.7253346742168069,0.06819803203325718
1772459222174907000,5.634906982421875,0.6953437328398228,-0.862165257243067,0.0880373442900367
1772459222184904000,5.644904052734375,0.7048761158168315,-0.9433299210183322,0.05513849784340709
1772459222194901000,5.65490087890625,0.66897770396173,-0.9496624850407243,0.02867705489997752
1772459222204897800,5.664897705078125,0.555486349338293,-0.9582039572842419,0.04248856736775487
1772459222214895900,5.674895751953125,0.5389361965537071,-0.9924553325846791,0.007134838582295924
1772459222224893000,5.684892822265625,0.48981122337877747,-1.0199649785399436,-0.05643128673345781
1772459222234890000,5.694889892578125,0.3693371702611446,-0.9749211371988058,-0.10088483403124845
1772459222244886800,5.70488671875,0.302682970136404,-0.8942677839465438,-0.13380120700141415
1772459222254884000,5.714884033203125,0.23927988076210022,-0.8659980403389781,-0.1473475565938279
1772459222264881000,5.724880859375,0.1868821695268154,-0.8641266935091465,-0.16183812823379412
1772459222274879000,5.73487890625,0.12223989374637603,-0.8802474419005215,-0.18253621274437754
1772459222284875800,5.744875732421875,0.07551438292860985,-0.8719049993604421,-0.21310243325866757
1772459222294873000,5.754873046875,-0.003426467317342758,-0.8621596312198787,-0.2829683254389092
1772459222304870000,5.764869873046875,-0.11272504642605781,-0.8414335079248995,-0.33920583403278143
1772459222314867000,5.774866943359375,-0.20536708976626394,-0.8201915440622717,-0.3519129745883867
1772459222324864800,5.78486474609375,-0.3589928863793611,-0.78722370576635,-0.35125980790928
1772459222334862000,5.794862060546875,-0.44242403378188605,-0.7331133453942835,-0.39536403031274675
1772459222344859000,5.80485888671875,-0.46304187439680095,-0.6873904357478022,-0.4339396985530853
1772459222354856000,5.81485595703125,-0.491009493252635,-0.6587077274251729,-0.5015291702339425
1772459222364853000,5.82485302734375,-0.5752279916405677,-0.6274793532077223,-0.5480176208928227
1772459222374850000,5.83485009765625,-0.7171551671534776,-0.6033078386992216,-0.5644632538570091
1772459222384848000,5.844847900390625,-0.7797568770170211,-0.5956973636955022,-0.609991261985898
1772459222394845000,5.854844970703125,-0.8007961579144001,-0.5563113289203494,-0.714552218113467
1772459222404842000,5.864842041015625,-0.8260872510373591,-0.4965211693461984,-0.7690612954795361
1772459222414839000,5.874839111328125,-0.825074859124422,-0.4811348727092147,-0.7559790380012243
1772459222424835800,5.8848359375,-0.8321054884135722,-0.5805840387810022,-0.6658154405385256
1772459222434833200,5.894833251953125,-0.9002180706530809,-0.7090011598575859,-0.5834818425817415
1772459222444831000,5.9048310546875,-1.0383955382436514,-0.6230624135483056,-0.5195244072603061
1772459222454828000,5.914828125,-1.0903647949337958,-0.5053818636067211,-0.4762259117491543
1772459222464824800,5.924824951171875,-1.1907552604436873,-0.5268462380483746,-0.4051195545211434
1772459222474822100,5.934822265625,-1.314786129260063,-0.6465552981428802,-0.27113077079206704
1772459222484819000,5.94481884765625,-1.413224876180291,-0.7303593705110252,-0.13322314225197768
1772459222494815700,5.954815673828125,-1.5531272678673267,-0.6345275912187993,-0.06543946317327208
1772459222504815900,5.96481591796875,-1.6905314129978417,-0.37608839808702466,-0.0739181632457301
1772459222514813000,5.97481298828125,-1.7402303866684437,-0.14183058327063916,-0.12080025286469608
1772459222524810800,5.984810791015625,-1.7476549837112425,0.051030660665780304,-0.15921272989995777
1772459222534807800,5.994807861328125,-1.661985117471218,0.20308511630892753,-0.13500267347935585
1772459222544804900,6.004804931640625,-1.464736452230811,0.3904438173063099,-0.1047001454025507
1772459222554802000,6.014802001953125,-1.227569033578038,0.5912180263243615,-0.10005943432408385
1772459222564799700,6.0247998046875,-0.9311679201900959,0.729121353148669,-0.11972038520611822
1772459222574796800,6.034796875,-0.7356476861774921,0.8370442599900066,-0.04774687148844823
1772459222584793900,6.0447939453125,-0.5946972467422486,0.9180361975468695,0.037548147256928496
1772459222594791000,6.054791015625,-0.40064007101953025,0.9514058215767145,0.13189671595380642
1772459222604787700,6.06478759765625,-0.20988018327653407,0.9911550636410713,0.21224749692976475
1772459222614785800,6.074785888671875,-0.05206628732383251,1.0216001785263418,0.34571536205727604
1772459222624782800,6.084782958984375,0.16646365087628365,0.9888365575656294,0.4856447878817096
1772459222634780000,6.09477978515625,0.40628655247390266,0.950757586801052,0.5895201728979125
1772459222644776700,6.104776611328125,0.6357435428798198,0.9701048229582607,0.6915652372144162
1772459222654774000,6.11477392578125,0.9286831176370381,1.0078861259505152,0.762624759626016
1772459222664770800,6.124770751953125,1.1797867071837187,1.0292265817515551,0.8561961197055876
1772459222674769000,6.134768798828125,1.419862706759572,0.9818618962474167,0.967194415404275
1772459222684765700,6.144765625,1.618075248596072,0.9088437140487134,1.1465779728040097
1772459222694763000,6.154762939453125,1.7004688696444032,0.814447228256613,1.353044109853357
1772459222704759800,6.164759765625,1.749653464052081,0.7385317171812057,1.5415955277666449
1772459222714756900,6.1747568359375,1.7591490221500397,0.693285192874819,1.7180005808122456
1772459222724754700,6.184754638671875,1.6453934636324643,0.6349874638155102,1.9051057454399762
1772459222734752000,6.194751953125,1.502396613061428,0.5366477933555841,2.0858073266357184
1772459222744748800,6.204748779296875,1.3521166197448968,0.4087548422835767,2.2480482452504336
1772459222754745900,6.214745849609375,1.1557856538712978,0.2932275979183614,2.4078315415799616
1772459222764743000,6.224742919921875,1.065306341522932,0.15806100258156655,2.483977500410378
1772459222774739700,6.23473974609375,1.0063128852844239,0.03448591470867395,2.5124887246236205
1772459222784737800,6.24473779296875,0.8687439049810171,-0.04269888565018773,2.5218933895677327
1772459222794734800,6.25473486328125,0.6458043336451054,-0.08472849373668431,2.458542030380666
1772459222804732000,6.26473193359375,0.3627729894399643,-0.11295476352870464,2.275300117052346
1772459222814728700,6.274728759765625,-0.02556932554244995,-0.07379252757206559,2.1159705558396875
1772459222824725800,6.284725830078125,-0.32095161727666854,-0.007363660635799169,1.9855527624651788
1772459222834722800,6.294722900390625,-0.4294955786257982,0.07995528798550366,1.8433702970169483
1772459222844721000,6.304720947265625,-0.6117506728738547,0.25142230010703204,1.7101900531917809
1772459222854718000,6.314718017578125,-0.7455705297768116,0.520144694583118,1.6136168078824877
1772459222864714800,6.32471484375,-0.7434867092400789,0.7776597586072981,1.4855188357576727
1772459222874711800,6.3347119140625,-0.6650906333953142,0.9129735073298215,1.2847794057920574
1772459222884708900,6.344708984375,-0.4377139563947916,0.9848055484838784,1.0293734428763388
1772459222894707000,6.35470703125,-0.3116618108838796,1.1161992011532187,0.8837165793158114
1772459222904703700,6.364703857421875,-0.2489695001274347,1.2079279290407896,0.9282480872206389
1772459222914700800,6.37470068359375,-0.17115911521613597,1.1658018748424948,1.045705715126544
1772459222924697900,6.38469775390625,-0.03722527654469013,1.0217467473901807,1.1629950007282197
1772459222934694700,6.394694580078125,-0.013089198675751685,0.9273704276032745,1.3586371075548231
1772459222944692000,6.40469189453125,-0.025654081216454506,0.8515275433726608,1.587529449815303
1772459222954689800,6.414689697265625,-0.012204817056655883,0.7132876780703663,1.7253480209656058
1772459222964686800,6.424686767578125,-0.03511690608859062,0.5624449363045394,1.797808861542493
1772459222974683600,6.43468359375,-0.030150223591923712,0.47752866491079327,1.8622990155011414
1772459222984681000,6.444680908203125,0.03347615314424038,0.4203291063517332,1.9062147295951841
1772459222994677800,6.454677734375,0.0318979440420866,0.364160206014663,1.908041798891872
1772459223004674800,6.4646748046875,-0.009673252752423285,0.29233722494989633,1.8987243738397954
1772459223014672600,6.474672607421875,-0.009065934509038925,0.23875951014980673,1.8308660586223005
1772459223024670000,6.484669921875,-0.05713233854174614,0.24851459596678613,1.7229324842564762
1772459223034666800,6.494666748046875,-0.16609189495444296,0.3188262956857681,1.5857169935658573
1772459223044663800,6.504663818359375,-0.22161972090899942,0.34799671446010466,1.45130574664101
1772459223054660900,6.514660888671875,-0.26844810757935045,0.3474062012210488,1.329017045316845
1772459223064659000,6.524658935546875,-0.38497313081026074,0.3294453048557043,1.2631307608246802
1772459223074655700,6.53465576171875,-0.4488941065788269,0.29859160916954275,1.198255260810256
1772459223084652800,6.54465283203125,-0.44750469804704185,0.2740744230285287,1.1086583573196083
1772459223094649900,6.55464990234375,-0.5940168632626533,0.24965251395553348,1.0663354653749615
1772459223104647000,6.56464697265625,-0.6702408557653426,0.20844605882018805,0.9833298499081283
1772459223114643700,6.574643798828125,-0.7159539746701717,0.1747885577596724,0.9476580133505165
1772459223124641800,6.584641845703125,-0.79805475025177,0.1627225646518171,0.9415069433748722
1772459223134638800,6.594638916015625,-0.8265840946435928,0.16399360750094055,0.9185825063180177
1772459223144636000,6.604635986328125,-0.8104746713638306,0.17344211158677936,0.8509289198923855
1772459223154632700,6.6146328125,-0.8229799326717853,0.21122560653612016,0.7635784070890397
1772459223164630000,6.624630126953125,-0.7920534640103578,0.25728067074641586,0.6870293473504483
1772459223174627800,6.6346279296875,-0.7127256602734326,0.2838996514722705,0.6219903273373842
1772459223184625000,6.644625,-0.6428565897554159,0.22612390046045183,0.5764006521491334
1772459223194621700,6.65462158203125,-0.6375701737850904,0.024672815094143152,0.6352035177189856
1772459223204619000,6.664618896484375,-0.6826262900859117,-0.2558769414283335,0.7439947318274527
1772459223214615800,6.67461572265625,-0.7298936526954174,-0.2588872291602194,0.7568320746339857
1772459223224612900,6.68461279296875,-0.766185447782278,-0.03900894509106874,0.7033576740778982
1772459223234610700,6.694610595703125,-0.8313011862933635,0.05744637292698025,0.6008456133041531
1772459223244608000,6.70460791015625,-0.7389134099751711,-0.052259179547429084,0.5288247350471094
1772459223254604800,6.714604736328125,-0.5777461119413375,-0.1276619187951088,0.3976524335108697
1772459223264601900,6.724601806640625,-0.49744566377997396,-0.0064845397137105465,0.22784414838179945
1772459223274599000,6.734598876953125,-0.35151918949782845,0.1938390029273927,0.04569163772538304
1772459223284597000,6.744596923828125,-0.1687181518048048,0.35455563458427786,-0.10728884672150016
1772459223294593800,6.75459375,-0.10187807371914386,0.45937356114760036,-0.17885522267669438
1772459223304590800,6.7645908203125,-0.039158290433883663,0.5552803053721785,-0.21588512277975677
1772459223314588000,6.774587890625,-0.04769523263275623,0.6644071811757981,-0.2525238316081464
1772459223324585000,6.7845849609375,0.013838555738329886,0.7585675201244652,-0.3475411527123302
1772459223334581800,6.794581787109375,0.14173720589876174,0.8493729956872761,-0.45238896295726294
1772459223344579800,6.804579833984375,0.2147463280081749,0.9537781036660075,-0.5147450274966657
1772459223354577000,6.814576904296875,0.31542145567834373,1.0611350471876562,-0.5321365264762192
1772459223364574000,6.824573974609375,0.4308692050665617,1.1374068243548274,-0.5475865359991788
1772459223374570800,6.83457080078125,0.5352607229113578,1.2161933608219027,-0.5190448435824364
1772459223384567800,6.84456787109375,0.6300824483782053,1.2420375577829776,-0.4710805116847157
1772459223394566000,6.85456591796875,0.6863385886073112,1.2459943325847387,-0.41408356302566823
1772459223404563000,6.86456298828125,0.6781658035457134,1.248936815777421,-0.3444341266077012
1772459223414559700,6.874559814453125,0.6193553026586771,1.2410099683009088,-0.25840602151453496
1772459223424557000,6.88455712890625,0.5111673151403665,1.190292465237528,-0.1436461082600057
1772459223434553900,6.894553955078125,0.3835100725203752,1.134568970580399,-0.03256079186499119
1772459223444550700,6.904550537109375,0.3209878576338291,1.1438067545250057,0.05070530116893351
1772459223454548700,6.914548828125,0.29285248099565503,1.1348477875217795,0.12642952745594083
1772459223464546000,6.924546142578125,0.22456454218924043,1.0736812250278889,0.17504099815078078
1772459223474542800,6.93454296875,0.12180033328533171,1.0073917665623129,0.21101488639488816
1772459223484539600,6.94453955078125,0.03661386664807796,0.9412645129211247,0.2156532137200236
1772459223494537000,6.954536865234375,-0.04201192629933357,0.8822579049400985,0.19695684268698094
1772459223504533800,6.96453369140625,-0.07993687554597854,0.8243537052430212,0.17328816313408313
1772459223514531800,6.97453173828125,-0.05300386043488979,0.7911477473422884,0.12218312205784022
1772459223524527000,6.984527099609375,-0.05608195270597934,0.7953810009978711,0.1225934564244002
1772459223534524000,6.99452392578125,0.02177168682515621,0.7691453205011785,0.15394889108762144
1772459223544521200,7.004521240234375,0.017936054185032843,0.7461071208715438,0.23700594448074697
1772459223554518000,7.01451806640625,-0.031901451173424716,0.7314857441924512,0.33317345853336156
1772459223564516000,7.02451611328125,-0.00168225399851799,0.7167457095697521,0.3669087010052055
1772459223574513000,7.034512939453125,0.02866027729511261,0.7054094920411705,0.3975585446823388
1772459223584510200,7.04451025390625,0.0363157604843378,0.6708573802284896,0.4601655152428895
1772459223594507000,7.054507080078125,0.047207741376757616,0.5955130931697785,0.523428830820322
1772459223604504000,7.064504150390625,0.06882862155437469,0.4993826231919229,0.5469912735197693
1772459223614501000,7.074501220703125,0.06913958719968795,0.4265041417248547,0.5508322764547542
1772459223624499200,7.084499267578125,0.03296937266588211,0.36696408445425327,0.5411904052212834
1772459223634496000,7.09449609375,-0.01048223104774952,0.3269800837859511,0.5021932966984808
1772459223644493000,7.1044931640625,-0.020056115078926084,0.3132835668668151,0.42632308606952424
1772459223654490000,7.114489990234375,-0.022482465443015097,0.2958195871729404,0.34092568009532986
1772459223664487200,7.124487060546875,-0.023724574458599088,0.24826639335937797,0.24192524417173117
1772459223674485000,7.134485107421875,-0.06406243006587028,0.23433277974873779,0.13371599466968326
1772459223684482000,7.14448193359375,-0.05656418326497078,0.25917854025699194,0.044676542398706075
1772459223694479000,7.15447900390625,0.014381576573848724,0.23504355836659668,-0.05396463175844401
1772459223704476200,7.16447607421875,0.08869652058482169,0.17972352994382382,-0.1348714483151212
1772459223714473000,7.174472900390625,0.09784311911463738,0.11355492137894034,-0.17675631416868418
1772459223724471000,7.184470947265625,0.16151684212386608,0.06651464552357793,-0.20324786912258713
1772459223734468000,7.194468017578125,0.2738403220117092,0.04323386930972337,-0.18047308793580158
1772459223744465200,7.204465087890625,0.31859599406123157,0.03300627061016857,-0.1640010053561069
1772459223754462000,7.2144619140625,0.37572307190597054,-0.05569938312917948,-0.112421168108657
1772459223764459000,7.224458984375,0.4544570014029741,-0.15051358287669717,-0.007608374378178268
1772459223774456000,7.2344560546875,0.47619186334908004,-0.22512919033467768,0.07318447867631912
1772459223784454100,7.2444541015625,0.45612405783236026,-0.26312143266387283,0.15975995198655873
1772459223794451000,7.254450927734375,0.4958744689404964,-0.3340669733069837,0.24230817907471208
1772459223804448000,7.264447998046875,0.5336345830142498,-0.43234683987107125,0.3144133015491068
1772459223814445000,7.274445068359375,0.6102589730113744,-0.4980569640787318,0.41488501560166474
1772459223824442000,7.284442138671875,0.6304518662124872,-0.5391649638082832,0.53096952852346
1772459223834439000,7.29443896484375,0.5949865850776433,-0.5942187425103038,0.6336397024683654
1772459223844437200,7.304437255859375,0.5311410126328469,-0.667133610465005,0.7061008353061974
1772459223854434000,7.31443408203125,0.4618634782671928,-0.7242503861114382,0.7501018895961343
1772459223864431000,7.32443115234375,0.33252982686758037,-0.7302059335149824,0.7988910549454391
1772459223874428200,7.33442822265625,0.2397849076747894,-0.7054606377065181,0.7618206036362797
1772459223884425200,7.34442529296875,0.11778934407830238,-0.6139183723017573,0.7197406536020338
1772459223894423000,7.354423095703125,-0.0011386486411094664,-0.4884003336675465,0.6881038447141647
1772459223904420000,7.364420166015625,-0.04320668904185295,-0.40076274755112823,0.6543319234937429
1772459223914417200,7.374417236328125,-0.14711831441521644,-0.3344683206494897,0.6301463073946535
1772459223924414200,7.384414306640625,-0.3539689207375049,-0.30308254564693193,0.5926634393597021
1772459223934411000,7.394410888671875,-0.5264537315994501,-0.2639135876885615,0.48933334020134056
1772459223944408000,7.404407958984375,-0.6453495756149291,-0.20191101276194676,0.34819154291246085
1772459223954406100,7.41440625,-0.785290545746684,-0.09177094132779165,0.26193021358530966
1772459223964403200,7.4244033203125,-0.9180670310765504,0.01670528854737058,0.18078648300021885
1772459223974400000,7.43439990234375,-1.1166390538752078,0.11401304954313672,0.125461266945675
1772459223984397000,7.44439697265625,-1.312626905399561,0.2052903712682426,0.09018763592541218
1772459223994394000,7.45439404296875,-1.3882348118305206,0.3126666040122509,0.039060456082597374
1772459224004392200,7.46439208984375,-1.3812223027199506,0.39166071881540115,-0.05046984844524413
1772459224014389000,7.474388916015625,-1.4073591990172862,0.4473279167080298,-0.16028938268814236
1772459224024386000,7.484385986328125,-1.3946516931355,0.43861623899675906,-0.276341819971241
1772459224034383000,7.494383056640625,-1.3512982890993357,0.27306031408254056,-0.35151959135662764
1772459224044380000,7.5043798828125,-1.3450345525294543,0.17099815250076353,-0.46752665512803937
1772459224054377000,7.514376953125,-1.3817349284172058,0.37502365493234247,-0.5515579969134181
1772459224064375000,7.524375,-1.37139473618865,0.5342900512482971,-0.49493353482857344
1772459224074372000,7.5343720703125,-1.3291834879249333,0.446966864843294,-0.4333516695320606
1772459224084369000,7.544368896484375,-1.3013853804171085,0.35300424042381345,-0.3677154142782092
1772459224094366000,7.554365966796875,-1.1883832706153392,0.36573848818205296,-0.29498001280995084
1772459224104363000,7.564363037109375,-1.055184760481119,0.4256571695066988,-0.23645481340400873
1772459224114361000,7.574361083984375,-0.8791104006946087,0.42778249109759925,-0.15780653463015332
1772459224124358100,7.584358154296875,-0.753233027228713,0.4012350777706131,-0.028656368304975328
1772459224134355000,7.59435498046875,-0.7357143216729164,0.3833125041216612,0.1377560273081064
1772459224144352000,7.60435205078125,-0.6846347072988748,0.3997944870408624,0.3072527622699737
1772459224154349000,7.61434912109375,-0.559262945267558,0.40986930633150037,0.46207580584362146
1772459224164347100,7.62434716796875,-0.45071606130897995,0.3609675474531948,0.6329264396324753
1772459224174344000,7.634343994140625,-0.35011224530935287,0.2772211235564202,0.8020020265728235
1772459224184341000,7.644341064453125,-0.25855507459640503,0.19734781476594507,0.9509839429028332
1772459224194338000,7.654338134765625,-0.18008827160298824,0.16466639219596982,1.0899187316667287
1772459224204334800,7.6643349609375,-0.1508183379769325,0.17662227599285543,1.2052984573200345
1772459224214332200,7.674332275390625,-0.173928579929471,0.21716317989155648,1.3158955518066882
1772459224224330000,7.684330078125,-0.11953297287523745,0.2388552986744791,1.3936898623660205
1772459224234327000,7.6943271484375,-0.050558805370330806,0.2651398598141968,1.3568874874085186
1772459224244324000,7.704323974609375,0.04190554331541061,0.32076405881531533,1.2045690470669417
1772459224254321200,7.714321044921875,0.18493278902471064,0.3846506939228624,1.013247141527012
1772459224264318000,7.72431787109375,0.3534907818317413,0.4561714771706611,0.924577582014352
1772459224274316000,7.73431591796875,0.46242929545640943,0.52533495670259,0.9106923375900834
1772459224284313000,7.74431298828125,0.6248445477247238,0.6418371835798025,0.9466999819733202
1772459224294310100,7.75431005859375,0.8767764047890901,0.7086312305666506,1.0013136156924067
1772459224304307000,7.764306884765625,1.0116104071706533,0.6749409962803125,1.1111864875577389
1772459224314304000,7.774303955078125,0.9642670567154884,0.5883724276348948,1.320334995558858
1772459224324301000,7.784301025390625,0.9573656067639589,0.5222974887028337,1.5196894009068607
1772459224334299100,7.794299072265625,1.0402549023747443,0.45660351191237564,1.6261567021124064
1772459224344296000,7.8042958984375,1.0731441955417393,0.3948471668317914,1.7015861832365393
1772459224354293000,7.81429296875,1.0302560709297657,0.3420456971012056,1.800564443860948
1772459224364290000,7.8242900390625,0.912937266972661,0.2699916837595403,1.8588478521339595
1772459224374287000,7.834287109375,0.8085802359193563,0.1778980680823326,1.9689633005835114
1772459224384285000,7.844284912109375,0.6467220330119132,0.08367065524682402,2.0145073465317487
1772459224394282000,7.854281982421875,0.5028489841282368,0.010920330204069614,1.9815493720427155
1772459224404279000,7.864279052734375,0.5359715015292167,-0.008644201965630054,1.8699813866972923
1772459224414276000,7.874276123046875,0.6636778439879417,0.034528730937093494,1.7282447653204203
1772459224424273000,7.88427294921875,0.665672817197442,0.11527443864792584,1.6865822369806467
1772459224434270200,7.894270263671875,0.6154325762569904,0.137535808686167,1.6803756374254821
1772459224444268000,7.90426806640625,0.6089350309312344,0.1645049180239439,1.6224062635377048
1772459224454265000,7.91426513671875,0.5634539672166109,0.21449103807285427,1.534187589597702
1772459224464262000,7.924261962890625,0.5347188711196184,0.23501447840258477,1.456781986095011
1772459224474259200,7.93425927734375,0.5058943431735038,0.33221243148148055,1.4318971356853842
1772459224484256000,7.944256103515625,0.5298357752531767,0.4169293809108436,1.3680299359306691
1772459224494254000,7.954254150390625,0.5851736315935849,0.22805326108783483,1.2482825896523893
1772459224504251000,7.9642509765625,0.47914603697955604,0.14314911852329967,1.1861572651289403
1772459224514248200,7.974248291015625,0.4245283116072416,0.20932444908991454,1.146751648870483
1772459224524249600,7.98424951171875,0.3782277482032776,0.1615690107025206,1.171582138744369
1772459224534246400,7.994246337890625,0.2834650594472885,0.028419454276561736,1.267235419664532
1772459224544244500,8.004244384765625,0.21219430543780327,-0.03814326817244291,1.4026190187528729
1772459224554241500,8.014241455078125,0.21340660383701324,-0.11070391586199402,1.4777905795931816
1772459224564238600,8.024238525390626,0.21995091091394423,-0.12030191142112016,1.465293063200265
1772459224574235400,8.0342353515625,0.1697369734585285,0.15385390628054738,1.482994870238006
1772459224584232400,8.044232421875,0.24527765987217426,0.21876710795685647,1.4777981783777474
1772459224594229500,8.0542294921875,0.281757671007514,0.06549231673851609,1.516425138413906
1772459224604227600,8.0642275390625,0.2660761177510023,-0.008864420587569475,1.488793035122752
1772459224614224400,8.074224365234375,0.2551286072790623,0.025333470959961413,1.4145492566518485
1772459224624221400,8.084221435546874,0.2035351981639862,0.026439824766665697,1.4367692717663942
1772459224634218500,8.094218505859375,0.16944938868880272,-0.027932985933870075,1.506339213207364
1772459224644215300,8.10421533203125,0.11980068390071391,-0.07141922256946563,1.605775738993287
1772459224654213400,8.11421337890625,0.05542962627708912,-0.08165858477205037,1.6349027570173142
1772459224664210400,8.12421044921875,0.012801613906025886,-0.07634002009779214,1.6011889957249164
1772459224674207500,8.13420751953125,-0.060515551239252084,-0.07059913835823535,1.548426542830467
1772459224684204300,8.144204345703125,-0.06399988622367382,-0.050272535774856804,1.4330246784105896
1772459224694201300,8.154201416015624,-0.04329904350042343,-0.015230594618618488,1.3296174954280255
1772459224704198400,8.164198486328125,-0.04988777424097061,0.04357406104952097,1.300151746968925
1772459224714196500,8.174196533203125,-0.03766132987439632,0.09708104870095849,1.2130183109823613
1772459224724193300,8.184193359375,-0.004311433458328247,0.1380387897722423,1.0714273086212576
1772459224734190600,8.194190673828125,-0.07062018114626407,0.1511437705390155,0.9839448400013148
1772459224744187400,8.2041875,-0.08833236344754695,0.1793947363808751,0.9070747316148131
1772459224754184400,8.214184326171875,-0.09544541032314299,0.21992153868898748,0.8465885526005178
1772459224764182300,8.224182373046874,-0.15650690500736236,0.24248963658884165,0.8626427385617047
1772459224774179600,8.2341796875,-0.2515676999270916,0.1607441041857004,1.0140526857562362
1772459224784176400,8.24417626953125,-0.3719786246806383,-0.09037512132152914,1.286275051177293
1772459224794173400,8.25417333984375,-0.4088333143472671,-0.24559929304197428,1.3899936381965874
1772459224804170500,8.26417041015625,-0.5110065716207027,-0.030600597707927224,1.360155403163284
1772459224814168600,8.27416845703125,-0.7017758117139339,0.2508322252593934,1.3636357926249503
1772459224824165400,8.284165283203125,-0.8288602228820323,0.2917323909245431,1.3097076569519936
1772459224834162400,8.294162353515626,-0.8747609733134507,0.1895392599068582,1.208970277700573
1772459224844159500,8.304159423828125,-0.82901395213902,0.21460326627567408,0.9983596612576394
1772459224854156500,8.314156494140626,-0.7872562928617,0.47259135463908314,0.7286571697030216
1772459224864153300,8.3241533203125,-0.7224515199959277,0.7294279348798096,0.34833807524368166
1772459224874151400,8.3341513671875,-0.6522638850480318,0.9240737241454422,-0.04815295893815346
1772459224884148500,8.3441484375,-0.6392822383999824,1.0120732023768126,-0.40020036442801354
1772459224894145500,8.3541455078125,-0.6463900245785713,1.0122921058245002,-0.7272798900004476
1772459224904142300,8.364142333984375,-0.6325397784024477,1.0185687018759548,-1.0020892762400209
1772459224914139400,8.374139404296875,-0.5743927098602056,0.987669851873815,-1.225765052895993
1772459224924137500,8.384137451171876,-0.38648470441699023,0.897008168695867,-1.3477058175653218
1772459224934134500,8.394134521484375,-0.11607318781018257,0.8176768578276038,-1.4097890565127134
1772459224944131300,8.40413134765625,0.13730828354060648,0.77932535373196,-1.3359827926762402
1772459224954128400,8.41412841796875,0.30056583185195923,0.7249962360426783,-1.1300041468828916
1772459224964125400,8.42412548828125,0.47442719176411624,0.628922026296705,-0.9293514453526586
1772459224974122500,8.43412255859375,0.5818015248119831,0.5119973362237215,-0.6777945590805262
1772459224984120300,8.444120361328125,0.5572592042297124,0.40944852363616224,-0.38952385291717945
1772459224994117400,8.454117431640626,0.4557230758160352,0.3397483799442649,-0.1565804269012995
1772459225004114400,8.464114501953125,0.3401204281270504,0.27047742144986986,0.00034786358959972854
1772459225014111500,8.474111572265626,0.23598200826048848,0.23630422595217823,-0.016131488981097935
1772459225024108300,8.4841083984375,0.24454116229116915,0.2908068005122244,-0.23129671825477852
1772459225034106400,8.4941064453125,0.2732067002832889,0.3585430967852473,-0.49488648081645364
1772459225044103400,8.504103515625,0.2727256387680769,0.3946973830975592,-0.6546669276017695
1772459225054100500,8.5141005859375,0.2131681189060211,0.3896551511466503,-0.8344747017629444
1772459225064097300,8.52409716796875,0.09799275671839713,0.370342694041878,-1.0062678040336817
1772459225074094600,8.534094482421875,-0.028089783930778503,0.36111630827412006,-1.1422375324469058
1772459225084092400,8.544092529296876,-0.12182955937981604,0.3199669901534915,-1.221033640459925
1772459225094089500,8.55408935546875,-0.19338205294013022,0.30247195773422714,-1.2576223726667464
1772459225104086300,8.564086181640626,-0.23847324055433272,0.3485208844646811,-1.2310311567306518
1772459225114083600,8.57408349609375,-0.18797347189486024,0.4114991725556552,-1.2000332302682102
1772459225124080400,8.584080322265624,-0.04882335987985134,0.44409868899583815,-1.1330591505393386
1772459225134078500,8.594078369140625,0.1345142689079046,0.41211160536557434,-1.0083289012819527
1772459225144075500,8.604075439453124,0.33962066191136836,0.31166604866757985,-0.8160163042042404
1772459225154072600,8.614072509765625,0.47308688307106495,0.1962989633001387,-0.5461147829461842
1772459225164069400,8.6240693359375,0.5448772770404815,0.1379658706665039,-0.28843532214052975
1772459225174066400,8.63406640625,0.6879524535447359,0.07112813066840172,-0.08625851631555706
1772459225184063500,8.6440634765625,0.7776420768201351,-0.017043927650898693,0.05863700748365372
1772459225194061600,8.6540615234375,0.7353671156704426,-0.1441713011778891,0.22468853389509022
1772459225204058400,8.664058349609375,0.6595990502417087,-0.2562549809604883,0.34524284917470066
1772459225214055400,8.674055419921874,0.6302765096455812,-0.29572935160622,0.39879228772837666
1772459225224052500,8.684052490234375,0.5738140331894159,-0.3127691876038909,0.33889632969219236
1772459225234049300,8.69404931640625,0.48986850652396674,-0.332173414645344,0.2734479616932571
1772459225244047400,8.70404736328125,0.39705169113874433,-0.37511283105313775,0.2157172553995624
1772459225254044400,8.71404443359375,0.42533144468367096,-0.40411461526229975,0.08200801926422864
1772459225264041500,8.72404150390625,0.4690758938640356,-0.3266239638246596,-0.03408599213827401
1772459225274038500,8.73403857421875,0.43900925690233705,-0.23539573280513285,-0.08196871016714721
1772459225284035300,8.744035400390626,0.46212417502999303,-0.22051789714694023,-0.09016637394167483
1772459225294033400,8.754033447265625,0.5025403565704822,-0.25700053863078354,-0.09677589174192398
1772459225304030500,8.764030517578124,0.5250222374916076,-0.2615450501926243,-0.057608322023041544
1772459225314027500,8.774027587890625,0.4959235687792301,-0.26229864503890277,0.04118544887993485
1772459225324024300,8.7840244140625,0.47568625191450115,-0.26079795815236867,0.13166746464204043
1772459225334021400,8.794021484375,0.4954588738769293,-0.2901115117244422,0.16182097616959362
1772459225344018400,8.804018310546875,0.44123628530204295,-0.3331006124928593,0.16654329198375342
1772459225354016500,8.8140166015625,0.32637071971595283,-0.3553925237998366,0.17323829611036926
1772459225364013300,8.824013427734375,0.30463410420417786,-0.3479077940676361,0.11703078079596162
1772459225374010400,8.83401025390625,0.2633580909639597,-0.34861638072840867,0.05452146192360669
1772459225384007400,8.84400732421875,0.11035364111959933,-0.3605859277244657,-0.010077486171759664
1772459225394004200,8.854004150390624,-0.03602116145193576,-0.3732672762516886,-0.04522007469087839
1772459225404002300,8.864002197265625,-0.13920505707263947,-0.3649512102618813,-0.08966697305217385
1772459225413999400,8.873999267578125,-0.28960546189844605,-0.33078787857107816,-0.20391955783907323
1772459225423996400,8.883996337890625,-0.45507425651848316,-0.2577691849157214,-0.31148302025087177
1772459225433993200,8.8939931640625,-0.6435533398479223,-0.21264636005423962,-0.44144441162738945
1772459225443990500,8.903990478515626,-0.8262544242978096,-0.16383410609029234,-0.5884907202523202
1772459225453988600,8.913988525390625,-0.9672861122757196,-0.08726144628040491,-0.7487969444774091
1772459225463985400,8.9239853515625,-1.0421376473814248,0.008427782735973596,-0.9181703453205525
1772459225473982200,8.933982177734375,-1.1421002428680658,0.07602795847393572,-1.0126733602270483
1772459225483979500,8.9439794921875,-1.1339397327661513,0.1037131801918149,-1.0950592363603413
1772459225493976300,8.953976318359375,-1.0716782146424055,0.0952030529346317,-1.1262697826601564
1772459225503973400,8.963973388671874,-1.0012386507600546,-0.06191730779595673,-1.0405148684851824
1772459225513971500,8.973971435546876,-0.9169669608801603,-0.39856275328882035,-0.8330874121230095
1772459225523964200,8.983964111328126,-0.9522095391750335,-0.5220128265425562,-0.6579283405505121
1772459225533961000,8.9939609375,-1.0315133775144816,-0.2813748822350055,-0.5910639317411929
1772459225543958300,9.003958251953126,-1.0851175419300794,-0.19451164149194955,-0.594929594193399
1772459225553955000,9.013955078125,-1.165149694544077,-0.4049616605456918,-0.47792124442495404
1772459225563953200,9.023953125,-1.151195403471589,-0.6570053074214607,-0.28784955814182756
1772459225573950000,9.033949951171875,-1.0456874488174914,-0.6692835550405085,-0.12937179145291447
1772459225583947300,9.043947265625,-0.9341700246155261,-0.4745118013076484,0.02462904901765287
1772459225593944000,9.053944091796875,-0.8783996220767497,-0.31302564658299087,0.24683855251334605
1772459225603941000,9.063941162109375,-0.8342565289676189,-0.30896058910116553,0.49056518355123696
1772459225613939000,9.07393896484375,-0.7812018151283263,-0.32128304118812084,0.6961533687222748
1772459225623936300,9.083936279296875,-0.666584671345353,-0.24331527375802398,0.8278418396197259
1772459225633933000,9.09393310546875,-0.5508154349178076,-0.07358677586689591,0.9230231191139667
1772459225643930000,9.10393017578125,-0.4652303243517875,0.09013809769526124,0.9534894959829747
1772459225653927200,9.11392724609375,-0.3321118937164545,0.21075492028445003,0.9235509423803537
1772459225663925200,9.12392529296875,-0.2211982806265354,0.3586310673296451,0.7982866593115031
1772459225673922000,9.133922119140625,-0.11257014812529087,0.5863588958553969,0.6739014971647411
1772459225683919000,9.143919189453126,0.060578095081448555,0.7772558539815246,0.5875286702871322
1772459225693916200,9.153916259765625,0.27158874369263647,0.884880216267705,0.5529973090015351
1772459225703913200,9.163913330078126,0.49755906102657316,0.9779470608912407,0.5518520844891667
1772459225713910000,9.173909912109375,0.747024235716462,1.0830208619117736,0.5518204472418874
1772459225723908000,9.183908203125,0.9887912571191787,1.1558917445942758,0.5735717488661408
1772459225733905200,9.1939052734375,1.207132394748926,1.1391032530091703,0.6298265008557588
1772459225743902200,9.203902099609374,1.3643945020377635,1.0591662313327193,0.7496550956767052
1772459225753899000,9.21389892578125,1.3808406099259853,0.9784022573128343,0.9200609083075075
1772459225763896000,9.22389599609375,1.3203916941821574,0.8975979512825608,1.1073872414052486
1772459225773894100,9.23389404296875,1.2543775455266237,0.7861208590909838,1.259238283430785
1772459225783891200,9.24389111328125,1.139132625234127,0.6745367993935942,1.4281369063690303
1772459225793888000,9.253887939453126,1.0030869089752434,0.5424085488393903,1.5491398056663572
1772459225803885000,9.263885009765625,0.832585380885005,0.42634646694511175,1.595184202352166
1772459225813882000,9.273882080078126,0.5912672722935676,0.2937285331778228,1.5827918998993933
1772459225823880200,9.283880126953125,0.49466041697561736,0.24805633080527184,1.6810028294131159
1772459225833877000,9.293876953125,0.39924306370317936,0.18311901760101318,1.6230165043905376
1772459225843874300,9.303874267578125,0.3284299903333187,0.13969868580847977,1.5546088847272097
1772459225853871000,9.31387109375,0.3509375902175903,0.17487755121737716,1.395548349714279
1772459225863866000,9.3238662109375,0.3268371681839227,0.27383929909840227,1.2513640429243444
1772459225873864200,9.3338642578125,0.24868425344526765,0.41645504139736295,1.1505828245311975
1772459225883861000,9.343861083984375,0.222301273432374,0.5136407195165753,1.0298854840517044
1772459225893858300,9.3538583984375,0.2314063709080219,0.5951537583380937,0.8933845713712274
1772459225903855000,9.363855224609376,0.20389818625748157,0.6719447370737791,0.8091750600073486
1772459225913852200,9.37385205078125,0.20121873791515826,0.6549971094042062,0.7441464883230626
1772459225923849200,9.38384912109375,0.20687924789488316,0.5827265307024121,0.6932493178438395
1772459225933847300,9.393847412109375,0.24503508328795431,0.5365709287270903,0.6471899427846074
1772459225943844000,9.403843994140624,0.3187666744530201,0.4809666765354573,0.6616957302600145
1772459225953841200,9.413841064453125,0.36419922285079953,0.3630471302062273,0.7312237322553992
1772459225963838200,9.423838134765624,0.4040981025189161,0.18690423522815108,0.7849136021930724
1772459225973835000,9.4338349609375,0.47049686657786366,0.0071058864824473855,0.8291305642560124
1772459225983833000,9.4438330078125,0.5301823967337608,-0.158012633395195,0.9225391349893063
1772459225993830100,9.453830078125,0.6059253277212381,-0.33173838422894475,0.9887084011413156
1772459226003827200,9.4638271484375,0.6858873377084732,-0.45985549944564696,1.031883379870653
1772459226013824000,9.473823974609376,0.7628542575329542,-0.5621935918919742,1.0759991465814411
1772459226023821000,9.483821044921875,0.751347359612584,-0.664109075012058,1.1081886209160088
1772459226033819100,9.493819091796874,0.7908832511872053,-0.6799472801350057,1.2827370863094925
1772459226043816200,9.503816162109375,0.790374717143178,-0.7092116608031094,1.2952930548913777
1772459226053813200,9.513813232421874,0.7660650362730026,-0.7663070283353328,1.2658430885232985
1772459226063810000,9.52381005859375,0.7080974159508943,-0.7738289482727646,1.2293338512934744
1772459226073807000,9.53380712890625,0.6656716481536626,-0.7742680703423916,1.1721809083551167
1772459226083805200,9.54380517578125,0.5747288099467754,-0.7807662001900374,1.1503018156327307
1772459226093802200,9.55380224609375,0.46650516659319397,-0.7746556083552539,1.1768640246700495
1772459226103799000,9.563799072265626,0.38275077858567236,-0.7559265040963887,1.1636946003649382
1772459226113796000,9.573796142578125,0.3176034758925438,-0.7141264669820666,1.0856113167963921
1772459226123793200,9.583793212890624,0.15566110183298587,-0.6253603882923722,1.057458550632
1772459226133790000,9.5937900390625,-0.027048750445246694,-0.6152063662856817,1.0069046406324953
1772459226143788000,9.6037880859375,-0.16380699888765812,-0.5764530033908785,0.9020371027737856
1772459226153785000,9.61378515625,-0.3079243779212236,-0.4754772853389382,0.8119738969456404
1772459226163782100,9.6237822265625,-0.40961774272322654,-0.4328957424581051,0.7767457125023007
1772459226173779000,9.633779052734376,-0.4888064302504062,-0.4526046515345573,0.7294283002059906
1772459226183776300,9.6437763671875,-0.6991647524327039,-0.46991906668990846,0.7274135263174771
1772459226193774000,9.653774169921874,-0.6385106695055961,-0.48886488243937487,0.6394829486038536
1772459226203771100,9.663771240234375,-0.6082283439666032,-0.35727629171982406,0.5726023923773318
1772459226213768000,9.673767822265624,-0.8089251038342714,-0.15708967333137988,0.5953338641453534
1772459226223765200,9.68376513671875,-0.8749299001395702,-0.09693404144570231,0.6390165732011198
1772459226233762000,9.693761962890624,-0.8521943367183208,-0.10381751734912395,0.6278655029810964
1772459226243760000,9.703760009765626,-0.8673837225437164,-0.11879764433801174,0.6310532661717385
1772459226253757000,9.7137568359375,-0.8423112406075001,-0.16341960700526834,0.6482961504608392
1772459226263754200,9.723754150390626,-0.8531605514019727,-0.3597684007965028,0.7953746443223207
1772459226273751000,9.7337509765625,-0.8661480432689189,-0.48105873873308297,0.823705908858776
1772459226283748000,9.743748046875,-0.8384872984051704,-0.22343100811466574,0.8431624506093561
1772459226293746000,9.753745849609375,-0.7354974640518427,0.05468202278017997,0.8088353797242045
1772459226303743200,9.7637431640625,-0.7011275769382714,0.03914806130081415,0.7081633938591927
1772459226313740000,9.773739990234375,-0.7033774016916752,-0.21368644369170067,0.6617112200900912
1772459226323737000,9.783737060546875,-0.7331289813548326,-0.5032414905771613,0.546712200850062
1772459226333734100,9.793734130859375,-0.70286477599442,-0.5449129328757524,0.47182110091894863
1772459226343731200,9.803731201171875,-0.7627735935121774,-0.3618484219409525,0.4278334540998563
1772459226353729000,9.81372900390625,-0.8429010231941938,-0.17181874816864728,0.36806948841288684
1772459226363726000,9.82372607421875,-0.9155325441628694,-0.08020312526673078,0.26192230427348984
1772459226373723100,9.83372314453125,-0.9526701424241065,-0.034850071845948696,0.13408017007326706
1772459226383720200,9.84372021484375,-0.9226222101628779,0.10510901846438646,0.010782035978231578
1772459226393717000,9.853717041015624,-0.8693740195780992,0.2894841736063361,-0.21715119719281792
1772459226403715000,9.863715087890625,-0.7421861480355262,0.4966432613559067,-0.38474418089259416
1772459226413712100,9.873712158203125,-0.5226689523637295,0.7136107725448906,-0.5399706176353618
1772459226423709200,9.883709228515626,-0.3299894947350025,0.9034249038703739,-0.6291590499229729
1772459226433706000,9.8937060546875,-0.10808861879706382,1.0472846548810602,-0.6832451526366173
1772459226443703300,9.903703369140626,0.18619243369698524,1.1403495998084545,-0.7828209407627582
1772459226453701000,9.913701171875,0.392220033198595,1.1933338787600398,-0.7984259947169572
1772459226463698200,9.9236982421875,0.5220937828242779,1.1316614125706255,-0.7752506516389548
1772459226473695000,9.933695068359375,0.6400538072943687,1.0464233618766068,-0.7398110894672573
1772459226483692300,9.9436923828125,0.6567068359315394,0.9629000061459839,-0.6656338734265417
1772459226493689000,9.953689208984375,0.5220253937631845,0.9106605542123317,-0.5773083050459623
1772459226503688200,9.963688232421875,0.44656069519519803,0.8319355386741459,-0.58408368093241
1772459226513686300,9.973686279296874,0.4270388331234455,0.7220927696861327,-0.6642489218741655
1772459226523687200,9.983687255859374,0.359830506247282,0.6275871244311332,-0.7516217195745557
1772459226533684000,9.99368408203125,0.3750286599010229,0.5679078778855502,-0.8381310323134065
1772459226543681000,10.003680908203124,0.47035073610544204,0.5344235414348543,-0.9169709064029157
1772459226553678000,10.013677978515625,0.5812970824211835,0.5102829335212707,-0.9587349954210221
1772459226563676200,10.02367626953125,0.6299170286834239,0.46281610281690955,-0.9910030148845166
1772459226573673000,10.0336728515625,0.5894757127016782,0.3982466000117361,-1.0319696699146181
1772459226583670000,10.043669921875,0.5522200410187245,0.359224357047677,-1.0713073355033993
1772459226593667000,10.0536669921875,0.5396738631784915,0.3249795576184988,-1.0543815543394535
1772459226603664100,10.0636640625,0.5236725764483213,0.2157131272137165,-1.0680470185332
1772459226613662000,10.073661865234374,0.5394266104191542,0.1088223398990929,-1.089568456924334
1772459226623659000,10.083658935546875,0.47095863887071604,0.07473989142477512,-1.0958936413578688
1772459226633656000,10.093656005859375,0.42948038105666636,0.07416428349390626,-1.0923364603329448
1772459226643653000,10.103653076171875,0.4657961415410041,0.043619653756916524,-1.0539546341642736
1772459226653650000,10.11364990234375,0.5146884750038385,-0.0800716078415513,-0.9445543482467531
1772459226663648300,10.123648193359376,0.5399006576716899,-0.2229744965188205,-0.8364393528994172
1772459226673645000,10.13364501953125,0.6651566843688488,-0.33893881712704893,-0.7440984844628721
1772459226683642000,10.14364208984375,0.6989537400305271,-0.39579423842355604,-0.7015170146472751
1772459226693639000,10.153638916015625,0.5863631336390972,-0.4353729462265968,-0.6733250855162739
1772459226703636200,10.16363623046875,0.5374146860748529,-0.543603457712382,-0.6764642603248358
1772459226713634000,10.173634033203125,0.48073535199761386,-0.6751752434276044,-0.7055540881436317
1772459226723631000,10.183631103515625,0.3771528124481439,-0.8214540382787585,-0.7130230357848107
1772459226733628200,10.193628173828126,0.3508189322739839,-0.9228041426010429,-0.7308088678441941
1772459226743625200,10.203625244140625,0.3770756555587053,-0.9430809146933257,-0.7480856544028968
1772459226753622000,10.2136220703125,0.44039924995601176,-0.9757486740641296,-0.7871523940958082
1772459226763619000,10.223619140625,0.4552840998768806,-1.0386961286254226,-0.8029254250280559
1772459226773617200,10.2336171875,0.4235743718832731,-1.0680397850748151,-0.8087914675172417
1772459226783614200,10.2436142578125,0.45404491347074505,-1.0599000985652207,-0.7850931234784424
1772459226793611000,10.253611083984374,0.4163490968048572,-1.049601772717014,-0.719334557019174
1772459226803608000,10.263608154296875,0.41668461236953735,-1.0686750873036681,-0.6873869286164641
1772459226813605000,10.273605224609375,0.445014634796977,-1.0766543225545435,-0.6528774869017303
1772459226823603200,10.283603271484376,0.35796763498485085,-1.013249260418862,-0.565167456603609
1772459226833600000,10.29360009765625,0.3399918333113193,-0.958348188060522,-0.4904252270912751
1772459226843597000,10.30359716796875,0.3281248699069023,-0.8878860470201819,-0.45876701008919624
1772459226853594000,10.313593994140625,0.24612580113410948,-0.8016821469686924,-0.44063503147326405
1772459226863591200,10.323591064453124,0.2018622965157032,-0.765976115880534,-0.4366596981015056
1772459226873589000,10.333589111328125,0.1772971795797348,-0.77116842382662,-0.47378089321721345
1772459226883586000,10.3435859375,0.09009820407629013,-0.7437663298990577,-0.48285303827133025
1772459226893583000,10.3535830078125,-0.06317161870598792,-0.6753152364201843,-0.45355088287610557
1772459226903580200,10.363580078125,-0.24760171890556812,-0.6110531921289861,-0.47076812126729634
1772459226913577000,10.373576904296876,-0.44934828008711336,-0.5461528499342501,-0.5263024134952574
1772459226923575000,10.383574951171875,-0.6311603067427873,-0.444215081917122,-0.5858804281560703
1772459226933572000,10.393572021484376,-0.688463325676322,-0.34812340957969423,-0.66003963361606
1772459226943569200,10.403569091796875,-0.8169412370294332,-0.2870375841718167,-0.6913306978061795
1772459226953566000,10.41356591796875,-0.8856769196033477,-0.27473471356816587,-0.712004214131087
1772459226963563300,10.423563232421875,-0.8990583792239427,-0.33198600231446324,-0.7395156136520207
1772459226973561000,10.43356103515625,-0.9901742359101772,-0.44727344657443463,-0.7690560347825288
1772459226983558100,10.44355810546875,-1.1337754821151493,-0.31483225761353967,-0.8017771317757666
1772459226993555000,10.453554931640625,-1.226901509580016,-0.06739661598987877,-0.7549649655878543
1772459227003552300,10.46355224609375,-1.2170423788666724,-0.0083224957305938,-0.7313444360256195
1772459227013549000,10.473549072265625,-1.131019461405277,-0.029761808796226977,-0.6399420905482024
1772459227023547100,10.483547119140624,-1.0176491028130055,-0.04922485335282981,-0.5095918094519526
1772459227033544000,10.4935439453125,-0.8912783928722142,-0.0230792622923851,-0.4124414949070662
1772459227043541200,10.503541259765624,-0.7757049712777138,0.012901932475343346,-0.32712336471416054
1772459227053538000,10.5135380859375,-0.755101743710041,0.09749722828641533,-0.2656389684427529
1772459227063535000,10.52353515625,-0.8024293120741843,0.09809205237440764,-0.07719407964386045
1772459227073532200,10.5335322265625,-0.8837193557947873,-0.033725378664955494,0.17158844654411076
1772459227083530200,10.5435302734375,-0.9157242673426866,-0.1451110662460327,0.3543151038266718
1772459227093527000,10.553527099609376,-0.9270224909484386,-0.1332254712063819,0.4966515177275985
1772459227103524000,10.563524169921875,-0.948721112537384,-0.0690291856277734,0.6312937969293445
1772459227113521200,10.573521240234374,-1.0393652600586414,-0.0477294271633029,0.7152072479560971
1772459227123518000,10.58351806640625,-1.1122387730896472,-0.031304288997873665,0.7812517186846584
1772459227133516000,10.59351611328125,-1.1018202549278735,0.02581898945458233,0.7857558982361108
1772459227143513000,10.60351318359375,-0.9900286899596452,0.15813165666498244,0.6960773078113794
1772459227153510100,10.61351025390625,-0.8114443931788206,0.3308981340125203,0.5561548231843859
1772459227163507000,10.6235068359375,-0.6289473068684339,0.5059964883737266,0.4567821564149111
1772459227173504000,10.63350390625,-0.4626566744714975,0.6943047451809048,0.35657216203846037
1772459227183502000,10.643502197265626,-0.15171324099004269,0.8798204486601054,0.2244865815822035
1772459227193499100,10.6534990234375,0.25724925269484517,0.9658078564167022,0.06588314268700778
1772459227203496200,10.66349609375,0.6264268484801053,0.9835523335523902,-0.05013583071790635
1772459227213493000,10.673492919921875,1.0306073685854673,0.9715223616059869,-0.05762888988703489
1772459227223490000,10.683489990234374,1.3342144678294658,0.9070505470216274,0.11761990579552947
1772459227233488100,10.693488037109375,1.5277537571579216,0.7941570121608674,0.3727497551836073
1772459227243485200,10.703485107421875,1.697183272102475,0.6749938955113292,0.5795732543032616
1772459227253482000,10.71348193359375,1.8042139062792062,0.5315872950956225,0.7839135583050548
1772459227263479000,10.72347900390625,1.872344608697295,0.35650603799968955,0.9761644883234053
1772459227273476000,10.73347607421875,1.7950187924325465,0.21549057050421833,1.2046414547160267
1772459227283474200,10.74347412109375,1.6929858204126358,0.07221475686132907,1.4185301429815589
1772459227293471000,10.753470947265624,1.6921633981138466,0.01611687593385577,1.6825483052894472
1772459227303468000,10.763468017578125,1.4904729510337114,-0.0779876411743462,1.7978318040266632
1772459227313465000,10.773465087890624,1.161503446996212,-0.19231909988373516,1.8893645709507165
1772459227323462000,10.7834619140625,1.0189677841961384,-0.2165313117288053,1.8568886808902023
1772459227333460000,10.7934599609375,0.808854961207509,-0.16116218346729874,1.7373299890518188
1772459227343457000,10.80345703125,0.36441608047187324,-0.13162117781490087,1.634620871336013
1772459227353454000,10.8134541015625,-0.04759761747717857,-0.08415741585046052,1.5642577336907386
1772459227363451000,10.823450927734376,-0.38325112932324407,0.06144041099920868,1.5012977119088171
1772459227373448200,10.8334482421875,-0.6414578288733959,0.2848319638863206,1.4085206440120934
1772459227383445000,10.843445068359374,-0.797019561985135,0.49637233546003695,1.3208651569128036
1772459227393443000,10.853443115234375,-0.8873895687401294,0.6668197952754795,1.1791780007008463
1772459227403439900,10.86343994140625,-1.013246483939886,0.8260755605995654,0.9979332525391131
1772459227413437200,10.873437255859375,-0.8183382443457842,0.9233937790572643,0.7355895262494683
1772459227423434000,10.88343408203125,-0.5374322217315435,0.9403159800246358,0.45163821765519674
1772459227433431000,10.89343115234375,-0.325680399364233,0.9442290618151425,0.3138701345831156
1772459227443429000,10.90342919921875,-0.14384265374541283,0.885183144737035,0.29211401065327225
1772459227453426200,10.91342626953125,0.1043687214910984,0.7306063310094177,0.3427001424219459
1772459227463423000,10.923423095703125,0.3366378467082977,0.5484231329537927,0.43252215990535914
1772459227473420000,10.933419921875,0.43499651412963863,0.3696817459151149,0.5817074167877435
1772459227483417000,10.9434169921875,0.49009647006094453,0.18479864125102757,0.7485348594751209
1772459227493415200,10.953415283203125,0.5279471850275993,-0.04060293628424406,0.8503158294953406
1772459227503412000,10.963411865234375,0.5397954437315464,-0.25205241470411416,0.8805316656693816
1772459227513409000,10.973408935546875,0.546974541580677,-0.45564811088368296,0.8534065620522946
1772459227523403300,10.9834033203125,0.530215714481473,-0.625729075474292,0.8171263843379915
1772459227533400000,10.993400146484374,0.5131359848648309,-0.7691315842367709,0.8415216245997696
1772459227543398100,11.003398193359375,0.5063572845101356,-0.8871243419326841,0.8774365491982549
1772459227553395000,11.01339501953125,0.5047469267040491,-0.953375221953541,0.8583044170964509
1772459227563392300,11.023392333984376,0.4362608349770307,-0.9495448500104248,0.8142982482399791
1772459227573389000,11.03338916015625,0.35451661774814125,-0.918883754286915,0.7548555869292467
1772459227583386000,11.04338623046875,0.291737213230133,-0.9109719582490623,0.7109376808781176
1772459227593384000,11.053384033203125,0.19075871869921684,-0.9433188151024281,0.6925093131314962
1772459227603381200,11.06338134765625,0.09905074133872985,-0.9499874792113899,0.6931480494264513
1772459227613378000,11.0733779296875,0.05038111071586609,-0.892199160978943,0.6547722876723855
1772459227623375000,11.083375,-0.00883563288450241,-0.7790642916429787,0.6010608634900302
1772459227633372200,11.0933720703125,-0.10418401257395744,-0.7476055427357554,0.5507441232472657
1772459227643369200,11.103369140625,-0.24031214641928672,-0.7644320282436907,0.5193129199340939
1772459227653367000,11.113366943359376,-0.3613584464669227,-0.7319674632947891,0.47676286817006763
1772459227663364000,11.123364013671875,-0.4169792114019394,-0.6514981613725424,0.40181854021437463
1772459227673361200,11.133361083984376,-0.46039457475841045,-0.6137922617040574,0.338183322584629
1772459227683358200,11.143358154296875,-0.5215647905141115,-0.6436402874790131,0.32826858922652896
1772459227693355000,11.15335498046875,-0.516250317493081,-0.6854704274706542,0.32051037631519136
1772459227703353000,11.16335302734375,-0.5524421593368053,-0.6422108391977847,0.39480055121108887
1772459227713350100,11.17335009765625,-0.620720745792985,-0.5337734069630503,0.4711303421758115
1772459227723347200,11.18334716796875,-0.6725345196604728,-0.42638168438896534,0.5002594060264528
1772459227733344000,11.193343994140625,-0.6534224074333905,-0.38106238710731266,0.5145061041742562
1772459227743341300,11.20334130859375,-0.6204729085117578,-0.38697014984637496,0.5045674419512972
1772459227753339100,11.213339111328125,-0.5354419246971607,-0.4254034870065748,0.47750886423178013
1772459227763336200,11.223336181640626,-0.427377271297574,-0.5944415184155106,0.5264411278462037
1772459227773333000,11.2333330078125,-0.36130525497496124,-0.8709836467318236,0.6705233259685337
1772459227783330300,11.243330322265624,-0.3951525795191526,-1.0495290728069842,0.7960028592232614
1772459227793327000,11.2533271484375,-0.5501829822331666,-1.098706799082458,0.8865468343056738
1772459227803325200,11.2633251953125,-0.7394827342957258,-1.1290794332534073,0.9810700882826
1772459227813322000,11.273322021484375,-0.9563999766021967,-1.0967977505907416,1.015938280307129
1772459227823319300,11.2833193359375,-1.1260592086493968,-0.9619970659568905,0.8881352725408971
1772459227833316000,11.293316162109376,-1.2290981428414582,-0.688528499867022,0.5738914092745632
1772459227843313200,11.303313232421875,-1.2487106058061122,-0.30142697872594,0.1958584347247146
1772459227853311000,11.31331103515625,-1.1270125638514756,0.06298603300601244,-0.08608272135723381
1772459227863308300,11.323308349609375,-0.9154156397849321,0.2936120671913028,-0.2240209368318319
1772459227873305000,11.33330517578125,-0.6302332550257445,0.4839110594242811,-0.33707539787534624
1772459227883302100,11.34330224609375,-0.38059447733461854,0.6712191992782056,-0.4287900972375646
1772459227893299200,11.35329931640625,-0.21222879222929478,0.8508207102775573,-0.4527073447240516
1772459227903297300,11.36329736328125,-0.018584873482584953,0.9591843466237187,-0.443774242814444
1772459227913294000,11.373294189453125,0.19264906249046324,1.0045892763622104,-0.40774603056721387
1772459227923291100,11.383291015625,0.39235271966755386,0.9787354347899555,-0.3944749725185334
1772459227933288200,11.3932880859375,0.5478641838967799,0.9302588425211608,-0.40213023651205
1772459227943285000,11.403284912109376,0.6659907971054315,0.9039088879950344,-0.41767570576611907
1772459227953282000,11.413281982421875,0.6862409734517335,0.9052651249095797,-0.39567788203489035
1772459227963280100,11.423280029296874,0.6671306147903203,0.9211759568773209,-0.35614078488387163
1772459227973277200,11.433277099609375,0.6606342385083437,0.9140539960429072,-0.33321740727294236
1772459227983274000,11.44327392578125,0.6182914728194475,0.8481091132313012,-0.2784279420629144
1772459227993271000,11.45327099609375,0.5902689089059829,0.8212934408895671,-0.22480516427839173
1772459228003268000,11.46326806640625,0.6115256319463253,0.8464503862388432,-0.15263243819419295
1772459228013266200,11.47326611328125,0.5537392134100199,0.8367194119498134,-0.11490257312823086
1772459228023263200,11.48326318359375,0.4209469459891319,0.7400359842643142,-0.09176388139934279
1772459228033260000,11.493260009765624,0.3011106062531471,0.603841361054033,-0.11285817128643393
1772459228043257000,11.503257080078125,0.2556669519394636,0.49299599089473484,-0.15859039675053208
1772459228053254100,11.513254150390624,0.23995266545712945,0.39776246975660323,-0.16000377067979424
1772459228063252200,11.523252197265625,0.26241291906833647,0.312880831284821,-0.13684715056857094
1772459228073249000,11.5332490234375,0.3128215023130178,0.20349588906690477,-0.07131243772674352
1772459228083246000,11.54324609375,0.3350637292593717,0.11572364372014998,-0.12320328628527931
1772459228093243100,11.5532431640625,0.24893793594539165,0.1348496383421123,-0.16515912588266654
1772459228103240000,11.563239990234376,0.16043372306227682,0.19196224927008151,-0.22297957455273718
1772459228113238000,11.573238037109375,0.09890285730063915,0.211624104334414,-0.27179170065252106
1772459228123235000,11.583235107421874,0.14989771600067614,0.18134689336195586,-0.3152543189505115
1772459228133232000,11.593232177734375,0.22303894005715846,0.13175693302378058,-0.35234073501378294
1772459228143229000,11.60322900390625,0.23469781366884707,0.0679740505516529,-0.37804402566682543
1772459228153226200,11.613226318359375,0.3858142578095197,-0.017512129684537647,-0.3901685805615037
1772459228163224300,11.623224365234375,0.5465624536484479,-0.13119871461912988,-0.34681185205709186
1772459228173221000,11.63322119140625,0.5646288562148809,-0.22168211862072348,-0.40507103920429943
1772459228183218000,11.643218017578125,0.4531593628078699,-0.19938991505280135,-0.46703302639219907
1772459228193215200,11.65321533203125,0.5228326184928417,-0.16167619740404188,-0.49098172846287486
1772459228203212000,11.6632119140625,0.6751058314532041,-0.21823855403810738,-0.5115710371030494
1772459228213210000,11.673210205078124,0.6935387292444706,-0.32796113071255384,-0.42739714504182336
1772459228223207000,11.68320703125,0.6035135904043912,-0.4708468490593135,-0.28366105694342403
1772459228233204200,11.693204345703125,0.6716285107314586,-0.6547378008808941,-0.21583900034939868
1772459228243201000,11.703200927734375,0.642791123303771,-0.7431393571071326,-0.21839045666418969
1772459228253198000,11.713197998046875,0.5675292538315058,-0.6987294297553599,-0.20343345482256261
1772459228263196000,11.72319580078125,0.5061871886402368,-0.6031857466895133,-0.20811123737525195
1772459228273193200,11.733193115234375,0.4564443758279085,-0.5669739580363035,-0.25384415695909407
1772459228283190000,11.74318994140625,0.4843909518957138,-0.5695341639131307,-0.2930262118610553
1772459228293187000,11.75318701171875,0.4027174618154764,-0.5681413943804801,-0.340824192482233
1772459228303184100,11.76318408203125,0.33748832605779167,-0.5651987650573254,-0.36945023871418087
1772459228313182200,11.77318212890625,0.2542839731484651,-0.5601211695320903,-0.34538393814582374
1772459228323179000,11.783178955078125,0.04908756377398967,-0.578674040441215,-0.33237025239169593
1772459228333176000,11.793176025390625,-0.3002139496743679,-0.6224392401486635,-0.35096754696443677
1772459228343173000,11.803173095703125,-0.25930326261520387,-0.6553561519749462,-0.3781403256481513
1772459228353170200,11.813170166015626,-0.19391162977218626,-0.6236446704156696,-0.5026332955509424
1772459228363168000,11.82316796875,-0.18985621690154075,-0.5531998458363115,-0.5670859670434146
1772459228373165000,11.8331650390625,-0.20091712462008,-0.45915655739605427,-0.5475300565715879
1772459228383162000,11.843162109375,-0.22543606432676314,-0.3992274277426302,-0.5022797328729183
1772459228393159200,11.8531591796875,-0.2388566869139671,-0.37867797618880866,-0.48236660646125673
1772459228403156000,11.863156005859375,-0.296039878860116,-0.3620905601337552,-0.48003451025187965
1772459228413153300,11.8731533203125,-0.4356733904778957,-0.3498758062049746,-0.4112540386881679
1772459228423151000,11.883151123046876,-0.5644225199878216,-0.342726518972218,-0.3670187737835571
1772459228433148200,11.893148193359375,-0.6269301218271255,-0.3301360635988414,-0.38406303022801874
1772459228443145000,11.90314501953125,-0.6523971560388803,-0.3157883892945945,-0.3880441357534379
1772459228453142300,11.913142333984375,-0.6015554420739412,-0.34963761353492734,-0.33700273449793455
1772459228463139000,11.92313916015625,-0.5548217479497194,-0.47213864243552084,-0.27196099280482156
1772459228473137200,11.93313720703125,-0.6583955196708441,-0.4682280448630452,-0.3089484237393364
1772459228483134000,11.943134033203124,-0.8129074514687061,-0.31724414106085896,-0.3025295331403613
1772459228493131300,11.95313134765625,-0.8436655778259038,-0.24626053342968224,-0.23879615236576646
1772459228503128000,11.963128173828125,-0.8832587525457143,-0.3148779964514076,-0.11211349039897323
1772459228513125000,11.973125,-1.0497755949139593,-0.4630604329667985,0.06487849568910896
1772459228523122400,11.983122314453125,-1.202341653341055,-0.4501350465506315,0.14647855520695446
1772459228533119700,11.99311962890625,-1.2503408373564482,-0.25864450644552706,0.251956333918497
1772459228543116500,12.003116455078125,-1.2477648493885993,-0.13761968757733703,0.464479469451867
1772459228553113300,12.01311328125,-1.281732585442066,-0.14419643561914564,0.6554865003563464
1772459228563110700,12.023110595703125,-1.347343998515606,-0.14313187512755393,0.7507839535761625
1772459228573108700,12.033108642578124,-1.3352023098230361,-0.018963351406157014,0.7605206269536167
1772459228583105500,12.04310546875,-1.2335124521523713,0.17153014048561452,0.7224984278775751
1772459228593102300,12.053102294921874,-1.0507605142980814,0.3519048278145492,0.6680827278833836
1772459228603099600,12.063099609375,-0.8419733869552611,0.4394539319299161,0.6535607929907739
1772459228613096400,12.073096435546875,-0.6299117679864168,0.521635663793236,0.6339744143154472
1772459228623094500,12.083094482421876,-0.36289456999301906,0.6655689184315502,0.6447231142796576
1772459228633091300,12.09309130859375,-0.08089841405451298,0.8495126964189111,0.6744039667941629
1772459228643088600,12.103088623046874,0.22932079680562018,0.9862294438071548,0.6876178878281265
1772459228653085400,12.11308544921875,0.4826911622405052,1.119886511363834,0.7329920571021735
1772459228663082500,12.12308251953125,0.7277560561448335,1.242134296155721,0.8092188991490751
1772459228673080300,12.133080322265625,0.9343225848287343,1.284481884150207,0.8847026677437126
1772459228683077600,12.14307763671875,1.0930156017035246,1.178172842246294,0.9427835391819477
1772459228693074400,12.153074462890626,1.3140952243864537,0.9802756499692797,1.0379852038770914
1772459228703071500,12.163071533203125,1.489069513976574,0.8331567510321736,1.1425133537136019
1772459228713068500,12.173068603515626,1.5039257223248481,0.7678250316828489,1.3034373445108531
1772459228723065600,12.183065673828125,1.3999112210988998,0.7382330264955759,1.4769544210299848
1772459228733063400,12.1930634765625,1.1587895118623972,0.6798635473743081,1.6968069861359893
1772459228743060500,12.203060546875,0.853863146713376,0.495594629085809,1.95256789996922
1772459228753057500,12.2130576171875,0.6390998675704002,0.22349530552253125,2.0798618622347713
1772459228763054600,12.2230546875,0.5221498969256878,0.006376110903173685,2.0978756578311324
1772459228773051400,12.233051513671874,0.43707098231613634,-0.10297434452325105,2.014076700029522
1772459228783049500,12.243049560546876,0.34008184968233107,-0.0985521441668272,1.8599802171647548
1772459228793046500,12.253046630859375,0.23004735751450062,0.003729541917145252,1.6861181266002356
1772459228803043600,12.263043701171876,0.09933949515223503,0.1550619668960571,1.5090337129883467
1772459228813040400,12.273040283203125,-0.11603051771223545,0.34763211893141266,1.3702081567525863
1772459228823037700,12.28303759765625,-0.3558224396497011,0.523341152536869,1.2125012283056973
1772459228833035500,12.293035400390625,-0.5023316822558641,0.6638819882579148,1.0145210339203476
1772459228843032600,12.303032470703124,-0.4970546186357736,0.8087269509136676,0.7944074797905981
1772459228853029400,12.313029296875,-0.4416898742884397,0.9463784949339926,0.6594891601264476
1772459228863026700,12.323026611328125,-0.25658523582816123,1.039797367865592,0.536063782922551
1772459228873023500,12.3330234375,-0.046935938698053355,1.0881019645683467,0.3669339815769344
1772459228883021600,12.343021484375,0.14572481423020361,1.1049230432488024,0.20971198710277675
1772459228893018400,12.353018310546876,0.2854080102086067,1.0416652075640858,0.11139124053902924
1772459228903015700,12.363015625,0.42890988769233224,0.9109016694918274,0.10461217485815286
1772459228913012500,12.373012451171874,0.6770522893458605,0.7851355013154446,0.1384291042640805
1772459228923009500,12.383009521484375,0.8568295953035354,0.6316850612692535,0.3062964113932103
1772459228933007400,12.39300732421875,0.9401631275504827,0.4178190232269466,0.5421786125410348
1772459228943004700,12.403004638671876,1.0037988566368818,0.19527809581980107,0.6694440793644636
1772459228953001500,12.41300146484375,1.0191957477331162,-0.01959156630709767,0.776344511290267
1772459228962998500,12.42299853515625,0.972376713413,-0.24893048329129813,0.8783765334621071
1772459228972995600,12.43299560546875,0.9699749129682779,-0.4430763602107763,0.9498954900790005
1772459228982993700,12.44299365234375,1.0004372712492942,-0.612592968916893,1.0304470634572207
1772459228992990500,12.452990478515625,1.044711297261715,-0.749073131070286,1.0670342612940817
1772459229002987500,12.462987548828124,1.0001274746477604,-0.7925925393231212,1.077321627356857
1772459229012984600,12.472984619140625,0.89663904312253,-0.8158762381464243,1.0740580955162644
1772459229022981600,12.482981689453124,0.7379886963456869,-0.8640360195510088,1.066613259403035
