time,seconds_elapsed,z,y,x
1772025763309313500,0.0803134765625,-0.7100625785440207,-1.0457473623111844,1.1528935126263649
1772025763319310600,0.090310546875,-0.6822539496421813,-1.0879331838726998,1.1699928237263113
1772025763329307600,0.1003076171875,-0.5688356602549552,-0.8124702290952205,1.0577453316841274
1772025763339305700,0.1103056640625,-0.5836673186838627,-0.6792632433936,0.9414605469498782
1772025763349302500,0.120302490234375,-0.7597393403828143,-0.7859048782527446,0.9719895407263189
1772025763359299600,0.130299560546875,-0.9149304866164922,-0.8887608570933342,0.9795957048811018
1772025763369297400,0.14029736328125,-0.8727396966189146,-0.8126941009789704,0.9128383366428315
1772025763379294700,0.150294677734375,-0.7588479445010423,-0.5716209070593118,0.7470771349474787
1772025763389291500,0.16029150390625,-0.6244102479606867,-0.36466800940632815,0.5392190320830792
1772025763399289600,0.17028955078125,-0.5078735342919827,-0.24131752406954765,0.39301158543508496
1772025763409286400,0.180286376953125,-0.4272779025763273,-0.05746083984375,0.3262657249715179
1772025763419284500,0.190284423828125,-0.3848316765129566,0.164659524063766,0.2794630937969312
1772025763429281500,0.200281494140625,-0.40625674185752864,0.3328276407703757,0.1740553481142968
1772025763439278600,0.210278564453125,-0.4304577016562223,0.4229457185909152,-0.013357457690499723
1772025763449276400,0.2202763671875,-0.3767886553108692,0.4869131638497114,-0.2379201001835987
1772025763459273500,0.2302734375,-0.26851766568422314,0.5480278500258923,-0.47512858149912207
1772025763469270500,0.2402705078125,-0.12008768414855002,0.6506511891543865,-0.6795762548655271
1772025763479273000,0.25027294921875,0.01622340504825115,0.8100412483826279,-0.8464571082405745
1772025763489270000,0.26027001953125,0.12603870150744914,0.9197235661119222,-0.9288782018177211
1772025763499266800,0.270266845703125,0.24131167885065077,0.9232742443308234,-0.9746636553063988
1772025763509265000,0.280264892578125,0.25903145993649956,0.862641788713634,-1.0185969781223685
1772025763519262000,0.290261962890625,0.2935603370040655,0.7753323385730385,-1.06036077487953
1772025763529260000,0.300260009765625,0.42816345323920246,0.7481573313996195,-1.076436149759218
1772025763539256800,0.3102568359375,0.5634674112200737,0.7681821745574474,-1.085505226073414
1772025763549254000,0.32025390625,0.5832715973645448,0.7132669275432825,-1.0216888797231019
1772025763559252000,0.330251953125,0.42519758917093275,0.6493725475206971,-0.971979530788958
1772025763569249000,0.3402490234375,0.3948211556077003,0.6281231310039759,-0.914572028567642
1772025763579246000,0.35024609375,0.5286451041638851,0.566202681402862,-0.888331379634887
1772025763589244000,0.360243896484375,0.6247504397004843,0.4286252255320549,-0.8359330838777125
1772025763599241000,0.370240966796875,0.612221797516942,0.2978270545378327,-0.749621412602812
1772025763609238000,0.380238037109375,0.5495680652052164,0.27500673544257875,-0.6741075411308557
1772025763619236000,0.390236083984375,0.5201829807668924,0.3549503329902887,-0.6940780968181789
1772025763629233000,0.40023291015625,0.4984317522078752,0.43158933603465555,-0.6772058724723756
1772025763639230000,0.41022998046875,0.411647787246108,0.46896863409727807,-0.6806850198250264
1772025763649227800,0.420227783203125,0.25412673676013947,0.4233864480957389,-0.7104856262616813
1772025763659225000,0.43022509765625,0.19693594602942466,0.3878153684988618,-0.847443927320838
1772025763669223000,0.440222900390625,0.3271498873949051,0.417610202781856,-0.9968507179994136
1772025763679220000,0.450219970703125,0.45192835970818995,0.4197042524516582,-1.0541318904273211
1772025763689216800,0.460216796875,0.4781634556829929,0.33309038335978985,-1.0345604901254177
1772025763699214800,0.47021484375,0.5554945326447487,0.2568637605085969,-0.9570815291255712
1772025763709212000,0.4802119140625,0.5971066459715366,0.20949586013406513,-0.8153844360414892
1772025763719209000,0.490208984375,0.6250818636119365,0.12701076140999792,-0.7286258247166871
1772025763729207000,0.50020703125,0.6413590446740388,-0.0011579378634691238,-0.6569780540883541
1772025763739203800,0.510203857421875,0.6389706882327795,-0.14150573523044585,-0.5731078576814383
1772025763749201000,0.520200927734375,0.6678717885464429,-0.3317749168470502,-0.4560901555627584
1772025763759199000,0.530198974609375,0.5629115309029817,-0.47057226990163326,-0.4145774109572172
1772025763769196000,0.540196044921875,0.3973673329591751,-0.5657645822465419,-0.36509357787463814
1772025763779193900,0.55019384765625,0.3494996663689613,-0.6590592442765831,-0.37097843466214836
1772025763789191000,0.56019091796875,0.3152893537312746,-0.7388131644710898,-0.45737445975225416
1772025763799188000,0.57018798828125,0.30780981163084503,-0.7951257110625505,-0.4080851993937045
1772025763809186000,0.58018603515625,0.2012649151444435,-0.8067857537180185,-0.3145203055875376
1772025763819182800,0.590182861328125,0.08269991051852703,-0.7791001666739582,-0.32693277404550464
1772025763829180000,0.600179931640625,0.14078443521857262,-0.725032184138894,-0.4092002479635179
1772025763839177700,0.610177734375,0.21353227604329586,-0.6507049651682376,-0.5744967547565698
1772025763849175000,0.620175048828125,0.24638299076557157,-0.5734542599663138,-0.6565608515895903
1772025763859171800,0.630171875,0.21907354355752467,-0.49838411367386576,-0.6349268196694553
1772025763869170000,0.640169921875,0.23386954615116118,-0.4480798675864935,-0.600652209623903
1772025763879166700,0.650166748046875,0.26411621585488315,-0.40887452314049005,-0.5700738237477838
1772025763889164000,0.6601640625,0.25301146899461746,-0.39299481696337457,-0.5357728371519596
1772025763899161900,0.670161865234375,0.2765507500141859,-0.3558253622591495,-0.5177604297950864
1772025763909159000,0.680158935546875,0.3150736651539802,-0.3325914939269423,-0.5434339463643729
1772025763919157000,0.690156982421875,0.2496931382268667,-0.33812808526605365,-0.5265230705086141
1772025763929153800,0.70015380859375,0.14905658900141716,-0.3879854643687606,-0.4455385856058448
1772025763939150800,0.71015087890625,0.05021744458675384,-0.46481911320239305,-0.39340018289387224
1772025763949149000,0.72014892578125,0.0046808512926101685,-0.5131617038279771,-0.41398090636879203
1772025763959146000,0.73014599609375,-0.08153203578293323,-0.5077022693783044,-0.48876675582714374
1772025763969143000,0.74014306640625,-0.20090952583551405,-0.4902367553144693,-0.5296014550406486
1772025763979141000,0.75014111328125,-0.3040139264792204,-0.5010922035887837,-0.5903893204152584
1772025763989138000,0.760137939453125,-0.4248515522122383,-0.4920733230918646,-0.6401277493134141
1772025763999135000,0.770135009765625,-0.6043669923633337,-0.4052922807395458,-0.7848000588160008
1772025764009132800,0.7801328125,-0.6584510492503642,-0.33743279647827146,-0.9067741412330418
1772025764019130000,0.790130126953125,-0.6847592104613781,-0.3348901262581348,-0.9524126605316996
1772025764029127000,0.800126953125,-0.6937731225222349,-0.42615883541852234,-0.8863459779713302
1772025764039125000,0.810125,-0.7050012035012245,-0.6805912771269679,-0.6243972423486411
1772025764049121800,0.820121826171875,-0.8356529517620801,-0.807320006725192,-0.3603293226148933
1772025764059119900,0.830119873046875,-1.0236223320037126,-0.6631026744484901,-0.28103651712611316
1772025764069117000,0.840116943359375,-1.1172539709031581,-0.5448877984344959,-0.2553678959276527
1772025764079114000,0.850114013671875,-1.295194709083438,-0.46984717049747704,-0.2432157589063048
1772025764089112000,0.860112060546875,-1.51097213370502,-0.42446489098221063,-0.20066176161952315
1772025764099108900,0.87010888671875,-1.58501293694973,-0.3840571850091219,-0.1477817467600107
1772025764109106000,0.88010595703125,-1.4607044202357529,-0.28559534947425125,-0.13426328982152044
1772025764119104000,0.89010400390625,-1.3083330075979231,-0.08442220426648854,-0.14648944192714988
1772025764129101000,0.90010107421875,-1.240426761585474,0.06480769547522068,-0.12758461577519772
1772025764139097900,0.910097900390625,-1.1899883677244185,0.0518947301492095,-0.11685834683850407
1772025764149096000,0.920095947265625,-1.1298866579830646,-0.010940203948318957,-0.10249233315996825
1772025764159093000,0.930093017578125,-1.1101701501220465,-0.02258212642520666,0.007285042441636323
1772025764169091000,0.940091064453125,-1.1170113943189381,0.052044660013914106,0.09337510685510933
1772025764179088000,0.950087890625,-1.0570745197504758,0.1276531509667635,0.1919021896459162
1772025764189085000,0.9600849609375,-0.8854191454499959,0.16825345690250396,0.2650899562578648
1772025764199082800,0.970082763671875,-0.6930430546820163,0.21390637005269525,0.24854097251705823
1772025764209080000,0.980080078125,-0.47891398178935046,0.34790392161011696,0.241672182726115
1772025764219076900,0.990076904296875,-0.23526129277050495,0.5515425801485777,0.19139833177700638
1772025764229075000,1.000074951171875,0.024509587356448172,0.799880504374206,0.12017331660538912
1772025764239071700,1.01007177734375,0.2965706247359514,1.0469216667875647,0.07733531474545598
1772025764249069000,1.020069091796875,0.5826748005151748,1.2167103704333304,0.07476181099563836
1772025764259067000,1.03006689453125,0.8707061449646949,1.2803943225756287,0.10406798497885465
1772025764269064000,1.04006396484375,1.0996084240972994,1.2628019672617314,0.17510361505821345
1772025764279060700,1.050060791015625,1.2350754636853933,1.194295709529519,0.22259879507422445
1772025764289058800,1.060058837890625,1.2884686156988143,1.0741998420745134,0.3943699047088623
1772025764299055900,1.070055908203125,1.2782926741212606,0.9804656195834278,0.6014002515122294
1772025764309054000,1.080053955078125,1.145222174280882,0.9243313521683215,0.7274452366299927
1772025764319051000,1.090051025390625,1.0036235000699758,0.7886305038243532,0.777293409512937
1772025764329047800,1.1000478515625,0.8793757736325264,0.5270078583508729,0.825682761889696
1772025764339046000,1.1100458984375,0.746062112686038,0.28022359330803154,0.9043146923169493
1772025764349043000,1.12004296875,0.5616758516281842,0.11679887173622847,1.0025875811509788
1772025764359040000,1.1300400390625,0.40295653126835823,-0.02255553067922592,1.097661527813226
1772025764369037800,1.140037841796875,0.31385785962343216,-0.11528466778099536,1.1050107215322553
1772025764379035000,1.150034912109375,0.14074410320818423,-0.13062602929770945,1.0565974037580192
1772025764389032000,1.160031982421875,-0.03861059342324733,-0.04708908343315124,0.9035380088560283
1772025764399030000,1.170030029296875,-0.2510749479740858,0.10829174015372992,0.7905955202870071
1772025764409026800,1.18002685546875,-0.5581792416840792,0.2738616570606828,0.6387218280382454
1772025764419024000,1.19002392578125,-0.7679168016195297,0.4043044387459755,0.4015983215924352
1772025764429022000,1.20002197265625,-0.7457102305084466,0.49865474730879067,0.016128858632594344
1772025764439019000,1.21001904296875,-0.5978875672161579,0.5534150960221886,-0.20584077169261872
1772025764449016800,1.220016845703125,-0.30283962200284004,0.6150228264123201,-0.3551012857683003
1772025764459014000,1.230013916015625,-0.034626492223143575,0.6570853138551116,-0.5162645652141422
1772025764469011000,1.240010986328125,0.2375596328407526,0.6520251078560948,-0.6240690333075821
1772025764479005400,1.25000537109375,0.4753852231413126,0.6289420461714267,-0.5649420138172805
1772025764489002500,1.26000244140625,0.5279787492096424,0.5739081412136554,-0.3509818677507341
1772025764498999300,1.269999267578125,0.47912031801640986,0.4414613262295723,-0.018137568106502293
1772025764508997400,1.279997314453125,0.5397656331151723,0.29726211413145065,0.22273776515349744
1772025764518994400,1.289994384765625,0.6655541592538357,0.18289222310781478,0.35286928893253205
1772025764528991500,1.299991455078125,0.7154810964614152,0.07039338665306567,0.4975190212771296
1772025764538989600,1.309989501953125,0.7356371647834777,-0.04093640602231025,0.5995062544591725
1772025764548986400,1.319986328125,0.7338900288552045,-0.1448544611364603,0.7000885892793536
1772025764558983400,1.3299833984375,0.6787585087418556,-0.21848872940689323,0.8229090593926608
1772025764568981500,1.3399814453125,0.6819535053908824,-0.2889890835657716,0.8927418895535171
1772025764578978600,1.349978515625,0.6778115832805633,-0.3472650391846895,0.8840269604392349
1772025764588976400,1.359976318359375,0.5935889932394027,-0.3784039815530181,0.8440100073494017
1772025764598973400,1.369973388671875,0.48057519299983975,-0.4071992834046483,0.7470289118915796
1772025764608970500,1.379970458984375,0.3535001341819763,-0.427327002415061,0.6640523763887584
1772025764618968600,1.389968505859375,0.23129648079276083,-0.40945173850655553,0.5684483414378017
1772025764628965400,1.39996533203125,0.18159867616593836,-0.37199002285748717,0.4543238034773618
1772025764638962400,1.40996240234375,0.14618191034793854,-0.3548606088802218,0.35870479015298184
1772025764648960300,1.419960205078125,-0.012611059769988059,-0.3614952245891094,0.35165611375048755
1772025764658957600,1.42995751953125,-0.20664368557333945,-0.36284254754483697,0.387311875956133
1772025764668954400,1.439954345703125,-0.29999767657518384,-0.3093693160325289,0.3587720101702958
1772025764678952400,1.449952392578125,-0.3209977945059538,-0.25707272708415985,0.3085318422950804
1772025764688949200,1.45994921875,-0.3536222992569208,-0.22651158460378645,0.2826131918583065
1772025764698946600,1.469946533203125,-0.45943946599066254,-0.2050216373294592,0.3163243958674371
1772025764708944400,1.4799443359375,-0.5419423926323652,-0.21343962932378052,0.3717019996963441
1772025764718941400,1.48994140625,-0.4299526747435331,-0.22221008801758288,0.3637324821218848
1772025764728938200,1.499938232421875,-0.40766310152411456,-0.2504959790423512,0.44583705709576604
1772025764738936300,1.509936279296875,-0.4805366145551204,-0.2250347900494933,0.50654250488393
1772025764748933400,1.519933349609375,-0.30075580146610736,-0.15303484498262404,0.497491767944023
1772025764758931500,1.529931396484375,-0.17248773347139357,-0.16215660133212803,0.5321221326246858
1772025764768928500,1.539928466796875,-0.22277882781624792,-0.18850538681447504,0.598441401706636
1772025764778925300,1.54992529296875,-0.24914251860678194,-0.17776392030864954,0.6439196158770472
1772025764788923400,1.55992333984375,-0.1597989322900772,-0.17624416339546442,0.6363476462528109
1772025764798920400,1.56992041015625,-0.07506079394221306,-0.2266422252461314,0.5939478896796703
1772025764808917500,1.57991748046875,-0.0781786337018013,-0.23268062862753866,0.5981836275532841
1772025764818915300,1.589915283203125,-0.10559329484999179,-0.22535627708882092,0.6358457611452788
1772025764828912400,1.599912353515625,-0.08067220408320426,-0.2432838557064533,0.6543444907143712
1772025764838909400,1.609909423828125,-0.07981529499292374,-0.29861908169835805,0.6754589557398111
1772025764848907500,1.619907470703125,-0.12624445321261882,-0.4330155694454908,0.7520949631094932
1772025764858904300,1.629904296875,-0.20513912622928618,-0.6909121801331639,0.8949966096777469
1772025764868901400,1.6399013671875,-0.317580679538846,-0.9162406924322247,1.0084320693954825
1772025764878899500,1.6498994140625,-0.4002823436230421,-0.8583478909119964,0.964717796157673
1772025764888896500,1.659896484375,-0.4991477915227413,-0.7133011220738291,0.9027913552071899
1772025764898893300,1.669893310546875,-0.5719201822668314,-0.7476166486516594,0.8244551197908818
1772025764908891400,1.679891357421875,-0.5734539677053689,-0.8599047649651765,0.8010334738016128
1772025764918888400,1.689888427734375,-0.5908908401966094,-0.8697016440972686,0.8317999295957386
1772025764928886500,1.699886474609375,-0.5570347478240728,-0.7165896422252058,0.7195202157843857
1772025764938883600,1.709883544921875,-0.4311813397556543,-0.5466890026375651,0.5549875329706817
1772025764948880400,1.71988037109375,-0.32184885837733745,-0.4701318326577544,0.4351647468360141
1772025764958878500,1.72987841796875,-0.3090729634344578,-0.4821037177413702,0.3680795348828658
1772025764968875500,1.73987548828125,-0.3282452814161777,-0.40877953833341596,0.37327505769934505
1772025764978872600,1.74987255859375,-0.32981647625565524,-0.2570359022051096,0.3448604257283732
1772025764988870400,1.759870361328125,-0.2789174791455269,-0.12710457717329263,0.2503585798656568
1772025764998867500,1.769867431640625,-0.20732816070616245,-0.04291384357511997,0.13913579122871159
1772025765008864500,1.779864501953125,-0.15550912614166737,0.04795213000327348,0.0633577889278531
1772025765018862600,1.789862548828125,-0.13047230004072188,0.20121464626193045,0.020590769944898783
1772025765028859400,1.799859375,-0.10066577531993388,0.37539281703829763,-0.04390343913435936
1772025765038856400,1.8098564453125,-0.04651449841558933,0.5164937708601355,-0.09844104847516864
1772025765048854300,1.819854248046875,0.04352116181850433,0.634512247519195,-0.18795440186820922
1772025765058851600,1.8298515625,0.03287935629487038,0.7274579499810934,-0.22247524175979197
1772025765068848400,1.839848388671875,-0.013773673808574676,0.7499258023768663,-0.26211097697969526
1772025765078846500,1.849846435546875,0.07268646602630614,0.7472770414337515,-0.29890191722773013
1772025765088843300,1.85984326171875,0.10537468366324901,0.8017498053774237,-0.33140929840505123
1772025765098841300,1.86984130859375,0.05137129079699516,0.8288573002725839,-0.393858265392296
1772025765108838400,1.87983837890625,0.059226680472493166,0.7751847467958927,-0.4804048048689961
1772025765118835500,1.88983544921875,0.06769289552271365,0.6795832691282033,-0.5162512308085337
1772025765128833500,1.89983349609375,0.03239128051698208,0.642500323663652,-0.522716298636794
1772025765138830300,1.909830322265625,0.0245955120742321,0.7061559264943004,-0.5514833973072469
1772025765148827400,1.919827392578125,0.08743336878120898,0.7520601840570569,-0.5576173700176179
1772025765158825500,1.929825439453125,0.1409977857083082,0.7194523381799459,-0.6103716396056116
1772025765168822500,1.939822509765625,0.2504693832963705,0.7000202002182603,-0.6550583380721509
1772025765178819300,1.9498193359375,0.3855056302517652,0.7145400162190199,-0.6386490550629794
1772025765188817400,1.9598173828125,0.48164136092662807,0.6938388812348246,-0.6048140054784715
1772025765198814500,1.969814453125,0.5179916082024574,0.6677931703522801,-0.5813502008479088
1772025765208811500,1.9798115234375,0.5242366400718689,0.6782213331252336,-0.4894893710132688
1772025765218809300,1.989809326171875,0.5219277786076069,0.6899573636263608,-0.33533312078528105
1772025765228806400,1.999806396484375,0.4646124847143888,0.7079013088569045,-0.30284049878567454
1772025765238803500,2.009803466796875,0.4307452864259481,0.7242530164599418,-0.34906441675685346
1772025765248801500,2.019801513671875,0.4523258345931768,0.7208285949692129,-0.3673435852911323
1772025765258798300,2.02979833984375,0.43108489364385605,0.7586641123667359,-0.3632801352445036
1772025765268796400,2.03979638671875,0.39092823982238767,0.7821972559064626,-0.3396703462719917
1772025765278793200,2.049793212890625,0.4906991121292114,0.7668760603949427,-0.35059476812928914
1772025765288790500,2.05979052734375,0.6814250976026058,0.6754840171158313,-0.37360812557861206
1772025765298788400,2.069788330078125,0.7647586298495531,0.5741968950271606,-0.32106253030523657
1772025765308785400,2.079785400390625,0.6416904685854912,0.44130584340691564,-0.21065189830139278
1772025765318782200,2.0897822265625,0.6062479838043451,0.27022271603643894,-0.1267383011441678
1772025765328780300,2.0997802734375,0.6566916383624076,0.060388417728245256,-0.046999797714501614
1772025765338777600,2.109777587890625,0.6159083770751953,-0.176237441393733,-0.01810973025150597
1772025765348774400,2.1197744140625,0.5107575652956963,-0.4028460566312074,-0.061208940330892796
1772025765358772500,2.1297724609375,0.37811902713179585,-0.6078323303863405,-0.0636183395601809
1772025765368769300,2.139769287109375,0.2750041050940752,-0.7362091194525361,-0.08776318525746464
1772025765378766600,2.1497666015625,0.24442308886945247,-0.7791460516422987,-0.1612443087927997
1772025765388764400,2.159764404296875,0.24796412247717378,-0.8572396374091505,-0.004386106129735708
1772025765398761500,2.169761474609375,0.1484101077914238,-0.8507534902602434,0.015098200410604477
1772025765408758500,2.179758544921875,0.11470248397886752,-0.7573579982042312,-0.15872465412206946
1772025765418756600,2.189756591796875,0.2085936505973339,-0.7047901910990476,-0.3275063726823777
1772025765428753400,2.19975341796875,0.2787082203090191,-0.6727876176387071,-0.3750136084623635
1772025765438750500,2.20975048828125,0.25338088682889937,-0.5871332412287592,-0.3344638636700809
1772025765448748300,2.219748291015625,0.2842681925237179,-0.5099269596904515,-0.2657189018111676
1772025765458745600,2.22974560546875,0.33927170234322546,-0.48179362887889143,-0.20098317559361456
1772025765468743400,2.239743408203125,0.27404315110743044,-0.48315205775052306,-0.1712472318910062
1772025765478740500,2.249740478515625,0.1739244882762432,-0.485047077716887,-0.19620207879692314
1772025765488740000,2.259739990234375,0.13886077367961405,-0.4697375726431608,-0.21433248651027678
1772025765498738200,2.26973828125,0.03318155411183834,-0.43701749856323,-0.19139358253665267
1772025765508735500,2.279735595703125,-0.15397241809368134,-0.46234453978240486,-0.16507431540973483
1772025765518732300,2.289732177734375,-0.15944529654681683,-0.5017980137705803,-0.1864054188605398
1772025765528730400,2.29973046875,-0.27672259944975375,-0.5018026899456978,-0.21857640769034622
1772025765538727200,2.30972705078125,-0.36431028200984,-0.42573710287511346,-0.3095431382294744
1772025765548724500,2.319724365234375,-0.3048585606098175,-0.4447629981234669,-0.3111591951239854
1772025765558722300,2.329722412109375,-0.4712017999768257,-0.49545945839881894,-0.2947680322933942
1772025765568719400,2.33971923828125,-0.6111024380981922,-0.4378913587883115,-0.2994708031568676
1772025765578716200,2.349716064453125,-0.6183814891904592,-0.3646183250457048,-0.2972131604231894
1772025765588714200,2.35971435546875,-0.6623281829446553,-0.313423559859395,-0.37232195822559294
1772025765598711300,2.369711181640625,-0.729073568484187,-0.29324411066174505,-0.38906463790759443
1772025765608708400,2.379708251953125,-0.6929314110010862,-0.2777896441593766,-0.37959735605604944
1772025765618706200,2.3897060546875,-0.6159668292641639,-0.32403497024476524,-0.23958448973186314
1772025765628703200,2.399703125,-0.6270674844712019,-0.5125751361116767,-0.05623180950544774
1772025765638700300,2.4097001953125,-0.8401327275246381,-0.5227022701114415,-0.09816679811105132
1772025765648698400,2.419698486328125,-0.8873246868103742,-0.22148265052586794,-0.13482085063904523
1772025765658695200,2.429695068359375,-0.8245365144640207,-0.05408142653852701,-0.17658786226660012
1772025765668693200,2.439693359375,-0.8257353688597678,-0.16174305209517478,-0.22452610987499355
1772025765678690300,2.449690185546875,-0.7528273690372705,-0.1579383991152048,-0.11763364205993711
1772025765688687400,2.459687255859375,-0.6781324857980012,0.02154781494140625,0.024223317760974167
1772025765698685400,2.469685546875,-0.5657435394585132,0.16416092689186335,0.13810615592002867
1772025765708682200,2.47968212890625,-0.45327217553257937,0.25209464641064405,0.23409889792762695
1772025765718679300,2.48967919921875,-0.32769466179609297,0.2857780125647783,0.28954072609916326
1772025765728677400,2.499677490234375,-0.2504734749495983,0.28925884041786193,0.3714654875267297
1772025765738674400,2.50967431640625,-0.2932230678737163,0.260617852345109,0.4616568497791886
1772025765748671200,2.519671142578125,-0.39991000317931175,0.18655016109347342,0.5086722834542393
1772025765758669300,2.52966943359375,-0.4973340200990438,0.11351853489130735,0.4900204091500491
1772025765768666400,2.539666259765625,-0.5354851793169975,0.05670534530133008,0.43070225100181997
1772025765778663400,2.549663330078125,-0.4820616321653127,0.01360094759017229,0.3764499248757958
1772025765788661200,2.5596611328125,-0.42074002524018284,0.004521861338615417,0.341018253749609
1772025765798658300,2.569658203125,-0.3990788130521774,0.033875966116786,0.30917094391621647
1772025765808655400,2.5796552734375,-0.35006840616762636,0.1182782966390252,0.25850400199629364
1772025765818653400,2.5896533203125,-0.21844284443855283,0.21905250076949595,0.17605806623883544
1772025765828650200,2.599650146484375,-0.07226385670006275,0.3398863271102309,0.07522635976746678
1772025765838647300,2.609647216796875,0.0212450326025486,0.46121407444775103,0.0021733985163271425
1772025765848645000,2.61964501953125,0.12431143932342528,0.5328524927258491,-0.01024886068329215
1772025765858642400,2.629642333984375,0.31310031925439835,0.5442813569739461,0.0038077947851270434
1772025765868639200,2.63963916015625,0.4774497544556856,0.587752834431827,0.0066932140283286565
1772025765878637300,2.64963720703125,0.6085825642317533,0.6709864134356379,0.025392069279402494
1772025765888634000,2.659634033203125,0.7264473116338253,0.7472177124619483,0.028489596903324126
1772025765898632200,2.669632080078125,0.827734433722496,0.7498711495801806,0.050404929982870814
1772025765908629500,2.67962939453125,0.9160276342034339,0.6937696153908968,0.1291174513656646
1772025765918626300,2.689626220703125,1.0030541757494211,0.6327697877660393,0.23797727373093366
1772025765928624400,2.699624267578125,1.034956795966625,0.5843821889549493,0.36179281929619606
1772025765938621200,2.70962109375,1.0429314281076192,0.5036120774552226,0.49001814412772654
1772025765948618500,2.719618408203125,1.0346674576312302,0.38140988537073134,0.6256858939196914
1772025765958616300,2.7296162109375,1.0132786326438188,0.23834376895576714,0.7936511084653437
1772025765968613400,2.73961328125,0.912165113556385,0.07836071227043867,0.945342064558342
1772025765978610200,2.749610107421875,0.7874474315196275,-0.10387918440848588,1.1068963891483843
1772025765988608300,2.759608154296875,0.6281745689302682,-0.29827772091478105,1.2806924287393688
1772025765998605300,2.769605224609375,0.40279520322680473,-0.5085922039553523,1.4333653085418046
1772025766008602400,2.779602294921875,0.20818156266510485,-0.6749181999266147,1.5503675938956438
1772025766018600200,2.78960009765625,-0.015480477726459503,-0.7725798249945044,1.6349544872045516
1772025766028597200,2.79959716796875,-0.16616963636577128,-0.7555299059942364,1.5695542326636611
1772025766038594300,2.80959423828125,-0.2446001990020275,-0.6406792457163334,1.472494811272621
1772025766048592400,2.81959228515625,-0.3966477865129709,-0.5077396787792444,1.3070277702182531
1772025766058589200,2.829589111328125,-0.45440673252046104,-0.34602848312705753,1.1144906436696649
1772025766068586200,2.839586181640625,-0.4366320063769817,-0.10653992805033921,0.9528449144691228
1772025766078584300,2.849584228515625,-0.4133522530764341,0.14971125351786613,0.8316606672555208
1772025766088581400,2.859581298828125,-0.3655301791936159,0.3605450842574239,0.7781777180667966
1772025766098578200,2.869578125,-0.2171504665404558,0.5102993001341819,0.7082755489967762
1772025766108576300,2.879576171875,-0.03113455845415592,0.5838742394328117,0.6819437877144664
1772025766118573300,2.8895732421875,0.17577040840387342,0.6176219029948115,0.5395381079696119
1772025766128571400,2.8995712890625,0.3552770807266235,0.6328530821353197,0.555629118809849
1772025766138568400,2.909568359375,0.4291384357511997,0.6285524623319506,0.6054862787168472
1772025766148565200,2.919565185546875,0.4745125319600105,0.5467258275166154,0.7581541170179843
1772025766158563300,2.929563232421875,0.4306979401528835,0.4282318423002958,1.0996256674930454
1772025766168560400,2.939560302734375,0.3628495618075132,0.35961744801849127,1.3455921864122151
1772025766178557400,2.949557373046875,0.3515817333400249,0.2871665443137288,1.3787985827043652
1772025766188555300,2.95955517578125,0.42464346241950984,0.14383213235139847,1.3540142700597644
1772025766198552300,2.96955224609375,0.4393289903759956,0.012703121967613697,1.3922966544419526
1772025766208549400,2.97954931640625,0.34091070172190663,-0.08631693197190761,1.453427853361517
1772025766218547500,2.98954736328125,0.26365561260581016,-0.14232143552750348,1.5083213269352913
1772025766228544300,2.999544189453125,0.24684943923354147,-0.19914485425055026,1.487064311634004
1772025766238541300,3.009541259765625,0.20649404796957968,-0.26112609412819143,1.4007310130491852
1772025766248539100,3.0195390625,0.09250935687124728,-0.32443244512975217,1.3489089097447693
1772025766258536400,3.029536376953125,-0.014894786792993544,-0.3728542384713888,1.3252812197893857
1772025766268533200,3.039533203125,-0.10953998664915561,-0.3622884207934141,1.2979875546723603
1772025766278531300,3.04953125,-0.17778993153274059,-0.3116606418401003,1.2324848626703022
1772025766288528100,3.059528076171875,-0.26270167288184165,-0.2649976748645306,1.1959138853158802
1772025766298525400,3.069525390625,-0.4375631497472524,-0.23134499610960482,1.1152031027879565
1772025766308523500,3.0795234375,-0.6111071142733097,-0.14904168369323015,1.0402233381927013
1772025766318520300,3.089520263671875,-0.6649725599735975,-0.0352092605471611,1.028073466193676
1772025766328517000,3.09951708984375,-0.7053577618539333,0.12992811016142367,1.004373587784916
1772025766338515200,3.10951513671875,-0.7803384762972593,0.2984486935675144,0.9803331523101776
1772025766348512500,3.119512451171875,-0.7678127567231655,0.41803164306432006,0.9342256272602826
1772025766358510300,3.12951025390625,-0.708705903238058,0.4920715695261955,0.8599391786914319
1772025766368507400,3.13950732421875,-0.6764069771796465,0.5346192101374269,0.7836932666178792
1772025766378504200,3.149504150390625,-0.6225052911221981,0.5434723786786199,0.7472804024346172
1772025766388502300,3.159502197265625,-0.573121959272027,0.5566308431982994,0.7573167894110083
1772025766398499300,3.169499267578125,-0.5401239450335502,0.5161813439100981,0.8359441897936165
1772025766408496400,3.179496337890625,-0.4471346956908703,0.37638679651170964,0.9703172966651618
1772025766418494200,3.189494140625,-0.42395255754590033,0.06010083295851946,1.2580730390436947
1772025766428491300,3.1994912109375,-0.49176001935899255,-0.27273528337925673,1.457445272309333
1772025766438488300,3.20948828125,-0.6097744043648242,-0.2937877160191536,1.4571855984598396
1772025766448486400,3.219486328125,-0.7589835535794496,-0.12184446468800306,1.3879647627174854
1772025766458483200,3.229483154296875,-0.8196575102508068,-0.10203063393235207,1.2295524624802172
1772025766468480300,3.239480224609375,-0.8101637057185173,-0.23998627546578644,1.0367178142897784
1772025766478478000,3.24947802734375,-0.7434405320107936,-0.2586462600111961,0.7471196589149535
1772025766488472000,3.25947216796875,-0.5806985320061445,-0.06510638616085052,0.4742626853847876
1772025766498469000,3.26946923828125,-0.38722996982634067,0.0605932926505804,0.3729554703561589
1772025766508467200,3.27946728515625,-0.2652443431019783,-0.012345394571125507,0.4313871645260602
1772025766518464000,3.289464111328125,-0.26211773551404477,-0.09290361688584088,0.550773312809132
1772025766528461000,3.2994609375,-0.27035131085216996,-0.0610746464267373,0.6370970763806253
1772025766538459100,3.309459228515625,-0.2990542582452297,-0.007255962477624416,0.6695596685681492
1772025766548456200,3.319456298828125,-0.37042496549785137,-0.03947451677620411,0.6364852280925959
1772025766558453000,3.329452880859375,-0.43893385357856746,-0.06228548352122307,0.5633353823382408
1772025766568451000,3.339451171875,-0.4512286870062351,-0.015687690736353396,0.5527762866619974
1772025766578448100,3.3494482421875,-0.41645781787633895,0.0664057783216238,0.5373373830549418
1772025766588445200,3.359445068359375,-0.34544133088886736,0.2389835281640291,0.4140837822213769
1772025766598443000,3.369443115234375,-0.2689490428388119,0.4638274718165397,0.27305512645076957
1772025766608440000,3.379440185546875,-0.1681903285384178,0.6657789079204202,0.12135651677427813
1772025766618438000,3.38943798828125,-0.10651567039191723,0.8499626321434974,-0.02513800318678841
1772025766628435200,3.399435302734375,-0.0835901373565197,0.9744988201335072,-0.15064157490422947
1772025766638432000,3.409431884765625,-0.026214053186774253,1.0230258274152875,-0.2329552625841461
1772025766648430000,3.41943017578125,0.010862754797935486,1.0102984477892518,-0.35352694912366567
1772025766658427000,3.429427001953125,0.015997195076942444,0.988867244964838,-0.455591996782273
1772025766668424200,3.439424072265625,0.010840542966127395,0.9395645771354436,-0.49298316794577984
1772025766678422300,3.44942236328125,0.03658580959737301,0.8652350200772285,-0.47030448581092055
1772025766688419000,3.459419189453125,0.0726408733189106,0.8003139273554086,-0.40999917978886513
1772025766698415900,3.469415771484375,0.13086042257547378,0.77491002150774,-0.3026204810931347
1772025766708414000,3.4794140625,0.18545125994086264,0.7358893859788775,-0.22089005492758004
1772025766718411300,3.489411376953125,0.25989362972378727,0.7345350487604737,-0.1592128760304302
1772025766728408000,3.499407958984375,0.3706301326811313,0.7794412351965904,0.024131821818929165
1772025766738406100,3.50940625,0.44357086572945115,0.7059802776664496,0.15507089912118388
1772025766748403200,3.5194033203125,0.4843897828519344,0.5834846555933356,0.21476059399554503
1772025766758400300,3.529400146484375,0.49662265695929525,0.5169409301057457,0.26224916160767897
1772025766768398000,3.539398193359375,0.5074316357433796,0.548895572771132,0.20375649449815972
1772025766778395100,3.54939501953125,0.5098860431581735,0.612048194515705,0.13857925332449375
1772025766788392200,3.55939208984375,0.48091421569585796,0.637147564458847,0.057118017755448815
1772025766798390300,3.569390380859375,0.45652387080490586,0.649077948488295,-0.03834788736645132
1772025766808387000,3.579386962890625,0.43076223756074905,0.659221741361916,-0.13145290857590733
1772025766818384100,3.589384033203125,0.4514028745293617,0.6581432984754443,-0.22209608798278493
1772025766828382000,3.5993818359375,0.5103320333600044,0.6858917216226458,-0.30846604704987257
1772025766838379300,3.609379150390625,0.5549439130246638,0.7154556697592139,-0.3303243527125567
1772025766848377000,3.619377197265625,0.5551812289118766,0.7234086745902896,-0.2919369370533153
1772025766858374100,3.6293740234375,0.556954083803296,0.6744321699753403,-0.21006670055827126
1772025766868371000,3.639370849609375,0.5702063640862703,0.6139493519619107,-0.15280205914005637
1772025766878369000,3.649369140625,0.5217196888148784,0.555340803387761,-0.09383642249023541
1772025766888366000,3.659365966796875,0.429372829028964,0.4737392094999551,-0.057283145189285276
1772025766898363100,3.669363037109375,0.3551993393152952,0.34667525659799575,-0.053850248131155964
1772025766908361200,3.679361328125,0.3038976066231727,0.2016436853289604,-0.07664957923730835
1772025766918358000,3.68935791015625,0.24071663556694983,0.09842471839487552,-0.08309585103355348
1772025766928355000,3.69935498046875,0.13149755143523215,0.0400476404890418,-0.0849997849587351
1772025766938353200,3.709353271484375,0.032224107256531714,-0.014087854324281215,-0.1162147425721865
1772025766948350200,3.71935009765625,0.01076455512046814,-0.10224632250964641,-0.15738560580434277
1772025766958347000,3.729346923828125,0.0013239420801401138,-0.1656742540642619,-0.2033310721603222
1772025766968345000,3.739344970703125,-0.05164017086625099,-0.23179741605222223,-0.21498424668358637
1772025766978342100,3.749342041015625,-0.04514087197482586,-0.2788321389496326,-0.23176481069056315
1772025766988339200,3.759339111328125,0.023967735564708707,-0.2742608855113387,-0.2445803069914691
1772025766998337000,3.7693369140625,0.08160977719426155,-0.23359978929907083,-0.2203530985066667
1772025767008334000,3.779333984375,0.10499065278172492,-0.20681787309646604,-0.1379285160644911
1772025767018331100,3.7893310546875,0.1372813955336809,-0.23163053505271672,-0.04146176333697513
1772025767028329200,3.7993291015625,0.1739063680976629,-0.263333248783648,0.03582035991651937
1772025767038326000,3.809325927734375,0.16289339117407797,-0.2846025390446186,0.11554134595580398
1772025767048323000,3.819322998046875,0.14016016584038735,-0.29934418110251426,0.14786496806405483
1772025767058321000,3.82932080078125,0.10777531506419182,-0.31802783878445623,0.17587542141461743
1772025767068318200,3.839318115234375,0.08254676578342914,-0.34805735860615966,0.171759382664226
1772025767078315000,3.84931494140625,0.07458557764589786,-0.3703556996539235,0.13344134244676678
1772025767088313000,3.85931298828125,0.057715106865763664,-0.4106669595152139,0.09962709818826988
1772025767098310000,3.869309814453125,0.02233165879547596,-0.4767553424507379,0.07123080559158697
1772025767108308000,3.879307861328125,-0.011083704072237015,-0.530801113153994,-0.002583659817650914
1772025767118305300,3.88930517578125,-0.0801829592615366,-0.5518456547483801,-0.06267037291927263
1772025767128302000,3.899302001953125,-0.09254033653140067,-0.5121577874824405,-0.1391070948571898
1772025767138300200,3.909300048828125,-0.08291735266149043,-0.470451566131413,-0.23525902774818241
1772025767148297000,3.919296875,-0.10834347034096717,-0.43084407062530516,-0.3164003106478602
1772025767158294300,3.929294189453125,-0.09354454513788223,-0.41090953609943387,-0.367493880482018
1772025767168292000,3.9392919921875,-0.04212532354593277,-0.37857466194480655,-0.408788561890088
1772025767178289200,3.9492890625,-0.005674538505077362,-0.30338235057741403,-0.4415916015457362
1772025767188286000,3.959285888671875,-0.014465163204073905,-0.21693156309276818,-0.45806415904946624
1772025767198284000,3.969283935546875,-0.05561433519423008,-0.15676672498732805,-0.46427580010592934
1772025767208281000,3.979281005859375,-0.12208324187994003,-0.0840776286125183,-0.485157661951892
1772025767218278100,3.989278076171875,-0.14549568164944648,-0.042944530974328515,-0.4894344990208745
1772025767228276000,3.99927587890625,-0.17539982152581213,-0.11922580662220716,-0.4069956140587106
1772025767238273000,4.00927294921875,-0.2758569225311279,-0.36729923469275233,-0.22897972828298807
1772025767248270000,4.01927001953125,-0.43451194548308847,-0.545139435108006,-0.13250029873698949
1772025767258268200,4.02926806640625,-0.5791980643153191,-0.4072755635112524,-0.19894929514583198
1772025767268265000,4.039264892578125,-0.7188479425460099,-0.27960663045346734,-0.3012100845722481
1772025767278262000,4.049261962890625,-0.880920664986968,-0.407744350066781,-0.3989366646351292
1772025767288260000,4.059260009765625,-0.9530027353793382,-0.4844616790443659,-0.5647268001640215
1772025767298257200,4.069257080078125,-0.9881354235589503,-0.3213023304104805,-0.6875181537806987
1772025767308254000,4.07925390625,-1.0276578711301088,-0.08595862005352974,-0.6781826085500419
1772025767318252000,4.089251953125,-0.9351333166897297,0.15567863748967647,-0.7603548419326543
1772025767328249000,4.0992490234375,-0.8303834869265556,0.21166677443236112,-0.8595426536545157
1772025767338247200,4.1092470703125,-0.713107353067398,0.20701105758100746,-0.9159007929533719
1772025767348244200,4.119244140625,-0.5362988337874413,0.27952158251851794,-0.7770756751090288
1772025767358241000,4.129240966796875,-0.44979836194217204,0.3861076877981424,-0.5939467206358909
1772025767368239000,4.139239013671875,-0.3665530925005674,0.40090924334973094,-0.43414099327884614
1772025767378236200,4.149236083984375,-0.2833721204668283,0.2932490790978074,-0.28367895792629566
1772025767388233200,4.159233154296875,-0.22861294079720973,0.11369272241443396,-0.1070245332295075
1772025767398231000,4.16923095703125,-0.22358020732700823,-0.038353111530840395,0.12986476260162888
1772025767408228000,4.17922802734375,-0.27045184861719607,-0.11830752273350953,0.3293967164736241
1772025767418225200,4.18922509765625,-0.2972060000300407,-0.17044249137938022,0.4700097406480461
1772025767428223200,4.19922314453125,-0.29202479799985886,-0.24976971059441566,0.6090613241920247
1772025767438220000,4.209219970703125,-0.22821020521521568,-0.29543957487940786,0.656620034430921
1772025767448217000,4.219217041015625,-0.10487667101323604,-0.2136731458187103,0.6382485114380717
1772025767458215000,4.22921484375,0.003200841867923736,-0.02201923184543848,0.605967924753949
1772025767468212200,4.239212158203125,0.056658875811100004,0.15836276200711727,0.5882495319075882
1772025767478209000,4.249208984375,0.12289163565337657,0.2701829685479402,0.5443707888230681
1772025767488206800,4.259206787109375,0.2559820092380047,0.3873106338471174,0.4728057280421257
1772025767498204000,4.269203857421875,0.4159861087113619,0.5266130138143896,0.40580571015439926
1772025767508201000,4.279200927734375,0.5810790557563305,0.6988093631237745,0.35256066137477754
1772025767518199000,4.289198974609375,0.7394312963694334,0.9211521376103162,0.31402992825470866
1772025767528195800,4.29919580078125,0.9145055392026901,1.0534139514163137,0.36383477345258
1772025767538193000,4.30919287109375,1.1332570111989975,1.0257201810657977,0.5143060515575111
1772025767548190700,4.319190673828125,1.3216928399085999,0.9580164718881249,0.6059675594277679
1772025767558188000,4.32918798828125,1.4283376896381377,0.837384013338387,0.7991411572489887
1772025767568184800,4.339184814453125,1.4636375510782003,0.7616253002598882,1.0303086778998374
1772025767578183000,4.349182861328125,1.4213415471404791,0.724004594656825,1.1717531113971025
1772025767588179700,4.3591796875,1.307829734250903,0.6296808818399906,1.280729545879364
1772025767598177800,4.369177734375,1.132541556406021,0.4282081691637635,1.397389593666792
1772025767608175000,4.379175048828125,0.947314752870798,0.20990619450062512,1.4601288123048841
1772025767618172000,4.389171875,0.8356932837724685,-0.013868950876593589,1.482909968433529
1772025767628170000,4.399169921875,0.6395633934289217,-0.30111966634243725,1.5163815915331245
1772025767638166800,4.409166748046875,0.46682899172008036,-0.44210722291767596,1.5938308880470693
1772025767648164000,4.4191640625,0.30866029098033904,-0.46024493715465065,1.6164838877514003
1772025767658162000,4.429161865234375,0.09907879838943481,-0.47266310470104217,1.6148410889804363
1772025767668159000,4.439158935546875,-0.10696925937831402,-0.4000020653769374,1.530892347444594
1772025767678155800,4.44915576171875,-0.2511871761769056,-0.2478527710571885,1.3879079179637133
1772025767688153900,4.45915380859375,-0.4004413335770368,-0.026961656683683395,1.1498312024462967
1772025767698151000,4.46915087890625,-0.4433066618353128,0.1321013625472784,0.9618163025625049
1772025767708148000,4.47914794921875,-0.36942835567593574,0.2516089087203145,0.8753806395817547
1772025767718145800,4.489145751953125,-0.19577274746894835,0.35151246749609705,0.7362352768070995
1772025767728143000,4.49914306640625,-0.07435118436813354,0.40334699189066886,0.752836209930852
1772025767738140000,4.509139892578125,0.06363982073962689,0.4588493911430239,0.6582486585460603
1772025767748138000,4.519137939453125,0.17834990350306032,0.4150377219453454,0.6082849695246666
1772025767758134800,4.529134765625,0.3043833443135023,0.327711320669949,0.6729912504520267
1772025767768132000,4.539132080078125,0.41413083623349667,0.2507841483339667,0.8276429560467601
1772025767778130000,4.5491298828125,0.4871574939996004,0.18395663746893404,1.0375680013783275
1772025767788127000,4.559126953125,0.4857826985150575,0.09812690449208021,1.2392775915503502
1772025767798125000,4.569125,0.39401919157505033,-0.028855507606267927,1.3727373829692602
1772025767808121900,4.579121826171875,0.30510815145671366,-0.16105127043873071,1.3960200588792562
1772025767818119000,4.589118896484375,0.2550064422041178,-0.3002712328195572,1.4470780459433794
1772025767828117000,4.599116943359375,0.19767770430743692,-0.46505672135055065,1.5219640678405761
1772025767838114000,4.609114013671875,0.13342822723686695,-0.5743319195836782,1.5375956444755197
1772025767848110800,4.61911083984375,0.09199556213021277,-0.6072556995421647,1.524424320474267
1772025767858109000,4.62910888671875,-0.0356318698734045,-0.5781912253603338,1.4233137239962816
1772025767868106000,4.63910595703125,-0.16007190401256083,-0.643702977451682,1.3038460714422166
1772025767878103000,4.64910302734375,-0.19789397740662096,-0.703243253917992,1.2504011892415583
1772025767888100900,4.659100830078125,-0.28522271676957606,-0.637255701008439,1.189366071107611
1772025767898098000,4.669097900390625,-0.340872707799077,-0.5722779096633196,1.1524978643722832
1772025767908095000,4.679094970703125,-0.3712450497090816,-0.5306450458094477,1.1227843516971916
1772025767918093000,4.689093017578125,-0.4181289659589529,-0.4963996618583798,1.1378296528767793
1772025767928089900,4.69908984375,-0.4715753094643354,-0.4344219291120767,1.1432725015178322
1772025767938087000,4.7090869140625,-0.5377560468584299,-0.3694181265428662,1.1135890186548232
1772025767948084700,4.719084716796875,-0.6214695183336735,-0.2787508904069662,1.0522391354832799
1772025767958082000,4.72908203125,-0.7183189502358436,-0.15902414852529764,0.9510318006325512
1772025767968078800,4.739078857421875,-0.8183587026119231,-0.045942251485586165,0.849143205519393
1772025767978077000,4.749076904296875,-0.8682172507584095,0.05251461561322212,0.7326826258268206
1772025767988073700,4.75907373046875,-0.8706061917215585,0.09601298107802868,0.6189660110801458
1772025767998071000,4.769071044921875,-0.733169313365221,0.11583996357619762,0.4579632924908772
1772025768008069000,4.779069091796875,-0.636724370610714,0.12140373518317937,0.33831294031366704
1772025768018066000,4.78906591796875,-0.7436690800696611,0.06973989118039607,0.3557163854593411
1772025768028064000,4.79906396484375,-0.6910510040819644,-0.13401859434545038,0.5576728995971382
1772025768038060800,4.809060791015625,-0.5818459484755992,-0.41098756977170703,0.8515273972421884
1772025768048058000,4.81905810546875,-0.6465460919231176,-0.4204243834197521,0.9415699256084858
1772025768058056000,4.829055908203125,-0.7468494636714458,-0.08694032456725835,0.8250196218058466
1772025768068053000,4.839052978515625,-0.8363818505585193,0.08712883287668227,0.7233810559310019
1772025768078049800,4.8490498046875,-0.8192962757229805,-0.07993482971936464,0.5954992107748985
1772025768088047900,4.8590478515625,-0.6644651949733495,-0.22086861028075216,0.3622061128048226
1772025768098045000,4.869044921875,-0.5207680871784687,-0.07685059996843338,0.14719251216258852
1772025768108042000,4.8790419921875,-0.40244215200543404,0.10622370170801877,0.0688368048608303
1772025768118039800,4.889039794921875,-0.2891290765583515,0.16910744338333605,0.0870149241734296
1772025768128036900,4.899036865234375,-0.21906536025106907,0.14230886830687522,0.16453049085661767
1772025768138034000,4.909033935546875,-0.22986206407546997,0.10075812977850436,0.2603066675040871
1772025768148032000,4.919031982421875,-0.3172743900686502,0.05684241568446159,0.3380806659277528
1772025768158028800,4.92902880859375,-0.42522681526541706,-0.025548575015366077,0.315044475592114
1772025768168025900,4.93902587890625,-0.5077659822642803,-0.034522447326779365,0.23673235170375553
1772025768178024000,4.94902392578125,-0.6031254678696394,0.045133565451204775,0.3075939403904602
1772025768188021000,4.95902099609375,-0.6600894641071557,0.09692629653066397,0.2746391442392021
1772025768198017800,4.969017822265625,-0.6958668799310922,0.16320172647088765,0.19732240633005274
1772025768208016000,4.979015869140625,-0.674389792138338,0.28297055392861364,0.055897732412605546
1772025768218013000,4.989012939453125,-0.629881372848153,0.42301176956444975,-0.18038420407595113
1772025768228010000,4.999010009765625,-0.5340571923404932,0.5981535246759653,-0.37579463930483903
1772025768238008000,5.009008056640625,-0.3765753048211336,0.7882236765891313,-0.5505397963142022
1772025768248004900,5.0190048828125,-0.2516799281299114,0.913944398188591,-0.6204779500130564
1772025768258003000,5.0290029296875,-0.11598726309239864,0.9283020093649625,-0.7010815458394587
1772025768268000000,5.039,0.15398527757525443,0.9355486194923519,-0.751711589815095
1772025768277997000,5.0489970703125,0.45579789461791514,0.972296633914113,-0.7181539689324796
1772025768287995000,5.058994873046875,0.6544657790064812,0.9824363351345061,-0.6246280554298311
1772025768297992000,5.068991943359375,0.7955430596917867,0.9331266530424356,-0.4779146685536951
1772025768307989000,5.078989013671875,0.855006471529603,0.8179512908548117,-0.3681039386717602
1772025768317987000,5.088987060546875,0.9150263482064008,0.7817711394488811,-0.25670214020609855
1772025768327983900,5.09898388671875,0.8134136474251746,0.7548772873044014,0.018493039613822475
1772025768337981000,5.10898095703125,0.7154933714210987,0.7104960015252232,0.11390793606769292
1772025768347978800,5.118978759765625,0.7455033097594976,0.6842436621546745,0.14781725646480917
1772025768357976000,5.12897607421875,0.7871551705747842,0.6194070328459144,0.21932128950720653
1772025768367972900,5.138972900390625,0.7831348290175199,0.5281321862056851,0.21658872273815793
1772025768377971000,5.148970947265625,0.7919406512856483,0.43799101977050303,0.22119884688211602
1772025768387967700,5.1589677734375,0.7221440614819526,0.4436655582755804,0.20265408621421083
1772025768397965000,5.168965087890625,0.5785404771894216,0.5654819659128785,0.19128493453040718
1772025768407963100,5.178963134765625,0.43040567920804024,0.6206506031662226,0.12814444161504507
1772025768417960000,5.1889599609375,0.3596154021918773,0.6263070214927197,0.024949549676291642
1772025768427958000,5.1989580078125,0.3378530677169561,0.6817851630866527,-0.12338855232484638
1772025768437954800,5.208954833984375,0.3551128300756216,0.7726467527508735,-0.2963194995190948
1772025768447952100,5.2189521484375,0.37466099563241,0.7858256755366921,-0.37516401325110343
1772025768457950000,5.228949951171875,0.39147009161412716,0.7457213364243507,-0.4068746180275455
1772025768467947000,5.238947021484375,0.441736051517725,0.6700391957134008,-0.41429746150467545
1772025768477943800,5.24894384765625,0.4614940604329109,0.5946335338562727,-0.3419413964765146
1772025768487945200,5.2589453125,0.44366146662235256,0.4950611067309975,-0.25956374018229544
1772025768497942500,5.268942626953125,0.4101122482419014,0.3850821441426873,-0.1805073007326573
1772025768507939300,5.278939208984375,0.37947044174075123,0.2780880425840616,-0.12455609826687723
1772025768517937400,5.2889375,0.31136604280769825,0.170166889308393,-0.08157086995597929
1772025768527934200,5.298934326171875,0.2297381454348564,0.039646658472716804,-0.055398902345262464
1772025768537931500,5.308931640625,0.19108838904500006,-0.08648352071046829,-0.05918448529858142
1772025768547928300,5.31892822265625,0.2057575503885746,-0.19175357495546339,-0.08344112080726772
1772025768557925400,5.32892529296875,0.22010522469282148,-0.2685994987487793,-0.11020477070081978
1772025768567923200,5.338923095703125,0.16576105556488036,-0.3250470698967576,-0.13616733334455638
1772025768577920500,5.34892041015625,0.14175181894600392,-0.4203180004358291,-0.1456403508171439
1772025768587917300,5.358917236328125,0.11882044069170951,-0.5087342427745462,-0.09021678895466029
1772025768597915400,5.368915283203125,0.13775544278621674,-0.5424143940582871,-0.1100422005502507
1772025768607912200,5.378912109375,0.18623685736060142,-0.5933014084696769,-0.06418978277258575
1772025768617909500,5.388909423828125,0.20494740304946898,-0.6045894029423594,-0.019912395759299397
1772025768627907300,5.3989072265625,0.19696108047068117,-0.6106643389418721,-0.001793386222794652
1772025768637904400,5.408904296875,0.215473473238945,-0.6437450630277395,0.052827809748239814
1772025768647902200,5.418902099609375,0.21292203519046304,-0.651726417170465,0.08973748100511729
1772025768657899300,5.428899169921875,0.18219898014664648,-0.6380731548711657,0.15171371591407803
1772025768667896300,5.438896240234375,0.14353636427521704,-0.6230395441293716,0.17219865086432545
1772025768677894400,5.448894287109375,0.12223638661503791,-0.6267717163950205,0.17713548621200023
1772025768687891200,5.45889111328125,0.07251753920018672,-0.6008759353771805,0.17287563681043683
1772025768697888300,5.46888818359375,0.0032411738783121105,-0.5853945808678865,0.17310732667446135
1772025768707886300,5.47888623046875,-0.059116205835342404,-0.5933341416954994,0.1375291597496718
1772025768717883400,5.48888330078125,-0.09689560913145541,-0.5893702065005898,0.059141340276598925
1772025768727880200,5.498880126953125,-0.14184592697024345,-0.5865902203932404,-0.03330876068808138
1772025768737878300,5.508878173828125,-0.21982699227333066,-0.6064575349017978,-0.09375935693234205
1772025768747875300,5.518875244140625,-0.3497100942492485,-0.6407634168684482,-0.12015227381736039
1772025768757872400,5.528872314453125,-0.47331250852048395,-0.630178017707169,-0.17371216069981454
1772025768767870500,5.538870361328125,-0.5309323383182287,-0.5918722524493932,-0.24692447723112998
1772025768777867300,5.5488671875,-0.5757376947283744,-0.550053802895546,-0.2762949486222118
1772025768787864300,5.5588642578125,-0.6412134987235069,-0.502404747492075,-0.3071466715469956
1772025768797862400,5.5688623046875,-0.6903828955620527,-0.48019905316382644,-0.3044244069762528
1772025768807859500,5.578859375,-0.7145458614379168,-0.5146545727342366,-0.2165199135519564
1772025768817856300,5.588856201171875,-0.764844554567337,-0.5795633904963732,-0.14181421665772795
1772025768827854300,5.598854248046875,-0.8318167346000671,-0.5758174819663167,-0.1242426849361509
1772025768837851400,5.608851318359375,-0.8916858046293258,-0.5088002937480807,-0.17780067212246356
1772025768847849500,5.618849365234375,-0.9052022888064384,-0.4542266997784376,-0.21750819393694398
1772025768857846300,5.62884619140625,-0.8963023585140705,-0.41525954800248144,-0.27131730634011325
1772025768867843300,5.63884326171875,-0.8565420105338096,-0.32092472926974297,-0.3226109287910163
1772025768877841200,5.648841064453125,-0.7514923210412263,-0.23393355129808185,-0.31783838062696157
1772025768887838500,5.65883837890625,-0.6453811397969722,-0.1960430888429284,-0.2814923711348325
1772025768897835300,5.668835205078125,-0.5370727407693863,-0.20104542717486618,-0.2268520686045289
1772025768907833300,5.678833251953125,-0.4643430201232433,-0.25158698914945127,-0.08766856577657163
1772025768917830100,5.688830078125,-0.4811152912259102,-0.3256850755393505,0.06520560875162482
1772025768927827500,5.698827392578125,-0.5333247864127159,-0.4142480328723788,0.24319829631485043
1772025768937825500,5.708825439453125,-0.5718266587644815,-0.5282821160703897,0.40692492344267667
1772025768947822300,5.718822265625,-0.6281500190109014,-0.6455284393131733,0.5449227236174047
1772025768957819400,5.7288193359375,-0.6691384474813937,-0.6983759401425719,0.6708788614079356
1772025768967817200,5.738817138671875,-0.6673901425093413,-0.633503362737596,0.7575134810268879
1772025768977814500,5.748814453125,-0.6255214240729808,-0.5113812501519918,0.7569687066256999
1772025768987811300,5.758811279296875,-0.5424754765957593,-0.3480427455589175,0.6717451959136873
1772025768997809400,5.768809326171875,-0.4246662587732076,-0.16814473583102224,0.5650915052905678
1772025769007806200,5.77880615234375,-0.2798994759202003,0.03172083390951157,0.4846769292302429
1772025769017803500,5.788803466796875,-0.09532967498898505,0.25769524289667606,0.45317602168172594
1772025769027801300,5.79880126953125,0.1232908641040325,0.4513192878991365,0.4351946670502424
1772025769037798400,5.80879833984375,0.21583587681055066,0.5612906517028808,0.44098998239077625
1772025769047795200,5.818795166015625,0.26664894920289517,0.6701859107077122,0.39799489027298984
1772025769057793300,5.828793212890625,0.39435412261784075,0.8480018534645438,0.3767063107896596
1772025769067790300,5.838790283203125,0.5660825621545315,1.0471963920757175,0.3544121344603598
1772025769077788400,5.848788330078125,0.7699018379569054,1.192275894139707,0.3203568662539124
1772025769087785200,5.85878515625,1.025647115829587,1.2252797535970807,0.34599443472698327
1772025769097782300,5.8687822265625,1.202024257954955,1.145846735920012,0.4606637470886111
1772025769107780400,5.8787802734375,1.277527534967661,1.0208742023393511,0.6015661095984279
1772025769117777400,5.88877734375,1.2821663006842137,0.9472922487780451,0.7747172023493796
1772025769127774200,5.898774169921875,1.2589455840945243,0.9128206548556685,0.9250747178815305
1772025769137772300,5.908772216796875,1.1934002219945192,0.8541860950574278,0.9958658716805279
1772025769147769300,5.918769287109375,1.0335276399463416,0.737624831469357,1.0246834584292024
1772025769157766400,5.928766357421875,0.8410814065515995,0.5638932354167103,1.1159564784385263
1772025769167764500,5.938764404296875,0.6825117237955332,0.3601408873707056,1.1704860871359706
1772025769177761300,5.94876123046875,0.6030787061184645,0.13862024292200803,1.2103687463216484
1772025769187758300,5.95875830078125,0.5348866289019585,-0.058145314976572986,1.232968262273073
1772025769197756400,5.96875634765625,0.36423429416418074,-0.18472616053670643,1.282308193372935
1772025769207753500,5.97875341796875,0.25809213325977326,-0.16700316458046435,1.3158704173654316
1772025769217750300,5.988750244140625,0.34960078865587707,-0.031362814252078534,1.1914284104648978
1772025769227748400,5.998748291015625,0.20855624119639396,0.11745119816511869,1.1026904618911444
1772025769237745400,6.008745361328125,-0.1533680224597454,0.25244565180540085,1.0556379841413348
1772025769247742500,6.018742431640625,-0.4031804031521082,0.35480274121314287,0.9145688867624848
1772025769257740300,6.028740234375,-0.39978550001680846,0.4456155232995748,0.7270891166687011
1772025769267737300,6.0387373046875,-0.30327333724498745,0.5182660412296652,0.591335003767535
1772025769277734400,6.048734375,-0.0561316370666027,0.5915659629791975,0.4792401450037956
1772025769287732500,6.058732421875,0.2097527575045824,0.6031593701392411,0.4268918989334255
1772025769297729300,6.068729248046875,0.3581932604342699,0.5504550771728157,0.39286147290728984
1772025769307726300,6.078726318359375,0.45242754140198227,0.4340463737979531,0.4291085520695895
1772025769317724200,6.08872412109375,0.528662055298686,0.3294911898240447,0.6098949620045722
1772025769327721500,6.098721435546875,0.5101584303587675,0.2542196757405996,0.8522761697828769
1772025769337719600,6.108719482421875,0.3918669819772243,0.1363084588482976,1.100529776725918
1772025769347716400,6.11871630859375,0.34845161862075325,-0.033493688800930975,1.1637767987556755
1772025769357713400,6.12871337890625,0.40262802996635433,-0.20638357333242893,1.1621713363204151
1772025769367711200,6.138711181640625,0.46583062833249567,-0.38171734388470646,1.1715652606748044
1772025769377708500,6.14870849609375,0.4563403309315443,-0.45970074727535243,1.1863783605337141
1772025769387705300,6.158705322265625,0.403732776337862,-0.45153468421548604,1.2186713683079928
1772025769397703400,6.168703369140625,0.3573129704684019,-0.4538911842137575,1.2191181622274219
1772025769407700200,6.1787001953125,0.3410819666355848,-0.4530515185192227,1.2084621089827268
1772025769417697500,6.188697509765625,0.26661270884573457,-0.4680383675098419,1.0821567924283444
1772025769427695400,6.1986953125,0.2054395704805851,-0.48744127937704324,0.9570414163108915
1772025769437692400,6.2086923828125,0.1308721130132675,-0.48303106171935795,0.8367449847824872
1772025769447689200,6.218689208984375,0.04425999748706817,-0.45755409063547847,0.7282999537631869
1772025769457687300,6.228687255859375,-0.0025783260554075238,-0.4220218817442655,0.6463674474205822
1772025769467684400,6.238684326171875,-0.03364683353602886,-0.4003171226754784,0.6098189010936766
1772025769477681400,6.248681396484375,-0.052608139115571974,-0.41476562700569625,0.5631560802485793
1772025769487676400,6.258676513671875,-0.06221066471934318,-0.4416869516789913,0.5689402166079729
1772025769497673200,6.268673095703125,-0.052443303942680354,-0.4337316087603569,0.608996259599179
1772025769507670500,6.27867041015625,-0.04481529328227043,-0.3746402451053262,0.6417012091752141
1772025769517668400,6.28866845703125,-0.042678865775465966,-0.3348340121567249,0.6737742175232618
1772025769527665400,6.29866552734375,-0.03502338258624076,-0.3171951873525977,0.6914727366253733
1772025769537662200,6.308662109375,-0.03649287061691284,-0.29949995618611575,0.6973893402580171
1772025769547660300,6.318660400390625,-0.017838439029455182,-0.25972031898349524,0.7127497718013822
1772025769557657300,6.3286572265625,-0.030342531293630598,-0.24312340444773434,0.7472644742131233
1772025769567654400,6.338654296875,-0.04651859006881714,-0.22461101167947053,0.7605271297596394
1772025769577652200,6.34865234375,-0.06039221712052822,-0.22801439038217067,0.7901587363049387
1772025769587649300,6.358649169921875,-0.06575695902407169,-0.3913867972448468,0.9141430625658482
1772025769597646300,6.368646240234375,-0.09884557415544987,-0.6626365182414651,1.0369571029383688
1772025769607644400,6.37864453125,-0.17065934900045393,-0.6832517285078764,1.0554987948663532
1772025769617641200,6.38864111328125,-0.281091900575161,-0.5028630126535892,1.0436921833470463
1772025769627639300,6.398639404296875,-0.35059622943401336,-0.5405249270498752,1.010929658364877
1772025769637636000,6.408635986328125,-0.4125175558179617,-0.749344495357573,0.9509425879791379
1772025769647633400,6.41863330078125,-0.5004775788217782,-0.9037894993990659,0.9266963277339935
1772025769657631500,6.428631591796875,-0.5697387465745211,-0.9051154873058199,0.8887619530718773
1772025769667628300,6.438628173828125,-0.6103098264157771,-0.7988815564647317,0.8164399364437908
1772025769677625300,6.448625244140625,-0.6276753872364759,-0.7165367429941892,0.758833989040926
1772025769687623200,6.458623046875,-0.7316460493206978,-0.6729264415875077,0.7041929558582604
1772025769697620500,6.468620361328125,-0.848180424901843,-0.6171615920066833,0.6576698357447981
1772025769707617300,6.4786171875,-1.0073352140694856,-0.44822745936363934,0.47672765072621404
1772025769717615400,6.488615478515625,-1.149973752722144,-0.3411068088158965,0.30936303242221475
1772025769727612200,6.498612060546875,-1.14274497051239,-0.2418634675145149,0.11740838193669914
1772025769737609500,6.508609375,-1.1194278078109026,-0.03858107506781816,-0.02288746604733169
1772025769747607300,6.518607177734375,-1.26620826857388,0.1749181754887104,-0.1588084964806214
1772025769757604400,6.528604248046875,-1.1996236265540123,0.37912732739150523,-0.30394013059064745
1772025769767601200,6.53860107421875,-0.9950088164597749,0.6092898357182741,-0.45031632140167055
1772025769777599200,6.54859912109375,-0.8428478317022323,0.9040431818991899,-0.5916850593142211
1772025769787596300,6.55859619140625,-0.6419476582169532,1.1184148313760758,-0.7204869419246912
1772025769797593300,6.56859326171875,-0.45119478473663327,1.1676704451933502,-0.7988429049547762
1772025769807591200,6.578591064453125,-0.2614613174319267,1.127446279093623,-0.8273910271123052
1772025769817588200,6.588588134765625,-0.10820493865311145,1.1125587988242507,-0.8689536752741783
1772025769827585300,6.598585205078125,0.0022030630022287366,1.1160387498944997,-0.8147951649114489
1772025769837583400,6.608583251953125,0.0448427658110857,1.0723144667193294,-0.7491676774859428
1772025769847580200,6.618580078125,0.04105681753158569,1.0214198535233736,-0.6943420084513724
1772025769857577200,6.6285771484375,0.012391279539465904,0.9932102426052093,-0.6675520550727844
1772025769867575300,6.6385751953125,0.031119945406913756,0.9627923079878091,-0.664387015170604
1772025769877572400,6.648572265625,0.07796820582151412,0.8957599222004413,-0.6655598583422601
1772025769887570400,6.6585703125,0.10820201604366302,0.8155585504993796,-0.6570062572695314
1772025769897567200,6.668567138671875,0.15248422536253928,0.8041270559027791,-0.6315699835222214
1772025769907564300,6.678564208984375,0.2396282558083534,0.8612947580188512,-0.6567014291040599
1772025769917562400,6.688562255859375,0.3147597768992185,0.9344619932994246,-0.6560534135241061
1772025769927559400,6.698559326171875,0.3098603144198656,0.9390765013575554,-0.6791023537434637
1772025769937556200,6.70855615234375,0.3467781324505806,0.9190896521225571,-0.7545064812306315
1772025769947554300,6.71855419921875,0.42468847060501574,0.913364260213077,-0.7822228287391364
1772025769957551400,6.72855126953125,0.5637117413699626,0.9016583325892686,-0.7687277526762336
1772025769967548400,6.73854833984375,0.64881695946455,0.872250159536302,-0.8098944603230803
1772025769977546200,6.748546142578125,0.7218693361937999,0.7601525973588228,-0.8040905963499099
1772025769987543300,6.758543212890625,0.8058902661830186,0.5863926519945264,-0.7389785111006348
1772025769997540400,6.768540283203125,0.8996686200767755,0.41225013705343005,-0.656836965117231
1772025770007538400,6.778538330078125,0.9448410562336444,0.23482991561591623,-0.5295694524671882
1772025770017535200,6.78853515625,0.9729676650434732,0.027616613461077213,-0.43661805091686545
1772025770027532300,6.7985322265625,1.0342623839616776,-0.1884820059388876,-0.39904118445552883
1772025770037530000,6.808530029296875,1.0878887602090834,-0.35802550265192984,-0.3791616680525243
1772025770047527400,6.81852734375,1.0763076280087231,-0.5415022476494312,-0.1903920042786747
1772025770057524200,6.828524169921875,0.9691232645750045,-0.701189828519523,-0.014444778003171085
1772025770067522300,6.838522216796875,0.7996896579772234,-0.8342866318449378,0.12038279463760554
1772025770077519400,6.848519287109375,0.6893120514601468,-0.9021943391621112,0.16293365011923014
1772025770087516400,6.858516357421875,0.6291437062233686,-0.9513426932126283,0.20098734031207857
1772025770097514500,6.868514404296875,0.538925090637803,-0.9859496039524673,0.2952965862121433
1772025770107511300,6.87851123046875,0.536476528441906,-0.9730074125319719,0.2741128553427756
1772025770117508400,6.88850830078125,0.6691612438350916,-0.9174588360503315,0.27042262252271176
1772025770127506200,6.898506103515625,0.7075333523273467,-0.8307046817049384,0.27289507705084975
1772025770137503500,6.90850341796875,0.5726017347902059,-0.7200266309365629,0.31724209523424507
1772025770147500300,6.918500244140625,0.4660328729063272,-0.6314823783040047,0.308084609984234
1772025770157498400,6.928498291015625,0.47441842393577094,-0.5408829467073083,0.3035031274128705
1772025770167495200,6.9384951171875,0.5189496395796537,-0.5056947289481759,0.2806953024730086
1772025770177492500,6.948492431640625,0.5150555547505616,-0.5369926612704992,0.24210136792361736
1772025770187490300,6.958490234375,0.47289925154447554,-0.537644110916555,0.21795009248554706
1772025770197487400,6.9684873046875,0.41704935402870175,-0.4676996370747685,0.20023571822717784
1772025770207485200,6.978485107421875,0.29656127238571645,-0.4117132536977529,0.16829415423907337
1772025770217482200,6.988482177734375,0.2072305455505848,-0.40551586036235093,0.13841120328120887
1772025770227479300,6.998479248046875,0.05743044470548629,-0.4354673465117812,0.14976393355317413
1772025770237477400,7.008477294921875,-0.15553250701725482,-0.39498540625870227,0.09009645051062107
1772025770247474200,7.01847412109375,-0.3396808676660061,-0.33642888013273475,0.0010692366667091845
1772025770257471200,7.02847119140625,-0.5356921000659466,-0.2739388139501214,-0.1255900078918785
1772025770267469300,7.03846923828125,-0.690988460239768,-0.23131547775417566,-0.20737214597836134
1772025770277466400,7.04846630859375,-0.7769336362898349,-0.19438480024188756,-0.28887181386165317
1772025770287463200,7.058463134765625,-0.8696703721761703,-0.14067425284236668,-0.4294038086891174
1772025770297461200,7.068461181640625,-0.881910845068097,-0.03994184202700853,-0.49461562798582015
1772025770307458300,7.078458251953125,-0.8933575372338295,0.03556815698742866,-0.6642386927410959
1772025770317455400,7.088455322265625,-0.8616285200178623,0.024692542707920075,-0.7595720940571278
1772025770327453400,7.098453369140625,-0.7666238391995429,0.03839870423823595,-0.8251092728506774
1772025770337450200,7.1084501953125,-0.7699971150249242,0.03353489759415388,-0.7586047103296965
1772025770347447300,7.118447265625,-0.7674784102022647,-0.06936024421304464,-0.6367232746321707
1772025770357445000,7.128445068359375,-0.7458025849670171,-0.25911007813066245,-0.4704241666678339
1772025770367442400,7.1384423828125,-0.8425158232688903,-0.34455753379166126,-0.366349167426303
1772025770377439200,7.148439208984375,-0.9682038116425276,-0.28706776011437174,-0.27007424747645853
1772025770387437300,7.158437255859375,-1.0434580823302269,-0.4018783806428313,-0.16326741211824117
1772025770397434000,7.16843408203125,-1.0925304485350846,-0.6378016444534063,-0.04199007979370653
1772025770407431400,7.178431396484375,-1.1045119782298802,-0.7659583610281347,0.07855082801505923
1772025770417429200,7.18842919921875,-1.0383446848392486,-0.7360247027963399,0.14508081723824143
1772025770427426300,7.19842626953125,-0.9103735539644956,-0.668572922553122,0.1545852162297815
1772025770437423000,7.208423095703125,-0.7777332622349262,-0.6055819211110472,0.149576740418002
1772025770447421400,7.21842138671875,-0.6997592111945152,-0.5567866182819009,0.19713833673372863
1772025770457418200,7.228418212890625,-0.7048252624124288,-0.5053861013904214,0.27599465050138533
1772025770467415300,7.238415283203125,-0.6797644709140062,-0.4375707485318184,0.3159895378898829
1772025770477413400,7.248413330078125,-0.6420020187526941,-0.33016806617230177,0.32787871312610806
1772025770487410000,7.258409912109375,-0.5678437266081571,-0.2128738121345639,0.3172984285313636
1772025770497406700,7.26840673828125,-0.3976268606781959,-0.11818564991950987,0.2928564995836466
1772025770507404800,7.27840478515625,-0.18485270952582358,-0.014003390911221504,0.29418131844662126
1772025770517401600,7.288401611328125,0.028838556471467016,0.14942571457475423,0.3304500249188393
1772025770527399700,7.298399658203125,0.2548743402570486,0.31552988448888064,0.35977125034071505
1772025770537396700,7.308396728515625,0.4652747480154037,0.4598772728860378,0.3548131164766848
1772025770547393800,7.318393798828125,0.6306015038162469,0.5697647577986121,0.37004736435711383
1772025770557391600,7.3283916015625,0.7499363237708807,0.6720332921400666,0.404518812149018
1772025770567388700,7.338388671875,0.7922107003986835,0.7680892355769873,0.459875957711786
1772025770577385700,7.3483857421875,0.815104669252038,0.8701610783025622,0.4932943893194198
1772025770587383800,7.3583837890625,0.9465531208485365,0.9663462010771036,0.4293064857944846
1772025770597380600,7.368380615234375,1.1392787557065487,1.0217691053524613,0.3705407738972455
1772025770607377700,7.378377685546875,1.1542471922576427,1.0360533590316772,0.4018134987130761
1772025770617375500,7.38837548828125,1.093081652677059,0.8468193656817078,0.5505326724536717
1772025770627372800,7.398372802734375,1.0433780028313397,0.6764727358922362,0.6597727263081818
1772025770637369600,7.40836962890625,0.9678045831918716,0.7237076575368643,0.7250391984015703
1772025770647367700,7.41836767578125,0.8737655325353145,0.6438403400957584,0.8735052741639315
1772025770657364500,7.428364501953125,0.681180182930827,0.48644905346930023,0.9751534846499562
1772025770667361800,7.43836181640625,0.4976859022766351,0.3652858490437269,1.0622478307351468
1772025770677359900,7.44835986328125,0.4391635706812143,0.2605322198882699,1.1322793252732604
1772025770687356700,7.458356689453125,0.3236719821512699,0.13422346926778553,1.2370830041155219
1772025770697353700,7.468353759765625,0.1568359908312559,-0.00016220482438802718,1.3198533495217561
1772025770707351800,7.478351806640625,0.049881929022073744,-0.06032441258132457,1.311071492651105
1772025770717348900,7.488348876953125,-0.09564356324374675,-0.0437991019770503,1.2583052403643726
1772025770727345700,7.498345703125,-0.29422727648019786,0.07128478253483772,1.1839859124392271
1772025770737343700,7.50834375,-0.5161380892902613,0.2590855282112956,1.0273829997114836
1772025770747340800,7.5183408203125,-0.7035282083392143,0.4826163434386253,0.7903277361962944
1772025770757337900,7.528337890625,-0.8073170841157435,0.6793468300238251,0.5569045455731452
1772025770767335700,7.538335693359375,-0.8139397171258926,0.8006441822230815,0.39028424283042545
1772025770777332700,7.548332763671875,-0.5759983914911747,0.9078653705358505,0.25629998914599417
1772025770787329800,7.558329833984375,-0.3571200782448053,0.9237737182855605,0.2386256546370685
1772025770797328000,7.568327880859375,-0.2032861918389797,0.891457841092348,0.09506349833346903
1772025770807324700,7.57832470703125,0.09346212755143642,0.8691551161304115,-0.053503334389626976
1772025770817321700,7.58832177734375,0.3994505689740181,0.8607380009189247,-0.04594532022550702
1772025770827319600,7.598319580078125,0.5491016167372464,0.7927943455055355,0.10589717316739261
1772025770837316900,7.60831689453125,0.5818675757855176,0.6297521935105324,0.41295061347298323
1772025770847313700,7.618313720703125,0.5767670377761125,0.46533232342153785,0.74307885909155
1772025770857311700,7.628311767578125,0.6406991194605827,0.28360709826648234,0.8685521818011999
1772025770867308500,7.63830859375,0.6572060176253318,0.06605389614403248,0.862917317719385
1772025770877306600,7.648306640625,0.6126227795332669,-0.18607436027526855,0.8714958340376615
1772025770887304000,7.658303955078125,0.6394038189530372,-0.3800912039875984,0.9268936038717627
1772025770897300700,7.66830078125,0.6134235745221376,-0.5168430226892232,1.1252660124450922
1772025770907298800,7.678298828125,0.5222463430374861,-0.6061047759413719,1.200512465152517
1772025770917295600,7.688295654296875,0.3732885382354259,-0.6688835959374905,1.251465457472205
1772025770927293000,7.69829296875,0.19472002354562282,-0.6978323347851634,1.3085893204465509
1772025770937290800,7.708290771484375,0.07946691994667053,-0.6953583458870649,1.293233492013067
1772025770947287800,7.718287841796875,0.03780862939059734,-0.6801739284977316,1.1968950783729553
1772025770957284600,7.72828466796875,0.05165536843538284,-0.5981748597249388,1.0511888957779854
1772025770967282700,7.73828271484375,0.07152385198771953,-0.4901745037332177,0.8615900877036153
1772025770977279700,7.74827978515625,0.05688040960729122,-0.37261429223567244,0.7068938853800296
1772025770987276800,7.75827685546875,-0.008142974445223808,-0.26819559412300586,0.659968614206463
1772025770997274600,7.768274658203125,-0.05284954665601253,-0.17573329126387832,0.6528088055796921
1772025771007271700,7.778271728515625,-0.08654606455266475,-0.09868307707011699,0.586830605020374
1772025771017268700,7.788268798828125,-0.1573591379225254,-0.033547172553837296,0.5687994929630309
1772025771027266800,7.798266845703125,-0.21032558895647524,-0.00869973154515028,0.567872806572169
1772025771037263600,7.808263671875,-0.19558570046424864,-0.01082242278754711,0.5867021563351154
1772025771047260700,7.8182607421875,-0.17901508941352368,-0.0173234752446413,0.6102938981942833
1772025771057258500,7.828258544921875,-0.16744330956339834,-0.026684008786082267,0.6482935201123357
1772025771067255800,7.838255859375,-0.1279015727698803,-0.09452771095633507,0.7075482576355338
1772025771077252600,7.848252685546875,-0.08131693172752857,-0.13936696963608264,0.7386347391642629
1772025771087250700,7.858250732421875,-0.07206044308245181,-0.17591829244196414,0.7978796859458088
1772025771097247500,7.86824755859375,-0.08533376615345478,-0.21643062783330677,0.8663403509706258
1772025771107244800,7.878244873046875,-0.10785071838796138,-0.2426350364089012,0.9282621157459914
1772025771117243000,7.888242919921875,-0.11848784773647784,-0.26931378449797627,0.9396202528454363
1772025771127239700,7.89823974609375,-0.1488543444275856,-0.3424026938453317,0.9130981566227973
1772025771137236700,7.90823681640625,-0.2190460710287094,-0.541187482611835,0.9899993907999247
1772025771147234600,7.918234619140625,-0.3280851224184036,-0.9505091649979353,1.1667615867201238
1772025771157231900,7.92823193359375,-0.4599544297754764,-1.2544704845070838,1.2460573148183525
1772025771167228700,7.938228759765625,-0.5841863741219043,-1.0723030685424804,1.1606251297917216
1772025771177226800,7.948226806640625,-0.6980845559805631,-0.7564289006605744,1.0713571659944952
1772025771187223600,7.9582236328125,-0.8096236074924469,-0.7832742374882101,1.0117210279382765
1772025771197220900,7.968220947265625,-0.9321645300120115,-0.9301552360162139,0.9145268742516637
1772025771207218700,7.97821875,-1.021253264784813,-0.7462459448203445,0.7712759027890861
1772025771217215700,7.9882158203125,-1.0426023422837256,-0.31487054379731416,0.5678802226936445
1772025771227212500,7.998212646484375,-0.9730284553200006,-0.0729392717435956,0.3327916196089238
1772025771237210600,8.008210693359375,-0.905769859561324,-0.0021817279532551762,0.20099972486961631
1772025771247207700,8.018207763671874,-0.8118979821652174,0.16058569875359535,0.13109153705076312
1772025771257205800,8.028205810546876,-0.733531132414937,0.4001405970647931,-0.005488487014221027
1772025771267202600,8.03820263671875,-0.7912590987622737,0.5608975607320666,-0.16390121650975198
1772025771277200000,8.048199951171876,-0.8440174600034952,0.6149135208189487,-0.27890250077210366
1772025771287198000,8.058197998046875,-0.7469727977901697,0.6739259740188718,-0.339633009936288
1772025771297194800,8.06819482421875,-0.574257685303688,0.8135235375404357,-0.4484105243129655
1772025771307191600,8.078191650390625,-0.30101182205379007,0.8964274461984634,-0.39544071227815
1772025771317189600,8.088189697265625,-0.07914309481978415,0.9350257646620274,-0.38544294027909637
1772025771327187000,8.09818701171875,0.05025660755336284,0.9324944926187395,-0.25928132477803156
1772025771337183700,8.108183837890625,0.10691840597391128,0.8812839453414082,-0.12885937581821344
1772025771347181800,8.118181884765624,0.14468787239789963,0.8319953060373664,-0.07069679917958564
1772025771357178600,8.1281787109375,0.18129063313007354,0.8016276403024792,-0.09052135225865059
1772025771367176000,8.138176025390624,0.15052549251019953,0.7701002831384539,-0.10448314165100454
1772025771377173800,8.148173828125,0.11160919413864612,0.7463990895554423,-0.13600637062918394
1772025771387170800,8.1581708984375,0.1109001690864563,0.7418184837669134,-0.15531411502622067
1772025771397167600,8.168167724609376,0.12005085926949977,0.7264996263429522,-0.22467337285857647
1772025771407165700,8.178165771484375,0.25205869831442834,0.6694079120725392,-0.28058139376975594
1772025771417162800,8.188162841796874,0.4162888910502195,0.6292725933000445,-0.26178897848371413
1772025771427159800,8.198159912109375,0.5762509049475193,0.5819815575540065,-0.19599504845011978
1772025771437157600,8.20815771484375,0.7436205647528171,0.6096271048486233,-0.1727839216726832
1772025771447154700,8.21815478515625,0.8321738774746656,0.6698740682795643,-0.20544189030183477
1772025771457151700,8.22815185546875,0.7754150484204292,0.6880886471450328,-0.1806044044315815
1772025771467149800,8.23814990234375,0.6564414629936218,0.6588876871019601,-0.1659736206033267
1772025771477146600,8.248146728515625,0.5176660295099019,0.6821548731818795,-0.15683233756944537
1772025771487143700,8.258143798828126,0.39540333940982814,0.658349050180614,-0.166010463748686
1772025771497141800,8.268141845703125,0.4025958812624216,0.6079679394647479,-0.2336131237046793
1772025771507138800,8.278138916015624,0.494815899798274,0.5114847105264664,-0.27173786983974274
1772025771517136000,8.288135986328125,0.6200234111785888,0.4274804394111037,-0.2592569757880643
1772025771527133700,8.2981337890625,0.7135165183901786,0.34338206027150153,-0.16962810625657437
1772025771537130800,8.308130859375,0.7934633308082818,0.2345259642332792,-0.09195636263098567
1772025771547127800,8.3181279296875,0.8097305749982595,0.11014847393631934,-0.06275609670765697
1772025771557126000,8.3281259765625,0.7774433393776417,-0.02585077283233404,-0.028238252490758894
1772025771567122700,8.338122802734375,0.7354366737753152,-0.16709814938753842,0.004226641251705587
1772025771577119700,8.34811962890625,0.6744160956233739,-0.31248218735605476,0.028788579849898813
1772025771587117800,8.358117919921876,0.5965338145196437,-0.4429249690413475,0.02019077430926263
1772025771597115000,8.368114990234375,0.49724926442503925,-0.5550234080016613,0.023393808134272692
1772025771607113000,8.378113037109374,0.41549920197725293,-0.6017857436984777,0.12134553872253745
1772025771617109800,8.38810986328125,0.4017863184452057,-0.6302402692884206,0.09314232101254165
1772025771627106800,8.39810693359375,0.4286293171852827,-0.7071835159763693,0.03714470385545864
1772025771637104600,8.408104736328125,0.41490532773733135,-0.7514835532128811,-0.04740474351989105
1772025771647102000,8.41810205078125,0.38797406619191166,-0.7701493829771876,-0.08218364982577041
1772025771657098800,8.4280986328125,0.40773850484788415,-0.7426809458151459,-0.020610095699876544
1772025771667096800,8.438096923828125,0.3822562730669975,-0.6761500798091292,0.09402337816338986
1772025771677093600,8.44809375,0.44427404556274414,-0.62120560670048,0.1358839132932946
1772025771687091000,8.458091064453125,0.485033925974369,-0.5938020514681935,0.1265647894744761
1772025771697088800,8.4680888671875,0.48980654720365996,-0.5648331466153264,0.10565850557330995
1772025771707085800,8.4780859375,0.4104781589448452,-0.5457052522972226,0.09342986924964934
1772025771717082600,8.48808251953125,0.37835049780011176,-0.5876385604023933,0.13957213681936262
1772025771727080700,8.498080810546876,0.33098084385991094,-0.6284983940571546,0.16819891370367257
1772025771737077800,8.508077880859375,0.21923896325230596,-0.6393778077289461,0.1733290796663612
1772025771747074800,8.51807470703125,0.1379652861446142,-0.5870452706843614,0.15161800045464188
1772025771757072600,8.52807275390625,0.10045417839586734,-0.5014487619414926,0.14765497857518492
1772025771767069700,8.538069580078124,0.04287000443339348,-0.4684799737975001,0.14886464662589133
1772025771777066800,8.548066650390625,-0.029143676897883414,-0.4964540223941207,0.14952840776424853
1772025771787064800,8.55806494140625,-0.08218143960237502,-0.4934054484784603,0.12258589417245239
1772025771797062000,8.568061767578126,-0.14299042083024976,-0.38246611642539496,0.06353307242952287
1772025771807058700,8.57805859375,-0.23402678253948686,-0.2305015310227871,-0.01058890629261732
1772025771817056800,8.588056884765624,-0.3203513132959604,-0.09790244808644055,-0.10908530168421565
1772025771827053800,8.5980537109375,-0.3816764273524284,0.03432166405767202,-0.2271053857784718
1772025771837051000,8.60805078125,-0.49618777267336844,0.1606090796291828,-0.288473535259068
1772025771847048700,8.618048583984375,-0.6460013175219297,0.19784633887261152,-0.35028979383334513
1772025771857046000,8.6280458984375,-0.9119640380263327,0.16269757634103296,-0.3378666578508913
1772025771867042800,8.638042724609376,-1.0837614511460065,0.025268589030206203,-0.3545574977478012
1772025771877041000,8.648041015625,-1.0470078837662935,-0.29003830035775896,-0.22260610159784555
1772025771887037700,8.65803759765625,-1.2653875998407602,-0.470320925489068,-0.0724795452773571
1772025771897035000,8.668034912109375,-1.5402876600384712,-0.11216536671668291,-0.08766743326541036
1772025771907032800,8.67803271484375,-1.8061551034748553,0.2066866479322314,-0.24392810842674223
1772025771917030000,8.68802978515625,-1.8064625619888304,0.06503770483881234,-0.5009670793717727
1772025771927027700,8.69802783203125,-1.8469459635466337,-0.1634910648062825,-0.5530473952209577
1772025771937024800,8.708024658203126,-1.9256535895586013,-0.17358049714416265,-0.6177164494104683
1772025771947021800,8.718021728515625,-1.6483803704887627,-0.004326338766515255,-0.7931425744213163
1772025771957020000,8.72802001953125,-1.2179080557852984,0.12938275123834608,-0.8827150010578334
1772025771967016700,8.7380166015625,-0.9787877494990825,0.0730108756750822,-0.8540459559343755
1772025771977013800,8.748013671875,-0.9912895036756991,-0.09472498709410429,-0.6217723006725311
1772025771987011800,8.75801171875,-1.0273761315792798,-0.19045505957752465,-0.31951033242717386
1772025771997009000,8.7680087890625,-1.0422066209644079,-0.14307663780897856,-0.17315123888142406
1772025772007005700,8.778005615234376,-1.1542232268601655,-0.0812085029169917,-0.0862277193184942
1772025772017003800,8.788003662109375,-1.1980524317145347,-0.10410597890168428,-0.06130509418174624
1772025772027000800,8.798000732421874,-1.0840449442625044,-0.11024725813567637,-0.09926621072031556
1772025772036998000,8.807997802734375,-0.9084113139808178,-0.004914367787539959,-0.149974945955351
1772025772046996000,8.817995849609375,-0.6915396643817424,0.19252952776402235,-0.19298048640191554
1772025772056992800,8.82799267578125,-0.4224281244575977,0.42542204557657237,-0.21546119827926158
1772025772066989800,8.83798974609375,-0.14652970087230205,0.6228574655607342,-0.2104750804297626
1772025772076987600,8.847987548828126,0.17134733126461504,0.8114195509985089,-0.20844035973176359
1772025772086985000,8.85798486328125,0.48826107132732866,1.0389841517865657,-0.3070748484198004
1772025772096981800,8.867981689453124,0.7717419128656386,1.223811434610188,-0.5173521412551403
1772025772106979800,8.877979736328125,1.0236913055866956,1.2720415047720073,-0.557024080299586
1772025772116976600,8.8879765625,1.1386468875437974,1.2384110378488897,-0.4633410034738481
1772025772126974000,8.897973876953126,1.1501602152049542,1.1080965587183833,-0.26954342853538693
1772025772136971800,8.9079716796875,1.1686194164812564,0.9463801023691892,-0.014557809923589229
1772025772146968800,8.91796875,1.2445546551704405,0.8456050214558839,0.18262326997332273
1772025772156965600,8.927965576171875,1.2295534853935242,0.7862135058104991,0.3065260554306209
1772025772166963700,8.937963623046874,1.1070505567967892,0.7189177929118276,0.4275459789279848
1772025772176960800,8.947960693359375,0.9658347444236278,0.5790156934857368,0.5782333840016275
1772025772186957800,8.957957763671875,0.7770318359673023,0.3923994814187288,0.7750089518375695
1772025772196956000,8.967955810546876,0.5452431877434253,0.2653212077304721,1.0390320095162837
1772025772206952700,8.97795263671875,0.2548912913918495,0.2461772390604019,1.0995686766088009
1772025772216949800,8.98794970703125,0.00229834007024765,0.243411281478405,1.1153495985865591
1772025772226947800,8.99794775390625,-0.21471651739180087,0.2797635745808482,1.057689071452245
1772025772236945000,9.00794482421875,-0.4163315611481666,0.3844078981429338,0.9476192887753248
1772025772246941700,9.017941650390625,-0.6100532213062048,0.5553457718238234,0.8461443890295922
1772025772256939800,9.027939697265625,-0.6788835964262485,0.7681582091599702,0.6746603527080267
1772025772266936800,9.037936767578126,-0.6428583433210849,0.9393047571554779,0.5638520996887236
1772025772276934000,9.047933837890625,-0.5972866787135601,1.0803910979300737,0.5362086712859571
1772025772286931700,9.057931640625,-0.5398720160990953,1.1564029089868069,0.48785738589726385
1772025772296928800,9.0679287109375,-0.38698680872023106,1.1737515186727046,0.4239164633192122
1772025772306925800,9.07792578125,-0.20070903482735156,1.2557044102162123,0.19930800892300904
1772025772316924000,9.087923828125,-0.06475801111459732,1.2534598461598156,0.04954086049944162
1772025772326920700,9.097920654296875,0.04412205032110214,1.193093055741489,-0.056927171358466144
1772025772336918800,9.107918701171876,0.10596797338128089,1.0744599543154238,-0.001006765889748931
1772025772346915800,9.117915771484375,0.05260346294045448,0.9447612689957022,0.26801073907539247
1772025772356913000,9.127912841796874,0.0054752165406942365,0.7763263180464506,0.5830530592430383
1772025772366910700,9.13791064453125,0.03942541693747043,0.5436208472386003,0.6648099167577922
1772025772376907800,9.14790771484375,0.03645663025975227,0.2814782695442438,0.6951493793115019
1772025772386904800,9.15790478515625,0.10238076254427432,0.08334434590190648,0.7135789161019027
1772025772396903000,9.16790283203125,0.1176747777879238,-0.041484395293891425,0.7498973069347441
1772025772406899700,9.177899658203126,0.03842296189665794,-0.18145692960768936,0.8141992448449135
1772025772416896800,9.187896728515625,0.005226794737577438,-0.3055357292190194,0.7822014206249266
1772025772426894800,9.197894775390624,0.00874152486026287,-0.4044330335617065,0.7702678947903215
1772025772436892000,9.207891845703125,-0.010149638092517852,-0.4591238241702318,0.7192791005048901
1772025772446888700,9.217888671875,-0.015651158118247986,-0.48914136129319663,0.702937914295867
1772025772456886800,9.22788671875,0.030517303338646887,-0.4561266881808638,0.6894766674373298
1772025772466883800,9.2378837890625,0.11177052218019962,-0.4079492249891162,0.6256709155462682
1772025772476881000,9.247880859375,0.1332072779625654,-0.34083120674490924,0.545054167977348
1772025772486879000,9.25787890625,0.1519564020961523,-0.3010065613567829,0.44281252164281903
1772025772496876000,9.2678759765625,0.17877017474174497,-0.2937023758232593,0.30324893345609305
1772025772506872800,9.277872802734375,0.18488485822975634,-0.26204087088555095,0.1971967158574611
1772025772516871000,9.287870849609375,0.17754735494852064,-0.24374124408513306,0.14369498890303076
1772025772526868000,9.297867919921876,0.17093699689805505,-0.2626075648576021,0.1253120677333325
1772025772536865000,9.307864990234375,0.16439385886490343,-0.2888981904119253,0.13253471246324477
1772025772546862800,9.31786279296875,0.2077092689782381,-0.29994156247377396,0.1434967629171908
1772025772556860000,9.32785986328125,0.2742097398459911,-0.3003469284042716,0.17730784710422157
1772025772566857000,9.33785693359375,0.32839784162938596,-0.316691037222743,0.21730602242834865
1772025772576855000,9.34785498046875,0.3594914835512638,-0.33929917487204075,0.280179388840124
1772025772586851800,9.357851806640625,0.4590682945907116,-0.3370651322096586,0.32878048427142204
1772025772596849000,9.367848876953126,0.5460913290053606,-0.32835750961899757,0.40268889330811797
1772025772606846700,9.3778466796875,0.615312164747715,-0.3442120813548565,0.4665165647700429
1772025772616844000,9.387843994140624,0.7057920616179705,-0.3590951777100563,0.5139516120966524
1772025772626840800,9.3978408203125,0.8231751629829406,-0.37206834879070516,0.5509748632632195
1772025772636839000,9.4078388671875,0.8877601556181907,-0.4203852204531431,0.5678736833550035
1772025772646836000,9.4178359375,0.8492524380475283,-0.5288154922947287,0.5949401155874132
1772025772656833000,9.4278330078125,0.7848971625149249,-0.6015317689374089,0.6699119160719216
1772025772666831000,9.4378310546875,0.7396767955631017,-0.6384115930452943,0.7216417379830032
1772025772676828000,9.447827880859375,0.6924737303614616,-0.6695601800248027,0.7402590524304657
1772025772686825000,9.457824951171874,0.5594517458379268,-0.6916679669365287,0.7975887401752173
1772025772696822800,9.46782275390625,0.35491467715501784,-0.695548315501213,0.8681465236097574
1772025772706820000,9.477820068359375,0.2547200264781713,-0.7194725041851401,0.8797354737903922
1772025772716818000,9.48781787109375,0.15682605395913124,-0.7634741429969668,0.9157597039822488
1772025772726815000,9.49781494140625,0.028989363119006156,-0.7335670805111527,0.921801541429758
1772025772736811800,9.507811767578126,-0.0918769041866064,-0.7223515667527913,0.8724361105624586
1772025772746809900,9.517809814453125,-0.2068202111840248,-0.7292448333978653,0.8396477935519069
1772025772756807000,9.527806884765624,-0.27560733168423174,-0.8365718201726674,0.867415140595287
1772025772766804000,9.537803955078125,-0.368174556222558,-1.102679209844768,0.9529960133776069
1772025772776801800,9.5478017578125,-0.5216512997537851,-1.1507786393642425,0.9598587387539446
1772025772786798800,9.557798828125,-0.6889806275486946,-0.8200269280850887,0.909617109574005
1772025772796796000,9.5677958984375,-0.7251660396516323,-0.6181333596482873,0.818553056140244
1772025772806794000,9.5777939453125,-0.6656190411835908,-0.7425248784705996,0.7225928281627595
1772025772816790800,9.587790771484375,-0.6457815372914075,-0.8227662899211049,0.6752674517557025
1772025772826787800,9.597787841796874,-0.6401876628071069,-0.6015536885082722,0.629979061068967
1772025772836786000,9.607785888671875,-0.508892940467596,-0.262766262550652,0.5452110025068745
1772025772846783000,9.617782958984375,-0.3611883505970239,-0.06707184101492167,0.4216482261262834
1772025772856779800,9.62777978515625,-0.24206220495700834,-0.06442337233275175,0.35309327041413635
1772025772866777900,9.63777783203125,-0.07998948251605033,-0.10034954897761345,0.32437658675666897
1772025772876775000,9.64777490234375,0.054174073258042334,-0.0035509704798460003,0.3096072895068675
1772025772886772000,9.65777197265625,0.10211246699690818,0.09130436499565839,0.35344226651489735
1772025772896770000,9.66777001953125,0.11088555603921413,0.08929185612946748,0.38902905513755975
1772025772906766800,9.677766845703125,0.14161620986759663,0.05796645127832889,0.373278162971884
1772025772916764000,9.687763916015625,0.16017244177758694,0.02956599396318197,0.34719986499398947
1772025772926762000,9.697761962890626,0.14623568636178969,0.0051978609040379525,0.33118681476078926
1772025772936759000,9.707759033203125,0.12439093430042267,-0.007312661100924015,0.29840463523007926
1772025772946755800,9.717755859375,0.03227437613904476,-0.0016349077254533767,0.2738704248890281
1772025772956754000,9.72775390625,0.00009878419935703278,0.027641455641388892,0.18193799112290143
1772025772966751000,9.7377509765625,0.08146481576561927,0.1022927919998765,0.06240322814937681
1772025772976748000,9.747748046875,0.1387152277290821,0.21973493007570505,-0.10015004435013979
1772025772986745900,9.757745849609375,0.16746142974197864,0.3564204055428505,-0.2762791665311903
1772025772996743000,9.767742919921876,0.18076456342935562,0.4305360275894403,-0.44265718495063483
1772025773006740000,9.777739990234375,0.14716624521017074,0.4177686082139611,-0.6130572254277765
1772025773016738000,9.787738037109374,0.10598141738474369,0.32849896391630173,-0.7926926386967301
1772025773026734800,9.79773486328125,0.11024258196055889,0.24416326888948678,-0.9636255439415573
1772025773036732000,9.80773193359375,0.07577274160385132,0.21809388487040995,-1.0837084057845174
1772025773046730000,9.81772998046875,0.07558101842403411,0.19705226588547228,-1.2161160578019916
1772025773056727000,9.82772705078125,0.131443775421381,0.1902785339668393,-1.2858420665875077
1772025773066723800,9.837723876953126,0.11571546041369438,0.1466866449996829,-1.1920459578413516
1772025773076722000,9.847721923828125,0.015315642553567885,0.08801526032239199,-1.1254166729621589
1772025773086719000,9.857718994140624,0.08082710238397121,0.049593467469513416,-1.1432337038774043
1772025773096716000,9.867716064453125,0.28086685964763164,0.06656096888333558,-1.1456026980310678
1772025773106714000,9.877714111328125,0.39774844123125075,0.064680269703269,-1.0712779632784426
1772025773116711000,9.8877109375,0.43251229609847064,0.021748013688623904,-0.9772204271171241
1772025773126709000,9.897708984375,0.43910979466736316,-0.003738309745490551,-0.8927329755946993
1772025773136705800,9.907705810546876,0.44233051027953624,0.023480828830599782,-0.8643726310942321
1772025773146703000,9.917703125,0.48456221680939193,0.052337797741591925,-0.8246215623989701
1772025773156701000,9.927700927734374,0.48202246919870373,0.0913496654421091,-0.7910791390854864
1772025773166699000,9.937698974609376,0.30371523579359055,0.22865268828570842,-0.9528667609747499
1772025773176697000,9.947697021484375,0.33375615379214285,0.2725298239350319,-1.0574261827323586
1772025773186694000,9.95769384765625,0.3497404893875122,0.2586307701811194,-1.1038616245623678
1772025773196691000,9.96769091796875,0.48987318269908425,0.2130985608011484,-1.1271521184526383
1772025773206688800,9.977688720703124,0.6399047542124986,0.10432400556653737,-1.1400016631536185
1772025773216686000,9.98768603515625,0.5867600240021944,-0.034388591814041136,-1.1340496228814125
1772025773226683000,9.997682861328125,0.6447159538865089,-0.15287030207067728,-1.0953499629352241
1772025773236681000,10.007680908203126,0.7751268791288137,-0.32729981725960966,-0.9820825532607733
1772025773246677800,10.017677734375,0.7836948009878396,-0.548285624179244,-0.9025109308306127
1772025773256675000,10.027675048828126,0.6945575508981943,-0.7538023515492678,-0.8289991929613053
1772025773266673000,10.0376728515625,0.49794601451754567,-0.8937646567299962,-0.7489814341988414
1772025773276670000,10.047669921875,0.3994558296710253,-0.9907368382290005,-0.6782409876737743
1772025773286666800,10.057666748046875,0.39406303071677684,-1.075209603638947,-0.4747662509927526
1772025773296664800,10.067664794921875,0.2194388697385788,-0.9890282807454466,-0.40675058978907763
1772025773306662000,10.077661865234376,0.1760077242910862,-0.886265825407207,-0.493575507815741
1772025773316659000,10.087658935546875,0.3015758856773376,-0.8074392491906881,-0.5356647736676037
1772025773326656800,10.09765673828125,0.3644984980583191,-0.7075330600664019,-0.5515657052958384
1772025773336653800,10.10765380859375,0.3505050440192222,-0.6060667820185422,-0.5815949693892151
1772025773346651000,10.11765087890625,0.34854046594798566,-0.5177011008232831,-0.642624096173793
1772025773356649000,10.12764892578125,0.42654783473610874,-0.3963222078204155,-0.6558686315417289
1772025773366645800,10.137645751953125,0.4857786068618297,-0.2996469634413719,-0.6561779897518456
1772025773376642800,10.147642822265626,0.4586673125743866,-0.2216281964763999,-0.6636630848102271
1772025773386641200,10.15764111328125,0.4351157565951347,-0.16657938621044158,-0.6462596761971712
1772025773396638000,10.167637939453124,0.41560616948306556,-0.11247457879632711,-0.6347207026381045
1772025773406635000,10.177635009765625,0.3835065653890371,-0.0761067958638072,-0.5745001888226717
1772025773416632800,10.1876328125,0.3295014189571142,-0.0676169076770544,-0.527367595041357
1772025773426630100,10.197630126953126,0.2626163326859474,-0.0922752558544278,-0.42887105351928617
1772025773436627000,10.207626953125,0.22071137389242648,-0.10468728592097759,-0.45491702013015745
1772025773446625000,10.217625,0.1743564499527216,-0.08178951767534016,-0.4882568700762465
1772025773456621800,10.227621826171875,0.0392787019431591,-0.09293898046016692,-0.5178328374441713
1772025773466620000,10.237619873046874,-0.06791033766567707,-0.14202537519037722,-0.575991231098026
1772025773476617000,10.247616943359375,-0.2185796225607395,-0.20194354505836962,-0.6149107443399727
1772025773486613200,10.25761328125,-0.38109482807219025,-0.26871611086577174,-0.6939393459346145
1772025773496611300,10.267611328125,-0.4534031084358692,-0.4014464189663529,-0.7087658167317509
1772025773506608000,10.277608154296875,-0.550788546910882,-0.6211231891140342,-0.6247884336233138
1772025773516605400,10.28760546875,-0.7155331189095974,-0.8765221377670764,-0.4982346222005784
1772025773526603500,10.297603515625,-0.8526701375365257,-1.0793260990470648,-0.3678124814445153
1772025773536600300,10.307600341796874,-0.9307844738304615,-1.1336769901767372,-0.35017829628288744
1772025773546597000,10.31759716796875,-1.0855015728116035,-0.96777974101156,-0.3479744295630604
1772025773556595200,10.32759521484375,-1.3168898235410451,-0.8703063319921494,-0.3744916304148733
1772025773566592500,10.337592529296876,-1.3827613488554953,-0.9383771209165453,-0.3481670295257121
1772025773576589300,10.34758935546875,-1.4121885188698768,-0.8998688188239932,-0.355766617809236
1772025773586587400,10.35758740234375,-1.4201643200546503,-0.6350763111427425,-0.4367883659824729
1772025773596584400,10.36758447265625,-1.2949398575395346,-0.3769298173472285,-0.5622889420252293
1772025773606581500,10.37758154296875,-1.0730231995105743,-0.1843769087076187,-0.6369475118421017
1772025773616579300,10.387579345703125,-1.1466975075304509,-0.139817636013031,-0.5738321533679962
1772025773626576400,10.397576416015625,-1.179827039194107,-0.09113163877725601,-0.6926892728082835
1772025773636573400,10.407573486328126,-0.9632418053209781,-0.018460954841971397,-0.807825325898826
1772025773646571500,10.417571533203125,-0.9701315648347139,0.04888736502677202,-0.8583928990975022
1772025773656568300,10.427568359375,-1.0051321510672568,0.04636164594143629,-0.8687626827467232
1772025773666565400,10.4375654296875,-0.9392693935811519,0.15853461144268513,-0.943945714829117
1772025773676563200,10.447563232421874,-0.7083417461007833,0.2913374002575874,-1.0280463589910418
1772025773686560500,10.457560546875,-0.36554537676274773,0.42435850799828767,-1.1378567600794136
1772025773696557300,10.467557373046875,0.007710428246855736,0.6092652857989073,-1.2157615452758967
1772025773706555400,10.477555419921876,0.3041144642442465,0.7168640752524137,-1.109515997062251
1772025773716552200,10.48755224609375,0.5553893187046051,0.8135241220623254,-0.9081748748764396
1772025773726549500,10.497549560546876,0.7727572273880243,0.8430410161867737,-0.5963835923939943
1772025773736547300,10.50754736328125,0.7482084770649671,0.8634840847566724,-0.3551481936499476
1772025773746544400,10.51754443359375,0.7202490415155888,0.8419783553913235,-0.1980724027134478
1772025773756541200,10.527541259765625,0.6784113027393818,0.996274890872836,-0.07999386643022298
1772025773766539300,10.537539306640625,0.6345014338642359,1.1737561948478221,0.059776861701160665
1772025773776536300,10.547536376953126,0.4326420599579811,1.2081482937932013,0.20648864114210008
1772025773786533400,10.557533447265625,0.2986217120468616,1.1532374306932092,0.2442348728209734
1772025773796531500,10.567531494140624,0.32586452375948427,1.0083382536321879,0.3566172432892024
1772025773806528300,10.5775283203125,0.32475451669096944,0.968904068866372,0.4288480745024979
1772025773816526300,10.5875263671875,0.46098611091077324,1.0061018728822468,0.38772695956304665
1772025773826523400,10.5975234375,0.5804489411592483,1.0484031375169753,0.40024946426674723
1772025773836520400,10.6075205078125,0.4230757747113704,1.1645438376054167,0.36632249861508603
1772025773846518300,10.617518310546876,0.1514595584899187,1.2217810978263617,0.30327640598490835
1772025773856515300,10.627515380859375,-0.029503742381930348,1.2059960841953754,0.26229440725520253
1772025773866512400,10.637512451171874,-0.12716215257942676,1.233980946446955,0.17788345503509043
1772025773876510500,10.647510498046875,-0.16976912216246126,1.2533096240341663,0.09942863474041223
1772025773886507300,10.65750732421875,-0.15040332743525503,1.1474237759783863,0.06944339245185256
1772025773896504300,10.66750439453125,-0.06915127763748169,0.9759373285040259,-0.009988163920491934
1772025773906502100,10.677502197265625,-0.0029874913781881333,0.811542300595343,-0.06358925959616898
1772025773916499500,10.68749951171875,-0.004606617012619972,0.62345280110538,-0.0496244471296668
1772025773926496300,10.697496337890625,0.022760113340616225,0.43685646278262136,0.016935498840361832
1772025773936494300,10.707494384765624,0.06295593012869358,0.28129502193182704,0.14419044426977634
1772025773946491100,10.7174912109375,0.04722761512100696,0.08391600831001997,0.3210978938795626
1772025773956488400,10.727488525390624,0.0797995129019022,-0.10108049360066652,0.363858008197695
1772025773966486500,10.737486572265626,0.08563245683908462,-0.2291150451004505,0.5113000016093254
1772025773976483300,10.7474833984375,0.04903612584769725,-0.3377528222128749,0.7200665245555341
1772025773986480000,10.757480224609376,0.07632336122393607,-0.33824557416588064,0.9211892547503113
1772025773996478200,10.767478271484375,0.22759178105592726,-0.35372459058761596,0.9816989607706665
1772025774006475500,10.7774755859375,0.2394283493220806,-0.42353550117760896,0.9471846967503428
1772025774016472300,10.787472412109375,0.03667290335893631,-0.5093269479706883,0.9330060954026878
1772025774026470400,10.797470458984375,0.040675124737620354,-0.5322328995227813,0.8367964227087795
1772025774036467200,10.80746728515625,0.23846856437921524,-0.5482715956538915,0.7131188973747193
1772025774046464500,10.817464599609375,0.22430384542644022,-0.5965604102656245,0.6350859557539225
1772025774056462300,10.82746240234375,0.13862287327051162,-0.6859256238922476,0.5663341988280415
1772025774066459400,10.83745947265625,0.06958791548907757,-0.796913471262157,0.388971260535717
1772025774076456200,10.847456298828124,0.05127250659763813,-0.7674576596751809,0.2490605394117534
1772025774086454300,10.857454345703125,0.06870879456698895,-0.6551514231830835,0.19267858084589243
1772025774096451300,10.867451416015625,0.12332067472040653,-0.5772896003454924,0.2106255948163569
1772025774106448400,10.877448486328126,0.1769569878399372,-0.5386833908364177,0.3095578243419528
1772025774116446200,10.8874462890625,0.12563888853490351,-0.5229767031386494,0.39839053852707146
1772025774126443300,10.897443359375,0.03834814309477806,-0.4920274381235242,0.3960826999761164
1772025774136440300,10.9074404296875,0.08506488608419895,-0.49057314766198395,0.3487101234264672
1772025774146438400,10.9174384765625,0.1332908645927906,-0.4999105925887823,0.33643881700485945
1772025774156435200,10.927435302734375,0.08305939148068428,-0.48121056829392905,0.33311420262679453
1772025774166432300,10.937432373046875,-0.1049216791987419,-0.5277040239214897,0.3648195467062294
1772025774176430300,10.947430419921876,-0.25600889724493026,-0.5988754092097283,0.34723230595886706
1772025774186427400,10.957427490234375,-0.4035924910843372,-0.5939943591699004,0.2832893375542015
1772025774196424200,10.967424072265626,-0.5319751253694296,-0.5185349212989211,0.19111337735578415
1772025774206422300,10.97742236328125,-0.5688035115510225,-0.4111114884123206,0.061800695678964256
1772025774216419600,10.987419677734374,-0.5666109699428081,-0.3662175769358873,-0.04048347462303936
1772025774226417400,10.99741748046875,-0.4896469727277755,-0.3589996083810925,-0.14277414773106575
1772025774236414500,11.00741455078125,-0.44569735636413094,-0.4051306604370475,-0.10846271280646323
1772025774246411300,11.017411376953126,-0.40943361832797526,-0.5040267957359552,-0.013841259152069687
1772025774256409300,11.027409423828125,-0.4596604152649641,-0.4984674080431461,-0.05601721690669655
1772025774266406400,11.037406494140624,-0.44033436802625653,-0.32069735025465484,0.05902326685488224
1772025774276403500,11.047403564453125,-0.4632014488726854,-0.2711900997638702,0.27855346813872456
1772025774286401300,11.0574013671875,-0.5330173278987408,-0.46889556886106726,0.43656025631502265
1772025774296398300,11.0673984375,-0.5775514661520719,-0.690141780282557,0.49268612122796474
1772025774306395400,11.0773955078125,-0.5860124205052852,-0.7804509967610239,0.6250191736392676
1772025774316393500,11.0873935546875,-0.5369038139432668,-0.7125152323931455,0.620494828082621
1772025774326390300,11.097390380859375,-0.391406963250041,-0.6703682815372943,0.6390666959531605
1772025774336387300,11.10738720703125,-0.33881928240060805,-0.6040592415884137,0.9566934796560556
1772025774346385200,11.11738525390625,-0.8239414711803197,-0.56459320037961,0.9124231069054454
1772025774356382500,11.127382568359375,-0.8573030580341815,-0.4625850705400109,0.49028702419698234
1772025774366379300,11.137379150390625,-0.9150742790013551,-0.300877674280107,0.21810754806958138
1772025774376377300,11.14737744140625,-0.8406909459292888,-0.1122916234448552,0.05191416550204157
1772025774386374100,11.1573740234375,-0.6962947499543428,0.07111410214304924,-0.06438413630090653
1772025774396371500,11.167371337890625,-0.533524108377099,0.26897446954101323,-0.10196209874078631
1772025774406369500,11.17736962890625,-0.33113340407311914,0.43723231035768984,-0.31277737091034646
1772025774416366300,11.187366455078125,-0.1755097116410732,0.5883651211112737,-0.5505974082529544
1772025774426363100,11.197363037109374,-0.18596914633512496,0.6824219996854662,-0.6511971325993537
